sep=,
DeviceTag:,Xsens_DOT_3
FirmwareVersion:,3.0.0
AppVersion:,2023.6.0
StartTime: ,2025-04-09_11:06:15_000 CEST
© Movella Technologies B. V. 2005-2025

PacketCounter,SampleTimeFine,Euler_X,Euler_Y,Euler_Z,Acc_X,Acc_Y,Acc_Z,Gyr_X,Gyr_Y,Gyr_Z
0,2629980460,-131.15679931640625,-81.90294647216797,-147.38533020019531,0.00000000000000,0.00000000000000,0.00000000000000,0.00000000000000,0.00000000000000,0.00000000000000
1,2629997127,-131.00114440917969,-81.92588806152344,-147.39381408691406,9.71427345275879,-0.95453453063965,-0.93596619367599,9.89513015747070,1.47614359855652,-0.63399136066437
2,2630013794,-130.82679748535156,-81.94246673583984,-147.43721008300781,9.70679664611816,-0.99586635828018,-0.93421667814255,9.01084995269775,1.44763648509979,-0.17116969823837
3,2630030461,-130.65466308593750,-81.95794677734375,-147.48162841796875,9.72004222869873,-0.95011430978775,-0.85573571920395,8.96785449981689,1.38340640068054,-0.12239673733711
4,2630047128,-130.51371765136719,-81.97057342529297,-147.52758789062500,9.71295928955078,-0.92792153358459,-0.87204349040985,7.35723733901978,1.24641680717468,-0.02440250664949
5,2630063795,-130.41697692871094,-81.98310852050781,-147.55337524414062,9.73183822631836,-0.91154366731644,-0.87916135787964,6.13606739044189,1.09019827842712,-0.15411162376404
6,2630080462,-130.35386657714844,-81.99619293212891,-147.55744934082031,9.73042011260986,-0.96541851758957,-0.88383436203003,4.71252584457397,1.04581141471863,-0.23404884338379
7,2630097129,-130.25703430175781,-82.00640869140625,-147.60140991210938,9.67249584197998,-1.02951300144196,-1.01650393009186,4.60391569137573,1.15866100788116,0.09362082928419
8,2630113796,-130.14662170410156,-82.01638031005859,-147.63819885253906,9.71628856658936,-0.99019074440002,-0.98692607879639,5.70154714584351,1.12295687198639,0.07448813319206
9,2630130463,-130.01913452148438,-82.02710723876953,-147.69044494628906,9.77077579498291,-0.88603299856186,-0.92521703243256,5.76702690124512,1.24518084526062,0.13154044747353
10,2630147130,-129.91831970214844,-82.04061126708984,-147.72993469238281,9.75624084472656,-0.91068089008331,-0.86920052766800,4.51672983169556,1.31920146942139,-0.03439785912633
11,2630163797,-129.83810424804688,-82.05581665039062,-147.77926635742188,9.72389602661133,-1.05841112136841,-0.91453939676285,3.15420413017273,1.40161657333374,-0.10719555616379
12,2630180464,-129.75146484375000,-82.07202148437500,-147.84101867675781,9.70791053771973,-1.06475341320038,-0.95584607124329,2.89137935638428,1.50118601322174,-0.09025275707245
13,2630197131,-129.65254211425781,-82.09346771240234,-147.90890502929688,9.73115539550781,-0.90806341171265,-0.92659735679626,2.91118407249451,1.78459680080414,-0.27792337536812
14,2630213798,-129.55705261230469,-82.11387634277344,-147.99374389648438,9.70841693878174,-0.94653654098511,-0.91720277070999,1.60980319976807,1.85107481479645,-0.12785860896111
15,2630230465,-129.42245483398438,-82.12974548339844,-148.11601257324219,9.66384887695312,-1.02398049831390,-0.91357612609863,1.93297767639160,1.89687669277191,0.25099167227745
16,2630247132,-129.27526855468750,-82.14028167724609,-148.23818969726562,9.69002532958984,-1.02669131755829,-0.86020511388779,2.85887694358826,1.67398190498352,0.48098087310791
17,2630263799,-129.13398742675781,-82.14674377441406,-148.35311889648438,9.72081947326660,-0.89182752370834,-0.79996043443680,3.18271064758301,1.44424879550934,0.60909551382065
18,2630280466,-129.01994323730469,-82.14890289306641,-148.44627380371094,9.75176239013672,-0.88768100738525,-0.77275955677032,2.35564494132996,1.20129311084747,0.73058301210403
19,2630297133,-128.94732666015625,-82.14772796630859,-148.52481079101562,9.70255756378174,-0.96181118488312,-0.83332163095474,0.95600044727325,0.95853614807129,0.79259139299393
20,2630313800,-128.86479187011719,-82.14340209960938,-148.60076904296875,9.68122100830078,-1.04303419589996,-0.97760081291199,1.43730139732361,0.85037362575531,0.94850867986679
21,2630330467,-128.73320007324219,-82.14048004150391,-148.69599914550781,9.73759174346924,-1.02138245105743,-0.94677460193634,3.45317482948303,1.00079727172852,0.96811527013779
22,2630347134,-128.57115173339844,-82.13838195800781,-148.81681823730469,9.74706554412842,-0.95379495620728,-0.92610865831375,3.61535501480103,1.21826183795929,1.06815862655640
23,2630363801,-128.40653991699219,-82.14082336425781,-148.95083618164062,9.75000286102295,-0.94584465026855,-0.84913611412048,2.95175480842590,1.47327446937561,0.92617440223694
24,2630380468,-128.25433349609375,-82.14570617675781,-149.08586120605469,9.69513130187988,-1.11995649337769,-0.87294143438339,2.37763357162476,1.54912650585175,0.79328292608261
25,2630397135,-128.10958862304688,-82.15207672119141,-149.21455383300781,9.71173095703125,-1.05064392089844,-0.91507416963577,2.51586508750916,1.54506719112396,0.66601353883743
26,2630413802,-127.96671295166016,-82.16146087646484,-149.34875488281250,9.73363590240479,-0.96292483806610,-0.89895999431610,1.80567598342896,1.71793997287750,0.57370525598526
27,2630430469,-127.84141540527344,-82.17150878906250,-149.48031616210938,9.73974227905273,-0.98237210512161,-0.89577299356461,0.90110588073730,1.72614216804504,0.52579027414322
28,2630447136,-127.69705200195312,-82.18167114257812,-149.62278747558594,9.70329093933105,-1.00940620899200,-0.82941681146622,1.53466820716858,1.78332889080048,0.56037384271622
29,2630463803,-127.55332183837891,-82.18696594238281,-149.76376342773438,9.69235324859619,-0.92233192920685,-0.83245897293091,1.45690798759460,1.60930371284485,0.79260426759720
30,2630480470,-127.42185211181641,-82.18535614013672,-149.89451599121094,9.73549842834473,-1.00897276401520,-0.75729304552078,1.15094506740570,1.31181836128235,1.08074069023132
31,2630497137,-127.31247711181641,-82.18521118164062,-150.01506042480469,9.72276210784912,-0.97928309440613,-0.77011901140213,1.13862538337708,1.22964000701904,0.89371669292450
32,2630513804,-127.23857116699219,-82.18379974365234,-150.09773254394531,9.71584987640381,-1.00658583641052,-0.81781089305878,0.53122663497925,1.01145184040070,0.83312350511551
33,2630530471,-127.17428588867188,-82.18137359619141,-150.16342163085938,9.70305156707764,-1.06147706508636,-0.83889240026474,1.17308080196381,0.84076881408691,0.78143709897995
34,2630547138,-127.10785675048828,-82.17762756347656,-150.21482849121094,9.70150184631348,-1.00402998924255,-0.79073673486710,2.22357296943665,0.69681268930435,0.76454555988312
35,2630563805,-127.05432128906250,-82.17491149902344,-150.25755310058594,9.72954654693604,-0.98702436685562,-0.80028778314590,1.85485887527466,0.69160687923431,0.67850595712662
36,2630580472,-127.01373291015625,-82.17158508300781,-150.29769897460938,9.70477104187012,-1.05726206302643,-0.87241518497467,1.22251963615417,0.64855194091797,0.70130133628845
37,2630597139,-126.96339416503906,-82.16751861572266,-150.32949829101562,9.68849277496338,-1.08067595958710,-0.88178122043610,2.51772832870483,0.54811179637909,0.67543256282806
38,2630613806,-126.90373992919922,-82.16378784179688,-150.35162353515625,9.72049331665039,-1.00628900527954,-0.81217926740646,3.42635154724121,0.51900291442871,0.63263362646103
39,2630630473,-126.84684753417969,-82.15853118896484,-150.36761474609375,9.72357654571533,-0.93669372797012,-0.79094469547272,3.58326792716980,0.42847487330437,0.68084967136383
40,2630647140,-126.79683685302734,-82.15502929687500,-150.38275146484375,9.72803878784180,-1.03405213356018,-0.83065009117126,3.52424311637878,0.45607247948647,0.56240367889404
41,2630663807,-126.74974822998047,-82.15072631835938,-150.39579772949219,9.71345996856689,-1.08985197544098,-0.86768752336502,3.35953450202942,0.42352518439293,0.60531133413315
42,2630680474,-126.71345520019531,-82.14766693115234,-150.38648986816406,9.74594783782959,-1.10667252540588,-0.84693628549576,3.90307497978210,0.34078341722488,0.44068577885628
43,2630697141,-126.70155334472656,-82.14811706542969,-150.37049865722656,9.73684692382812,-0.99157601594925,-0.77397882938385,2.94498014450073,0.40841370820999,0.23415772616863
44,2630713808,-126.72897338867188,-82.14667510986328,-150.34262084960938,9.67005538940430,-1.04629778862000,-0.83604490756989,1.07424139976501,0.28606182336807,0.28483241796494
45,2630730475,-126.74145507812500,-82.14125061035156,-150.32716369628906,9.66889095306396,-1.08641707897186,-0.88378387689590,1.81750905513763,0.16502901911736,0.48459866642952
46,2630747142,-126.73671722412109,-82.13471221923828,-150.28793334960938,9.75879287719727,-0.98992979526520,-0.79041314125061,3.63341140747070,0.02832124382257,0.48152518272400
47,2630763809,-126.76158905029297,-82.12825012207031,-150.23431396484375,9.77184200286865,-0.93961495161057,-0.71988403797150,2.86321187019348,-0.07671004533768,0.39007502794266
48,2630780476,-126.83728027343750,-82.12146759033203,-150.16867065429688,9.70242881774902,-1.01643335819244,-0.85387259721756,0.43524298071861,-0.15447019040585,0.35013198852539
49,2630797143,-126.90508270263672,-82.11538696289062,-150.10456848144531,9.69858932495117,-1.13315761089325,-0.90942215919495,0.81792229413986,-0.11961130052805,0.32545414566994
50,2630813810,-126.92034912109375,-82.11043548583984,-150.06587219238281,9.71602439880371,-1.03668284416199,-0.84328359365463,2.59375309944153,0.06736780703068,0.38873031735420
51,2630830477,-126.95357513427734,-82.10454559326172,-150.01750183105469,9.71940803527832,-0.85676026344299,-0.77373468875885,2.06062507629395,-0.01897901110351,0.38089290261269
52,2630847144,-127.02870941162109,-82.09483337402344,-149.95149230957031,9.73196887969971,-0.93383359909058,-0.76616704463959,0.83579373359680,-0.30607816576958,0.46326974034309
53,2630863811,-127.11017608642578,-82.08007049560547,-149.87826538085938,9.71183395385742,-1.07114386558533,-0.85141414403915,0.71239167451859,-0.51305443048477,0.67381894588470
54,2630880478,-127.17829132080078,-82.06175231933594,-149.80204772949219,9.72248935699463,-1.07547366619110,-0.87643104791641,1.71003162860870,-0.66976559162140,0.83158016204834
55,2630897145,-127.23239898681641,-82.04150390625000,-149.73481750488281,9.74981498718262,-0.99070721864700,-0.82835650444031,1.95222556591034,-0.67260867357254,0.96903097629547
56,2630913812,-127.30071258544922,-82.02006530761719,-149.66355895996094,9.74057674407959,-0.93831932544708,-0.75561904907227,1.22999882698059,-0.73372060060501,1.01562047004700
57,2630930479,-127.42443084716797,-81.99692535400391,-149.56567382812500,9.68891906738281,-0.97963130474091,-0.81408441066742,-0.26929193735123,-1.00391542911530,0.93795627355576
58,2630947146,-127.55043792724609,-81.97434997558594,-149.47059631347656,9.72309970855713,-1.02886295318604,-0.90609669685364,-0.61439746618271,-0.95863223075867,0.92042434215546
59,2630963813,-127.65168762207031,-81.95318603515625,-149.39340209960938,9.71137714385986,-1.07153570652008,-0.93981468677521,-0.10689461231232,-0.79819411039352,0.93087434768677
60,2630980480,-127.70945739746094,-81.93595886230469,-149.33999633789062,9.73097896575928,-1.01092481613159,-0.94242143630981,0.83857899904251,-0.47461614012718,0.89128994941711
61,2630997147,-127.76452636718750,-81.92234039306641,-149.29701232910156,9.73100662231445,-1.01560389995575,-0.92726415395737,0.41461840271950,-0.27539417147636,0.76621669530869
62,2631013814,-127.81865692138672,-81.90990447998047,-149.25396728515625,9.70981121063232,-1.06742322444916,-0.92154836654663,0.51883649826050,-0.24179029464722,0.70847296714783
63,2631030481,-127.86631011962891,-81.89891815185547,-149.21385192871094,9.72184753417969,-1.04616951942444,-0.90991246700287,0.62474495172501,-0.15423326194286,0.65988552570343
64,2631047148,-127.93063354492188,-81.88927459716797,-149.15641784667969,9.73033428192139,-1.08660197257996,-0.85783201456070,0.56879401206970,-0.21163131296635,0.51339375972748
65,2631063815,-127.98997497558594,-81.87525177001953,-149.10493469238281,9.68421268463135,-1.09261322021484,-0.90787404775620,1.02396368980408,-0.39197677373886,0.70801824331284
66,2631080482,-128.02047729492188,-81.85760498046875,-149.06010437011719,9.71652698516846,-1.03923237323761,-0.86607819795609,1.94223022460938,-0.43700391054153,0.94863677024841
67,2631097149,-128.05986022949219,-81.84029388427734,-149.00627136230469,9.72068119049072,-0.98126554489136,-0.92826837301254,1.70555603504181,-0.45937654376030,0.90608125925064
68,2631113816,-128.08358764648438,-81.82164001464844,-148.97311401367188,9.70322132110596,-1.02461183071136,-0.90972101688385,1.52251482009888,-0.38193652033806,1.06590449810028
69,2631130483,-128.10252380371094,-81.80230712890625,-148.94592285156250,9.70869350433350,-1.11801803112030,-0.90795445442200,1.62134158611298,-0.38506132364273,1.11485040187836
70,2631147150,-128.13003540039062,-81.78389739990234,-148.90603637695312,9.70464611053467,-1.04471218585968,-0.86678445339203,1.72777497768402,-0.41954877972603,1.01046574115753
71,2631163817,-128.18016052246094,-81.76398468017578,-148.86557006835938,9.68533992767334,-1.04046428203583,-0.90142446756363,0.58595454692841,-0.51031386852264,1.07182741165161
72,2631180484,-128.23910522460938,-81.74372100830078,-148.81726074218750,9.72167682647705,-1.09631347656250,-0.91119599342346,0.45102679729462,-0.56065553426743,1.04255211353302
73,2631197151,-128.28993225097656,-81.72481536865234,-148.77388000488281,9.73089694976807,-1.06083858013153,-0.88461673259735,0.71477365493774,-0.48666048049927,0.99789643287659
74,2631213818,-128.36956787109375,-81.70705413818359,-148.71838378906250,9.69510173797607,-1.06981110572815,-0.89570480585098,-0.11927194148302,-0.55147343873978,0.86468464136124
75,2631230485,-128.45988464355469,-81.68780517578125,-148.64721679687500,9.67487144470215,-1.06083071231842,-0.91689562797546,-0.32262396812439,-0.66180008649826,0.89518940448761
76,2631247152,-128.54521179199219,-81.66822814941406,-148.57250976562500,9.72983837127686,-1.07961571216583,-0.91135311126709,0.75395464897156,-0.75647115707397,0.83070313930511
77,2631263819,-128.62892150878906,-81.64967346191406,-148.48674011230469,9.74644374847412,-1.03526747226715,-0.84573459625244,1.08309078216553,-0.74804455041885,0.75825756788254
78,2631280486,-128.75241088867188,-81.63101959228516,-148.38374328613281,9.67978000640869,-1.08450198173523,-0.91237509250641,-0.17393584549427,-0.89093774557114,0.66287589073181
79,2631297153,-128.88162231445312,-81.61315917968750,-148.27990722656250,9.68870449066162,-1.14909863471985,-0.94825595617294,-0.42347395420074,-0.86695784330368,0.60686725378036
80,2631313820,-129.03131103515625,-81.59688568115234,-148.15728759765625,9.71404743194580,-1.05837869644165,-0.98352324962616,-0.67455524206161,-0.92759585380554,0.44326615333557
81,2631330487,-129.18817138671875,-81.58273315429688,-148.03271484375000,9.74511146545410,-1.06003427505493,-0.96128618717194,-0.83191329240799,-0.87325221300125,0.30656483769417
82,2631347154,-129.35682678222656,-81.57074737548828,-147.90989685058594,9.71167469024658,-1.08542013168335,-0.97959303855896,-1.62207794189453,-0.78397923707962,0.20988969504833
83,2631363821,-129.53166198730469,-81.56376647949219,-147.79522705078125,9.68399715423584,-1.08244884014130,-1.00851345062256,-2.50327658653259,-0.53901290893555,0.02567673288286
84,2631380488,-129.69773864746094,-81.55947875976562,-147.68159484863281,9.70609188079834,-1.09923231601715,-1.01791465282440,-2.04401493072510,-0.42641940712929,-0.09811584651470
85,2631397155,-129.86837768554688,-81.55776214599609,-147.54539489746094,9.74459648132324,-1.06934154033661,-0.94053477048874,-1.05801582336426,-0.47019156813622,-0.33984851837158
86,2631413822,-130.04521179199219,-81.55413055419922,-147.41438293457031,9.69485855102539,-1.08582758903503,-0.95705586671829,-1.47576522827148,-0.53680372238159,-0.24946770071983
87,2631430489,-130.18373107910156,-81.54479217529297,-147.30700683593750,9.64885520935059,-1.09936666488647,-0.96707963943481,-0.82126480340958,-0.57170748710632,0.16654656827450
88,2631447156,-130.30012512207031,-81.53189086914062,-147.21986389160156,9.66575813293457,-0.99078279733658,-0.98119002580643,-0.61596620082855,-0.58494919538498,0.43772101402283
89,2631463823,-130.37736511230469,-81.51650238037109,-147.15489196777344,9.73530483245850,-1.05964744091034,-1.01942658424377,0.72560137510300,-0.56391483545303,0.64298760890961
90,2631480490,-130.40303039550781,-81.50431060791016,-147.10270690917969,9.72358417510986,-1.03958809375763,-1.00353014469147,2.75194382667542,-0.32033163309097,0.59718573093414
91,2631497157,-130.44410705566406,-81.49284362792969,-147.04167175292969,9.70616626739502,-1.05067777633667,-0.96503710746765,2.29984116554260,-0.34148770570755,0.51489210128784
92,2631513824,-130.50424194335938,-81.48327636718750,-146.98417663574219,9.68153095245361,-1.08799159526825,-0.96232974529266,1.12122797966003,-0.27175074815750,0.43587049841881
93,2631530491,-130.59109497070312,-81.47783660888672,-146.91386413574219,9.71186065673828,-1.09343588352203,-0.98517745733261,0.13243687152863,-0.17658676207066,0.18343172967434
94,2631547158,-130.68077087402344,-81.47267913818359,-146.85400390625000,9.68401908874512,-1.08439207077026,-1.07079851627350,-0.48425930738449,-0.11822821199894,0.21644650399685
95,2631563825,-130.73352050781250,-81.46636199951172,-146.81741333007812,9.71525382995605,-1.01934063434601,-0.98940426111221,0.24595877528191,0.00726120080799,0.41080209612846
96,2631580492,-130.77346801757812,-81.46148681640625,-146.77578735351562,9.70440483093262,-1.02345180511475,-0.97286605834961,1.35114669799805,0.02862219139934,0.30888918042183
97,2631597159,-130.81799316406250,-81.45568847656250,-146.72782897949219,9.72003269195557,-1.03713798522949,-0.93638163805008,1.11376190185547,-0.01514991372824,0.34928682446480
98,2631613826,-130.88142395019531,-81.45012664794922,-146.67819213867188,9.68422317504883,-1.08645534515381,-0.97646552324295,0.27023318409920,-0.04087786376476,0.31077805161476
99,2631630493,-130.95072937011719,-81.44444274902344,-146.63232421875000,9.69611358642578,-1.07228994369507,-1.05870401859283,-0.15444459021091,-0.03790679574013,0.32341796159744
100,2631647160,-131.00431823730469,-81.43977355957031,-146.59484863281250,9.72081851959229,-0.99401754140854,-1.01956236362457,0.27203246951103,0.06275111436844,0.32561424374580
101,2631663827,-131.03678894042969,-81.43640899658203,-146.56965637207031,9.71586036682129,-1.06695163249969,-1.00737166404724,0.94920665025711,0.17743197083473,0.32820114493370
102,2631680494,-131.02285766601562,-81.43064880371094,-146.56021118164062,9.68837928771973,-1.12079524993896,-1.01593375205994,2.59844017028809,0.21499939262867,0.54350781440735
103,2631697161,-131.00483703613281,-81.42384338378906,-146.56141662597656,9.68724822998047,-1.00421977043152,-0.98174417018890,2.42488241195679,0.22227983176708,0.63490039110184
104,2631713828,-131.00982666015625,-81.41551208496094,-146.55979919433594,9.72597408294678,-1.02696478366852,-0.98283070325851,0.99373435974121,0.16735337674618,0.70678246021271
105,2631730495,-131.01593017578125,-81.41069030761719,-146.55740356445312,9.71526622772217,-1.04156589508057,-1.00952255725861,0.96351134777069,0.30240914225578,0.54499977827072
106,2631747162,-131.01324462890625,-81.40570831298828,-146.55952453613281,9.71119976043701,-1.05006337165833,-0.99208408594131,1.18357563018799,0.32958415150642,0.58363652229309
107,2631763829,-131.00515747070312,-81.39987945556641,-146.55688476562500,9.68081474304199,-1.05569314956665,-1.03098213672638,1.92339837551117,0.24803335964680,0.58099848031998
108,2631780496,-131.01432800292969,-81.39549255371094,-146.54211425781250,9.69070720672607,-1.00947976112366,-1.01433062553406,1.44152104854584,0.24314133822918,0.45933806896210
109,2631797163,-131.03927612304688,-81.39266967773438,-146.52485656738281,9.70462131500244,-1.04840934276581,-1.01602542400360,0.88724309206009,0.25930935144424,0.35058024525642
110,2631813830,-131.04431152343750,-81.38958740234375,-146.52458190917969,9.69896507263184,-1.08574855327606,-1.01903402805328,1.01572918891907,0.37068620324135,0.46924382448196
111,2631830497,-130.98660278320312,-81.38010406494141,-146.56832885742188,9.70207977294922,-1.11521756649017,-1.01259422302246,2.04510354995728,0.43223354220390,1.02756226062775
112,2631847164,-130.92451477050781,-81.37120056152344,-146.61088562011719,9.68878650665283,-1.01340603828430,-0.98084151744843,2.24475479125977,0.46190583705902,1.01200270652771
113,2631863831,-130.88395690917969,-81.36077880859375,-146.64714050292969,9.70894432067871,-1.03613162040710,-0.93842482566833,1.46607732772827,0.34629008173943,1.02651214599609
114,2631880498,-130.88075256347656,-81.35123443603516,-146.66917419433594,9.71536922454834,-1.02402901649475,-0.95364618301392,0.34083458781242,0.25215059518814,0.87739503383636
115,2631897165,-130.89230346679688,-81.34011840820312,-146.68215942382812,9.70731544494629,-1.08653545379639,-1.02780461311340,-0.35047137737274,0.16625842452049,0.93196290731430
116,2631913832,-130.90734863281250,-81.33118438720703,-146.68875122070312,9.70855140686035,-1.01228475570679,-0.99923163652420,-0.10416684299707,0.19899144768715,0.78657239675522
117,2631930499,-130.93765258789062,-81.32359313964844,-146.69758605957031,9.72436141967773,-1.06979274749756,-1.01180183887482,-1.14877438545227,0.26898458600044,0.73655724525452
118,2631947166,-130.96586608886719,-81.31850433349609,-146.70657348632812,9.65932750701904,-1.06787204742432,-1.10159206390381,-1.19350063800812,0.38762897253036,0.64024704694748
119,2631963833,-130.94871520996094,-81.31732940673828,-146.73204040527344,9.71882247924805,-1.14221286773682,-1.09650051593781,0.19065454602242,0.69220238924026,0.59902346134186
120,2631980500,-130.90058898925781,-81.31877136230469,-146.77020263671875,9.71722698211670,-1.07554531097412,-1.00579226016998,1.84203970432281,0.82452398538589,0.49798771739006
121,2631997167,-130.86131286621094,-81.31836700439453,-146.82218933105469,9.69821548461914,-1.01672601699829,-0.94900679588318,0.71196907758713,0.81906849145889,0.64227682352066
122,2632013834,-130.84539794921875,-81.31700897216797,-146.86355590820312,9.69893932342529,-1.07051765918732,-0.96641665697098,-0.24377526342869,0.72850197553635,0.64223843812943
123,2632030501,-130.81408691406250,-81.31721496582031,-146.91220092773438,9.70128440856934,-1.13366651535034,-1.03425395488739,0.44485408067703,0.81808239221573,0.59540551900864
124,2632047168,-130.75335693359375,-81.31988525390625,-146.95985412597656,9.71868515014648,-1.08511114120483,-1.05576515197754,1.84989011287689,0.95233148336411,0.52029639482498
125,2632063835,-130.68778991699219,-81.32434844970703,-147.02330017089844,9.69068527221680,-1.08724021911621,-1.01955497264862,1.45432102680206,1.10796070098877,0.50174635648727
126,2632080502,-130.61480712890625,-81.32773590087891,-147.09619140625000,9.67497825622559,-1.09360659122467,-0.99860125780106,1.20542967319489,1.14717364311218,0.61971843242645
127,2632097169,-130.55941772460938,-81.32995605468750,-147.16532897949219,9.68378353118896,-1.01082491874695,-0.97409933805466,0.35132303833961,1.07549655437469,0.65283572673798
128,2632113836,-130.51553344726562,-81.32957458496094,-147.24638366699219,9.73120307922363,-1.04111409187317,-0.98328185081482,-0.98756158351898,1.04522216320038,0.83939856290817
129,2632130503,-130.47625732421875,-81.32699584960938,-147.32617187500000,9.71764564514160,-1.13656473159790,-1.00458192825317,-1.18417119979858,0.95696735382080,0.92643707990646
130,2632147170,-130.41925048828125,-81.32407379150391,-147.42065429687500,9.71361923217773,-1.12692868709564,-1.02764427661896,-0.68679809570312,1.00429952144623,1.00280117988586
131,2632163837,-130.34240722656250,-81.32112884521484,-147.52374267578125,9.73069095611572,-1.14757895469666,-1.05280292034149,-0.31112384796143,1.10687839984894,1.07634806632996
132,2632180504,-130.25817871093750,-81.32271575927734,-147.63880920410156,9.69473457336426,-1.10635435581207,-1.02384662628174,-0.41201868653297,1.34519803524017,0.92409974336624
133,2632197171,-130.16461181640625,-81.32819366455078,-147.77116394042969,9.71089649200439,-1.10060536861420,-1.02404117584229,-1.07573330402374,1.64000034332275,0.86447346210480
134,2632213838,-130.07250976562500,-81.33506011962891,-147.89387512207031,9.70343112945557,-1.12656819820404,-1.00675320625305,-0.53556162118912,1.61017429828644,0.74669343233109
135,2632230505,-129.96177673339844,-81.34082031250000,-148.01811218261719,9.71145153045654,-1.08179569244385,-0.98136317729950,0.41990098357201,1.59772646427155,0.79885363578796
136,2632247172,-129.86331176757812,-81.34669494628906,-148.13114929199219,9.69614791870117,-1.08014643192291,-0.95019775629044,0.58140194416046,1.49320137500763,0.70762133598328
137,2632263839,-129.76496887207031,-81.34907531738281,-148.23945617675781,9.68522834777832,-1.11779105663300,-0.94798725843430,0.68945538997650,1.34864950180054,0.85397857427597
138,2632280506,-129.65921020507812,-81.35055541992188,-148.35292053222656,9.69880867004395,-1.05237329006195,-0.96027064323425,0.97371798753738,1.32976007461548,0.91187602281570
139,2632297173,-129.54885864257812,-81.35041809082031,-148.46591186523438,9.69995880126953,-1.12429344654083,-1.00224184989929,1.03766644001007,1.29399836063385,1.00662386417389
140,2632313840,-129.44052124023438,-81.35101318359375,-148.56520080566406,9.69829273223877,-1.12469148635864,-0.93451774120331,1.78685092926025,1.22177052497864,0.88502770662308
141,2632330507,-129.35726928710938,-81.34984588623047,-148.65248107910156,9.70674133300781,-1.08860301971436,-0.90122634172440,1.17623770236969,1.05301499366760,0.87827229499817
142,2632347174,-129.28967285156250,-81.34973907470703,-148.71774291992188,9.69129562377930,-1.13720977306366,-0.98683655261993,1.33410775661469,0.96265965700150,0.72301441431046
143,2632363841,-129.22514343261719,-81.35095977783203,-148.78523254394531,9.71683502197266,-1.07981789112091,-0.97997373342514,0.97474890947342,1.03697478771210,0.67445278167725
144,2632380508,-129.16773986816406,-81.35132598876953,-148.84963989257812,9.72016334533691,-1.09054028987885,-0.93198496103287,0.81472718715668,0.97229653596878,0.69087696075439
145,2632397175,-129.13056945800781,-81.34583282470703,-148.88789367675781,9.67768383026123,-1.06616330146790,-0.89917570352554,1.11919808387756,0.56797444820404,0.81935018301010
146,2632413842,-129.11630249023438,-81.33544158935547,-148.90235900878906,9.67782497406006,-1.08151924610138,-0.84808182716370,0.78349256515503,0.26089099049568,0.94691437482834
147,2632430509,-129.11030578613281,-81.32193756103516,-148.90628051757812,9.70303344726562,-1.10370850563049,-0.94220787286758,1.39386236667633,0.01536121778190,0.98280405998230
148,2632447176,-129.10699462890625,-81.30358123779297,-148.90531921386719,9.71866512298584,-1.10035049915314,-0.92764586210251,1.39282476902008,-0.19058406352997,1.19542777538300
149,2632463843,-129.11535644531250,-81.28372955322266,-148.89637756347656,9.70738887786865,-1.10831558704376,-0.91559571027756,1.06899714469910,-0.28940430283546,1.22755265235901
150,2632480510,-129.15702819824219,-81.26621246337891,-148.86947631835938,9.67564773559570,-1.13330698013306,-0.95068079233170,0.26710206270218,-0.34837752580643,1.00622057914734
151,2632497177,-129.22431945800781,-81.24774169921875,-148.82643127441406,9.68008422851562,-1.10058808326721,-0.94772964715958,-0.00772222829983,-0.53446018695831,0.92605274915695
152,2632513844,-129.29971313476562,-81.23017120361328,-148.77835083007812,9.71185111999512,-1.10146880149841,-0.98859500885010,-0.48130103945732,-0.49750104546547,0.87542277574539
153,2632530511,-129.37571716308594,-81.21360778808594,-148.73036193847656,9.71741390228271,-1.14129722118378,-1.00673210620880,-0.59596908092499,-0.45732754468918,0.83961629867554
154,2632547178,-129.44551086425781,-81.20015716552734,-148.69256591796875,9.68893623352051,-1.15721833705902,-1.01200664043427,-0.70994555950165,-0.27876859903336,0.73794674873352
155,2632563845,-129.51000976562500,-81.18644714355469,-148.65785217285156,9.69586849212646,-1.13334059715271,-0.97738415002823,-0.74148124456406,-0.24821905791759,0.78394067287445
156,2632580512,-129.57818603515625,-81.17352294921875,-148.60964965820312,9.70179939270020,-1.12555050849915,-0.96901267766953,-0.17959623038769,-0.31253895163536,0.66945832967758
157,2632597179,-129.65138244628906,-81.15926361083984,-148.56146240234375,9.68988037109375,-1.12208867073059,-0.95138198137283,0.03914260864258,-0.42788580060005,0.67920392751694
158,2632613846,-129.73048400878906,-81.14463806152344,-148.49353027343750,9.69308185577393,-1.13644540309906,-0.95698916912079,0.36367470026016,-0.52355557680130,0.62564140558243
159,2632630513,-129.80436706542969,-81.12847900390625,-148.42710876464844,9.68229579925537,-1.11266672611237,-0.95528078079224,0.72102308273315,-0.58903443813324,0.68951946496964
160,2632647180,-129.87686157226562,-81.11263275146484,-148.35636901855469,9.71142387390137,-1.10509872436523,-0.98725986480713,0.38346692919731,-0.53066945075989,0.71718758344650
161,2632663847,-129.95121765136719,-81.09501647949219,-148.29133605957031,9.71677207946777,-1.14408266544342,-0.97563093900681,0.51331049203873,-0.62688356637955,0.77254939079285
162,2632680514,-130.02317810058594,-81.07940673828125,-148.23155212402344,9.71833801269531,-1.12486636638641,-1.06191766262054,0.43860465288162,-0.52340185642242,0.69643485546112
163,2632697181,-130.08868408203125,-81.06602478027344,-148.17070007324219,9.68336486816406,-1.16895484924316,-1.05470061302185,0.75875055789948,-0.43037658929825,0.60063058137894
164,2632713848,-130.13955688476562,-81.05376434326172,-148.12422180175781,9.68625736236572,-1.16170239448547,-1.01042151451111,0.82043874263763,-0.29218325018883,0.63221102952957
165,2632730515,-130.18577575683594,-81.04261016845703,-148.07606506347656,9.67608737945557,-1.17352926731110,-1.04468369483948,1.44508779048920,-0.28975644707680,0.54286754131317
166,2632747182,-130.24293518066406,-81.03187561035156,-148.01902770996094,9.69836044311523,-1.09540951251984,-0.96557903289795,1.20963025093079,-0.32775288820267,0.48257526755333
167,2632763849,-130.29431152343750,-81.02261352539062,-147.98129272460938,9.68289566040039,-1.06876385211945,-1.03893113136292,0.53373020887375,-0.14369364082813,0.51436704397202
168,2632780516,-130.34530639648438,-81.01277160644531,-147.94819641113281,9.68914318084717,-1.17886817455292,-1.07952463626862,0.36852827668190,-0.14859847724438,0.56477284431458
169,2632797183,-130.36874389648438,-81.00222015380859,-147.91799926757812,9.69480705261230,-1.10431206226349,-1.02732419967651,1.24646103382111,-0.08171730488539,0.67353069782257
170,2632813850,-130.41853332519531,-80.99123382568359,-147.88407897949219,9.72314643859863,-1.11186790466309,-0.99479717016220,-0.01124397572130,-0.13597781956196,0.65695935487747
171,2632830517,-130.47119140625000,-80.98160552978516,-147.85073852539062,9.68933677673340,-1.13250970840454,-0.99255132675171,-0.16675788164139,-0.08944594860077,0.59728813171387
172,2632847184,-130.52484130859375,-80.97100067138672,-147.81597900390625,9.70504665374756,-1.14877438545227,-1.00591206550598,-0.09565702825785,-0.14099149405956,0.62483459711075
173,2632863851,-130.58224487304688,-80.95969390869141,-147.78150939941406,9.67748260498047,-1.14311325550079,-1.03252601623535,-0.16579100489616,-0.18671655654907,0.63878703117371
174,2632880518,-130.63478088378906,-80.94683074951172,-147.74563598632812,9.67669868469238,-1.09311425685883,-1.03015506267548,0.17402549088001,-0.25431492924690,0.70560425519943
175,2632897185,-130.68806457519531,-80.93282318115234,-147.71784973144531,9.67718219757080,-1.08549892902374,-1.05070292949677,-0.26771676540375,-0.25398835539818,0.79809808731079
176,2632913852,-130.73712158203125,-80.91781616210938,-147.68576049804688,9.69409179687500,-1.11281585693359,-1.05834710597992,0.19052645564079,-0.31666260957718,0.82048356533051
177,2632930519,-130.77462768554688,-80.90512847900391,-147.67094421386719,9.70534706115723,-1.12443828582764,-1.04683458805084,-0.08819732069969,-0.11235010623932,0.81947177648544
178,2632947186,-130.80104064941406,-80.89450836181641,-147.66627502441406,9.70460033416748,-1.12600457668304,-1.05276036262512,-0.09775085747242,0.05863387137651,0.78693097829819
179,2632963853,-130.83142089843750,-80.88475036621094,-147.66386413574219,9.70270156860352,-1.19214141368866,-1.04406571388245,-0.48082077503204,0.10312953591347,0.76902127265930
180,2632980520,-130.87074279785156,-80.87928009033203,-147.64642333984375,9.68031787872314,-1.16682708263397,-1.05744874477386,-0.24349994957447,0.17770732939243,0.49246183037758
181,2632997187,-130.91166687011719,-80.87357330322266,-147.63888549804688,9.71018600463867,-1.13524246215820,-1.06467974185944,-0.78967791795731,0.22063419222832,0.55234426259995
182,2633013854,-130.94239807128906,-80.86898803710938,-147.63891601562500,9.69714260101318,-1.14817607402802,-1.05739939212799,-0.66974645853043,0.33194699883461,0.54599237442017
183,2633030521,-130.97602844238281,-80.86395263671875,-147.63510131835938,9.65409564971924,-1.13309919834137,-1.03085005283356,-0.67867881059647,0.28709274530411,0.55591076612473
184,2633047188,-130.99909973144531,-80.85782623291016,-147.63536071777344,9.66300487518311,-1.09312510490417,-1.05567157268524,-0.11901582032442,0.25608858466148,0.60931330919266
185,2633063855,-131.02116394042969,-80.85073852539062,-147.63243103027344,9.68174171447754,-1.10488009452820,-1.10479414463043,-0.01231330540031,0.21290557086468,0.64792448282242
186,2633080522,-131.03053283691406,-80.84413909912109,-147.62786865234375,9.68464946746826,-1.16475641727448,-1.05556619167328,0.86850750446320,0.21485851705074,0.61446791887283
187,2633097189,-131.04255676269531,-80.83762359619141,-147.62460327148438,9.69680213928223,-1.15864884853363,-0.97557997703552,0.87041562795639,0.19926041364670,0.59367042779922
188,2633113856,-131.07473754882812,-80.82844543457031,-147.60771179199219,9.68673706054688,-1.13155841827393,-1.00315833091736,0.21639528870583,0.02880788408220,0.65338635444641
189,2633130523,-131.10723876953125,-80.82056427001953,-147.59159851074219,9.68928623199463,-1.13855707645416,-1.08183133602142,0.22897753119469,0.07317548245192,0.59170460700989
190,2633147190,-131.12780761718750,-80.81462097167969,-147.56845092773438,9.69099330902100,-1.22221183776855,-1.09271264076233,1.33954405784607,0.10134945809841,0.46374353766441
191,2633163857,-131.15817260742188,-80.80713653564453,-147.52934265136719,9.66916751861572,-1.12442791461945,-1.02056360244751,1.64802348613739,-0.06804653257132,0.43576163053513
192,2633180524,-131.21228027343750,-80.79918670654297,-147.48135375976562,9.69447231292725,-1.13932907581329,-1.02719092369080,0.81185847520828,-0.15938141942024,0.39492219686508
193,2633197191,-131.27090454101562,-80.79154205322266,-147.42832946777344,9.68657970428467,-1.15933132171631,-1.06142902374268,0.69497489929199,-0.16387644410133,0.36031943559647
194,2633213858,-131.32337951660156,-80.78488159179688,-147.37570190429688,9.66670703887939,-1.19679391384125,-1.10461854934692,1.02014100551605,-0.12397185713053,0.32493549585342
195,2633230525,-131.38285827636719,-80.78126525878906,-147.31752014160156,9.69053173065186,-1.17404520511627,-1.07389950752258,1.05811822414398,-0.05628390610218,0.13417851924896
196,2633247192,-131.44009399414062,-80.77829742431641,-147.26406860351562,9.68906593322754,-1.15418791770935,-1.04738402366638,1.24349653720856,-0.03485248610377,0.09772525727749
197,2633263859,-131.49906921386719,-80.77548217773438,-147.20573425292969,9.69017601013184,-1.12380719184875,-1.06709384918213,1.20685756206512,-0.03989818692207,0.08493171632290
198,2633280526,-131.54954528808594,-80.77478027343750,-147.15879821777344,9.66885757446289,-1.16029489040375,-1.12464153766632,1.05313014984131,0.12451612204313,0.06168818101287
199,2633297193,-131.58584594726562,-80.77529144287109,-147.11650085449219,9.66979122161865,-1.17072904109955,-1.11222136020660,1.48770713806152,0.22301614284515,0.05198737233877
200,2633313860,-131.61918640136719,-80.77622985839844,-147.06990051269531,9.70539379119873,-1.13549196720123,-1.06417322158813,1.76875555515289,0.23295393586159,0.01742303930223
201,2633330527,-131.65917968750000,-80.77625274658203,-147.02157592773438,9.69688320159912,-1.10552346706390,-1.06396412849426,1.56012701988220,0.16610474884510,0.04356079921126
202,2633347194,-131.69197082519531,-80.77912902832031,-146.99504089355469,9.69038963317871,-1.16962194442749,-1.10372781753540,1.63354599475861,0.32887345552444,-0.04973985999823
203,2633363861,-131.72657775878906,-80.77991485595703,-146.94506835937500,9.66705131530762,-1.13653063774109,-1.07944810390472,2.07829761505127,0.17836043238640,-0.01660983450711
204,2633380528,-131.77192687988281,-80.78028106689453,-146.88824462890625,9.70024013519287,-1.15517783164978,-1.07764518260956,1.69412648677826,0.12949781119823,-0.02549104206264
205,2633397195,-131.80000305175781,-80.78326416015625,-146.85668945312500,9.70412635803223,-1.09665489196777,-1.08947193622589,1.45731139183044,0.38614985346794,-0.00200419360772
206,2633413862,-131.82522583007812,-80.78594970703125,-146.82810974121094,9.67669582366943,-1.13334727287292,-1.08956480026245,1.42160725593567,0.40154308080673,0.03131152689457
207,2633430529,-131.85494995117188,-80.78774261474609,-146.80090332031250,9.66968345642090,-1.10602033138275,-1.07302439212799,1.44084239006042,0.32963544130325,0.04130047932267
208,2633447196,-131.89273071289062,-80.79023742675781,-146.76910400390625,9.67785930633545,-1.13180291652679,-1.08651590347290,0.82992833852768,0.37676283717155,0.02101521939039
209,2633463863,-131.90902709960938,-80.79049682617188,-146.74919128417969,9.69374084472656,-1.12170886993408,-1.09964346885681,1.29875600337982,0.38147553801537,0.21371234953403
210,2633480530,-131.91113281250000,-80.79389190673828,-146.74649047851562,9.68351745605469,-1.11433804035187,-1.12665343284607,1.31354081630707,0.61275178194046,0.16098222136497
211,2633497197,-131.89866638183594,-80.79846191406250,-146.74890136718750,9.66355991363525,-1.16706073284149,-1.11429560184479,1.87557315826416,0.69687664508820,0.14269474148750
212,2633513864,-131.87561035156250,-80.80405426025391,-146.76445007324219,9.68729782104492,-1.11761248111725,-1.05940306186676,1.82230520248413,0.82033634185791,0.17078547179699
213,2633530531,-131.86402893066406,-80.81037902832031,-146.77679443359375,9.68079185485840,-1.10508096218109,-1.05032420158386,1.15048408508301,0.84546250104904,0.13906416296959
214,2633547198,-131.85630798339844,-80.81385040283203,-146.79118347167969,9.69233036041260,-1.11610305309296,-1.06472361087799,0.91315042972565,0.73241430521011,0.26630166172981
215,2633563865,-131.84356689453125,-80.81906890869141,-146.80706787109375,9.66819763183594,-1.09834170341492,-1.09674966335297,0.98836851119995,0.83274573087692,0.20883315801620
216,2633580532,-131.82263183593750,-80.82360839843750,-146.82626342773438,9.67289829254150,-1.15226411819458,-1.14432919025421,1.52360999584198,0.79731059074402,0.23803164064884
217,2633597199,-131.78823852539062,-80.82981872558594,-146.85038757324219,9.67957782745361,-1.09937989711761,-1.08939588069916,1.78765118122101,0.93022757768631,0.22102478146553
218,2633613866,-131.75205993652344,-80.83402252197266,-146.89135742187500,9.68866062164307,-1.07155680656433,-1.06092119216919,0.92801207304001,0.96748137474060,0.41208270192146
219,2633630533,-131.72286987304688,-80.83713531494141,-146.93330383300781,9.69916820526123,-1.11832714080811,-1.03366899490356,0.37655785679817,0.93613123893738,0.47856047749519
220,2633647200,-131.69726562500000,-80.84019470214844,-146.97045898437500,9.69718933105469,-1.14406478404999,-1.08237564563751,0.23937630653381,0.92765349149704,0.46896854043007
221,2633663867,-131.66954040527344,-80.84388732910156,-147.00454711914062,9.70514297485352,-1.14912319183350,-1.05579209327698,0.62642264366150,0.92066138982773,0.41290232539177
222,2633680534,-131.65270996093750,-80.84595489501953,-147.02754211425781,9.69551277160645,-1.14568519592285,-1.01307272911072,0.72107434272766,0.76364266872406,0.40698581933975
223,2633697201,-131.62693786621094,-80.84723663330078,-147.05191040039062,9.68308925628662,-1.10660672187805,-1.04775130748749,1.07843542098999,0.75156623125076,0.46387156844139
224,2633713868,-131.59526062011719,-80.84633636474609,-147.08657836914062,9.70521640777588,-1.13285422325134,-1.05600023269653,1.08266794681549,0.71086126565933,0.59669262170792
225,2633730535,-131.57508850097656,-80.84586334228516,-147.10467529296875,9.69507694244385,-1.14861428737640,-1.03983783721924,1.13519966602325,0.64015740156174,0.49512550234795
226,2633747202,-131.55992126464844,-80.84455108642578,-147.12638854980469,9.68174266815186,-1.10352981090546,-1.06033802032471,0.83815634250641,0.60464537143707,0.53374934196472
227,2633763869,-131.55369567871094,-80.84298706054688,-147.15093994140625,9.68285274505615,-1.12801384925842,-1.05743789672852,0.37286326289177,0.58509010076523,0.54010134935379
228,2633780536,-131.55554199218750,-80.84075164794922,-147.16456604003906,9.67949867248535,-1.13759505748749,-1.05498111248016,0.25374501943588,0.51781189441681,0.52567499876022
229,2633797203,-131.54020690917969,-80.84148406982422,-147.18817138671875,9.68682003021240,-1.15562605857849,-1.08953189849854,0.80155587196350,0.69161331653595,0.44753712415695
230,2633813870,-131.52915954589844,-80.84277343750000,-147.20953369140625,9.68337345123291,-1.15650177001953,-1.05974793434143,0.64776432514191,0.70257550477982,0.40988641977310
231,2633830537,-131.52066040039062,-80.84595489501953,-147.22550964355469,9.69455814361572,-1.15268898010254,-1.05332481861115,0.83861100673676,0.73548150062561,0.29075533151627
232,2633847204,-131.51148986816406,-80.85066986083984,-147.23335266113281,9.67622756958008,-1.12086403369904,-1.03637552261353,0.82876288890839,0.80347031354904,0.22441846132278
233,2633863871,-131.51553344726562,-80.85286712646484,-147.23617553710938,9.69615650177002,-1.14062929153442,-1.07126188278198,0.71248126029968,0.61802160739899,0.26862597465515
234,2633880538,-131.52081298828125,-80.85604858398438,-147.24563598632812,9.71190452575684,-1.11827468872070,-1.02910459041595,0.53601616621017,0.67317217588425,0.23230078816414
235,2633897205,-131.53430175781250,-80.85655975341797,-147.24562072753906,9.67248916625977,-1.12865817546844,-1.05107235908508,0.21336019039154,0.54104912281036,0.33914417028427
236,2633913872,-131.56382751464844,-80.85755157470703,-147.23181152343750,9.69919586181641,-1.15156018733978,-1.03140676021576,0.45233952999115,0.42207810282707,0.18350858986378
237,2633930539,-131.58190917968750,-80.85961151123047,-147.22291564941406,9.69108867645264,-1.11639177799225,-1.06449031829834,0.60498476028442,0.52294719219208,0.19652622938156
238,2633947206,-131.60537719726562,-80.85814666748047,-147.20867919921875,9.68701934814453,-1.09558546543121,-1.02005231380463,0.55844652652740,0.35791185498238,0.31958246231079
239,2633963873,-131.63589477539062,-80.85659790039062,-147.18267822265625,9.70366573333740,-1.12380170822144,-1.05399036407471,0.78023326396942,0.27226936817169,0.25728595256805
240,2633980540,-131.66781616210938,-80.85307312011719,-147.15374755859375,9.66549682617188,-1.14275538921356,-1.06955528259277,0.94111937284470,0.15959912538528,0.32298251986504
241,2633997207,-131.69035339355469,-80.84976959228516,-147.13230895996094,9.69283962249756,-1.14422774314880,-1.07897198200226,1.21116054058075,0.20979362726212,0.33821567893028
242,2634013874,-131.71528625488281,-80.84835052490234,-147.11386108398438,9.70443344116211,-1.13860523700714,-1.09617936611176,0.82093816995621,0.31266698241234,0.28337889909744
243,2634030541,-131.72691345214844,-80.84931945800781,-147.10026550292969,9.68070793151855,-1.15098071098328,-1.06316888332367,1.36783981323242,0.43400081992149,0.20620143413544
244,2634047208,-131.73104858398438,-80.84865570068359,-147.09045410156250,9.67151451110840,-1.09022998809814,-1.03983962535858,1.49197173118591,0.41188418865204,0.31061160564423
245,2634063875,-131.74139404296875,-80.84689331054688,-147.08103942871094,9.67531967163086,-1.14181065559387,-1.05067455768585,1.27470564842224,0.35203370451927,0.34178867936134
246,2634080542,-131.76081848144531,-80.84693145751953,-147.05737304687500,9.69356918334961,-1.18161773681641,-1.07309091091156,1.26211071014404,0.35720112919807,0.20604777336121
247,2634097209,-131.77677917480469,-80.84803771972656,-147.03855895996094,9.67036628723145,-1.13395905494690,-1.10274934768677,1.40367197990417,0.40919491648674,0.16268546879292
248,2634113876,-131.78126525878906,-80.85104370117188,-147.03096008300781,9.66054344177246,-1.13287734985352,-1.08949804306030,1.27779197692871,0.58007645606995,0.16868525743484
249,2634130543,-131.78843688964844,-80.85370635986328,-147.01013183593750,9.67030811309814,-1.14687621593475,-1.05935263633728,1.76219201087952,0.48991972208023,0.11375880241394
250,2634147210,-131.79446411132812,-80.85514068603516,-146.99598693847656,9.69333267211914,-1.10146391391754,-1.06330668926239,1.70720827579498,0.45660403370857,0.18133153021336
251,2634163877,-131.81744384765625,-80.85540008544922,-146.97296142578125,9.69272613525391,-1.09790015220642,-1.01045620441437,1.29693090915680,0.33700549602509,0.16746221482754
252,2634180544,-131.84130859375000,-80.85397338867188,-146.95141601562500,9.67835330963135,-1.09433090686798,-1.03648483753204,1.02428388595581,0.29624289274216,0.26774880290031
253,2634197211,-131.87428283691406,-80.85282135009766,-146.92201232910156,9.70279216766357,-1.14340341091156,-1.07109904289246,1.06523215770721,0.23669975996017,0.19185191392899
254,2634213878,-131.90579223632812,-80.85114288330078,-146.89015197753906,9.71361637115479,-1.13835144042969,-1.05789422988892,1.19902014732361,0.20880752801895,0.21069008111954
255,2634230545,-131.93113708496094,-80.84704589843750,-146.86538696289062,9.69773864746094,-1.11252701282501,-1.06968820095062,1.35602593421936,0.13778352737427,0.34186547994614
256,2634247212,-131.95195007324219,-80.84236907958984,-146.84417724609375,9.68739414215088,-1.12589728832245,-1.06194376945496,1.34503161907196,0.14850883185863,0.39705446362495
257,2634263879,-131.98179626464844,-80.83518218994141,-146.81486511230469,9.67818260192871,-1.12322056293488,-1.02438640594482,1.35201120376587,-0.02068225480616,0.45262128114700
258,2634280546,-132.01539611816406,-80.82840728759766,-146.78402709960938,9.67745590209961,-1.12066256999969,-1.08153748512268,1.11816728115082,-0.00192095257808,0.43315559625626
259,2634297213,-132.05589294433594,-80.82244873046875,-146.75323486328125,9.70056629180908,-1.11465728282928,-1.09015667438507,0.62897747755051,0.04545614123344,0.39938524365425
260,2634313880,-132.09526062011719,-80.81876373291016,-146.72264099121094,9.68063926696777,-1.13418018817902,-1.14893913269043,0.59025102853775,0.14233617484570,0.31508097052574
261,2634330547,-132.10743713378906,-80.81872558593750,-146.71229553222656,9.69804859161377,-1.14753711223602,-1.13457012176514,1.19761788845062,0.41566210985184,0.26091018319130
262,2634347214,-132.11895751953125,-80.81938934326172,-146.70314025878906,9.69127941131592,-1.12002098560333,-1.08766102790833,0.92806965112686,0.48018044233322,0.26350983977318
263,2634363881,-132.12599182128906,-80.81795501708984,-146.70071411132812,9.70153903961182,-1.11747384071350,-1.05394113063812,0.83005636930466,0.43837419152260,0.39668953418732
264,2634380548,-132.14160156250000,-80.81508636474609,-146.69477844238281,9.67171287536621,-1.09082186222076,-1.05648672580719,0.53037500381470,0.35494080185890,0.43814367055893
265,2634397215,-132.16220092773438,-80.81002044677734,-146.68692016601562,9.69977951049805,-1.11973905563354,-1.09127604961395,0.47043484449387,0.23705193400383,0.51033943891525
266,2634413882,-132.17343139648438,-80.80696868896484,-146.68258666992188,9.69640731811523,-1.14368283748627,-1.05233240127563,0.79151564836502,0.34556010365486,0.44769078493118
267,2634430549,-132.20075988769531,-80.80300903320312,-146.66322326660156,9.69350337982178,-1.10488712787628,-1.07778310775757,0.63161563873291,0.21697156131268,0.39683675765991
268,2634447216,-132.21365356445312,-80.79820251464844,-146.65493774414062,9.68784427642822,-1.10600948333740,-1.09077489376068,0.75544011592865,0.26993861794472,0.51665294170380
269,2634463883,-132.22003173828125,-80.79338073730469,-146.64440917968750,9.67866420745850,-1.15692770481110,-1.07544326782227,1.46067309379578,0.23419614136219,0.48100012540817
270,2634480550,-132.23600769042969,-80.78655242919922,-146.62809753417969,9.68109989166260,-1.09302353858948,-1.08296847343445,1.16438531875610,0.11478970944881,0.54404568672180
271,2634497217,-132.25451660156250,-80.78062438964844,-146.61558532714844,9.69284152984619,-1.14783930778503,-1.12022316455841,0.75226420164108,0.18608267605305,0.52835798263550
272,2634513884,-132.27407836914062,-80.77569580078125,-146.59376525878906,9.67935466766357,-1.12254822254181,-1.09558856487274,0.75148940086365,0.21746462583542,0.47816345095634
273,2634530551,-132.27905273437500,-80.77062988281250,-146.59664916992188,9.68588829040527,-1.11612570285797,-1.08789634704590,0.80646061897278,0.31003531813622,0.57289844751358
274,2634547218,-132.30137634277344,-80.76694488525391,-146.58158874511719,9.66253376007080,-1.12385189533234,-1.09159874916077,0.78412640094757,0.24043279886246,0.40341919660568
275,2634563885,-132.31716918945312,-80.76132965087891,-146.56497192382812,9.68646526336670,-1.16637241840363,-1.10448288917542,1.19785463809967,0.16477927565575,0.48288899660110
276,2634580552,-132.34725952148438,-80.75818634033203,-146.54246520996094,9.71509075164795,-1.13970148563385,-1.06348335742950,0.83270728588104,0.20262205600739,0.32108083367348
277,2634597219,-132.37234497070312,-80.75478363037109,-146.52665710449219,9.68024921417236,-1.15642023086548,-1.09158718585968,0.66026329994202,0.25072908401489,0.38204541802406
278,2634613886,-132.39134216308594,-80.75402069091797,-146.51850891113281,9.68664073944092,-1.12292039394379,-1.06570661067963,0.80145335197449,0.38250645995140,0.29224729537964
279,2634630553,-132.42353820800781,-80.75103759765625,-146.49732971191406,9.68124771118164,-1.11544764041901,-1.11202526092529,0.52817863225937,0.22986756265163,0.33331725001335
280,2634647220,-132.45695495605469,-80.74980163574219,-146.47177124023438,9.68444061279297,-1.15407788753510,-1.10777664184570,0.71345460414886,0.27301862835884,0.22425203025341
281,2634663887,-132.48414611816406,-80.74789428710938,-146.44375610351562,9.66853523254395,-1.12616431713104,-1.12887203693390,1.03034758567810,0.25050500035286,0.25972560048103
282,2634680554,-132.51249694824219,-80.74863433837891,-146.41984558105469,9.65338420867920,-1.18101835250854,-1.09437763690948,0.98144012689590,0.34974139928818,0.14767001569271
283,2634697221,-132.53643798828125,-80.74935913085938,-146.39096069335938,9.68744850158691,-1.16642367839813,-1.07603931427002,1.38916218280792,0.33983570337296,0.12532933056355
284,2634713888,-132.56719970703125,-80.74976348876953,-146.35736083984375,9.69931602478027,-1.09219264984131,-1.06847763061523,1.36503529548645,0.27818596363068,0.09980628639460
285,2634730555,-132.61288452148438,-80.74747467041016,-146.31216430664062,9.67296123504639,-1.11799216270447,-1.08801591396332,1.14094972610474,0.08812689781189,0.14409065246582
286,2634747222,-132.65179443359375,-80.74568176269531,-146.26391601562500,9.67389106750488,-1.12404322624207,-1.11136186122894,1.60665261745453,0.09880739450455,0.11755587905645
287,2634763889,-132.68927001953125,-80.74334716796875,-146.21862792968750,9.69974994659424,-1.12222969532013,-1.12891829013824,1.62134802341461,0.09276920557022,0.14221452176571
288,2634780556,-132.72476196289062,-80.74085235595703,-146.17892456054688,9.69476222991943,-1.10915565490723,-1.08262646198273,1.45623564720154,0.11559011042118,0.18402723968029
289,2634797223,-132.76591491699219,-80.73698425292969,-146.13230895996094,9.66050815582275,-1.14756083488464,-1.08751296997070,1.43684685230255,0.02065664529800,0.21044676005840
290,2634813890,-132.79573059082031,-80.73356628417969,-146.09797668457031,9.70262145996094,-1.14925408363342,-1.10562872886658,1.75361204147339,0.08467558026314,0.22901597619057
291,2634830557,-132.82861328125000,-80.73104858398438,-146.05535888671875,9.69301700592041,-1.11749768257141,-1.11965763568878,1.81016492843628,0.08876080811024,0.16419021785259
292,2634847224,-132.86415100097656,-80.72803497314453,-146.01237487792969,9.67214393615723,-1.12495923042297,-1.12560987472534,1.56181764602661,0.08365748822689,0.19156378507614
293,2634863891,-132.90458679199219,-80.72820281982422,-145.96427917480469,9.66614437103271,-1.17522513866425,-1.10083663463593,1.56919407844543,0.17542776465416,0.02000992000103
294,2634880558,-132.94656372070312,-80.73168182373047,-145.91525268554688,9.68236637115479,-1.12100481987000,-1.10849153995514,1.44475483894348,0.31031706929207,-0.11804892122746
295,2634897225,-132.99040222167969,-80.73529052734375,-145.87469482421875,9.69040584564209,-1.14483880996704,-1.12111246585846,0.94995582103729,0.36768952012062,-0.08634041249752
296,2634913892,-133.04158020019531,-80.74041748046875,-145.82553100585938,9.69226455688477,-1.11904072761536,-1.09953188896179,1.09165799617767,0.36101737618446,-0.21790003776550
297,2634930559,-133.07151794433594,-80.74555969238281,-145.79522705078125,9.66844081878662,-1.13014519214630,-1.14492487907410,1.54632210731506,0.45779502391815,-0.12475946545601
298,2634947226,-133.08982849121094,-80.75154876708984,-145.75915527343750,9.68596935272217,-1.11668777465820,-1.10307586193085,2.11752367019653,0.51032668352127,-0.15044900774956
299,2634963893,-133.09498596191406,-80.75820159912109,-145.73190307617188,9.69561195373535,-1.11937129497528,-1.11057317256927,2.53721308708191,0.57732945680618,-0.13412089645863
300,2634980560,-133.14414978027344,-80.75805664062500,-145.67994689941406,9.69241714477539,-1.15094232559204,-1.07143986225128,1.38964271545410,0.12500278651714,-0.00561558501795
301,2634997227,-133.19357299804688,-80.75733184814453,-145.62220764160156,9.70133495330811,-1.10713291168213,-1.05644452571869,1.79751861095428,0.05041220039129,-0.02721349522471
302,2635013894,-133.24504089355469,-80.75431060791016,-145.57284545898438,9.68556785583496,-1.08438277244568,-1.09623777866364,1.08521640300751,0.02655396424234,0.13932667672634
303,2635030561,-133.29499816894531,-80.75292968750000,-145.52049255371094,9.69245815277100,-1.19501590728760,-1.10918605327606,1.19202804565430,0.09029757976532,0.06573499739170
304,2635047228,-133.35319519042969,-80.75342559814453,-145.46565246582031,9.67485809326172,-1.07202994823456,-1.13576316833496,0.85836476087570,0.14630614221096,-0.03188781067729
305,2635063895,-133.39788818359375,-80.75592803955078,-145.42124938964844,9.66330909729004,-1.12929272651672,-1.13807225227356,0.82951849699020,0.33767780661583,-0.03450670465827
306,2635080562,-133.43875122070312,-80.75818634033203,-145.37335205078125,9.68060588836670,-1.12485337257385,-1.06524658203125,1.51417160034180,0.26719170808792,-0.06836669892073
307,2635097229,-133.50514221191406,-80.75630950927734,-145.30851745605469,9.68614006042480,-1.08141422271729,-1.05545973777771,1.17342650890350,-0.04115960747004,-0.02502360567451
308,2635113896,-133.57456970214844,-80.74997711181641,-145.24584960937500,9.69256019592285,-1.13037478923798,-1.10151875019073,0.79193824529648,-0.20159752666950,0.19165341556072
309,2635130563,-133.64566040039062,-80.74528503417969,-145.18119812011719,9.72514533996582,-1.14377474784851,-1.10201895236969,0.81014883518219,-0.14918117225170,0.10690099745989
310,2635147230,-133.71141052246094,-80.74267578125000,-145.11991882324219,9.69433879852295,-1.06982553005219,-1.14227938652039,0.93518364429474,-0.03818212822080,0.03489729762077
311,2635163897,-133.78050231933594,-80.74046325683594,-145.06169128417969,9.67023277282715,-1.12955939769745,-1.15201437473297,0.50912922620773,-0.00041620634147,0.04810065031052
312,2635180564,-133.85060119628906,-80.73889160156250,-144.99378967285156,9.69991493225098,-1.13148331642151,-1.12494051456451,1.08015787601471,-0.04045525938272,-0.05789750814438
313,2635197231,-133.94819641113281,-80.73635101318359,-144.90057373046875,9.71605777740479,-1.09579277038574,-1.09191262722015,0.50097161531448,-0.21205393970013,-0.13250090181828
314,2635213898,-134.05395507812500,-80.73310089111328,-144.81861877441406,9.66913509368896,-1.13407254219055,-1.12724554538727,-0.27545177936554,-0.20741163194180,-0.07231745868921
315,2635230565,-134.16633605957031,-80.72837066650391,-144.72660827636719,9.65783786773682,-1.11848747730255,-1.10146474838257,-0.10838012397289,-0.32870054244995,-0.07783699035645
316,2635247232,-134.27464294433594,-80.72438812255859,-144.63871765136719,9.66116333007812,-1.01932275295258,-1.15058028697968,-0.27897989749908,-0.25124135613441,-0.06375640630722
317,2635263899,-134.36892700195312,-80.71862792968750,-144.55780029296875,9.69422912597656,-1.12954819202423,-1.13548552989960,0.26519390940666,-0.29133802652359,0.04582112282515
318,2635280566,-134.47755432128906,-80.71231842041016,-144.45809936523438,9.69885635375977,-1.10571682453156,-1.06459760665894,0.53767460584641,-0.44433552026749,-0.06221965700388
319,2635297233,-134.60456848144531,-80.70368957519531,-144.36065673828125,9.68720912933350,-1.06433606147766,-1.09828531742096,-0.57195723056793,-0.54370641708374,0.03485248237848
320,2635313900,-134.75819396972656,-80.69358825683594,-144.24748229980469,9.70430946350098,-1.17187523841858,-1.11416852474213,-1.22911512851715,-0.71383869647980,-0.01298563834280
321,2635330567,-134.89488220214844,-80.68489837646484,-144.13078308105469,9.67541694641113,-1.11963891983032,-1.15536868572235,-0.05862106755376,-0.67761600017548,-0.09168706089258
322,2635347234,-135.05747985839844,-80.67160797119141,-143.99250793457031,9.68619918823242,-1.08573639392853,-1.15637600421906,-0.37053251266479,-1.00869834423065,-0.04955416545272
323,2635363901,-135.23255920410156,-80.65351104736328,-143.85826110839844,9.68858718872070,-1.05498099327087,-1.07433259487152,-0.75741237401962,-1.25342786312103,0.10312954336405
324,2635380568,-135.42370605468750,-80.63417816162109,-143.70065307617188,9.67775154113770,-1.09265351295471,-1.11425924301147,-0.89714246988297,-1.40879452228546,0.05550272390246
325,2635397235,-135.60877990722656,-80.61421203613281,-143.53997802734375,9.66786956787109,-1.11315703392029,-1.13607907295227,-0.31389001011848,-1.46703791618347,0.05006002262235
326,2635413902,-135.80981445312500,-80.59126281738281,-143.35934448242188,9.68002033233643,-1.07646679878235,-1.14617300033569,-0.20153991878033,-1.71359837055206,0.03439785540104
327,2635430569,-136.04942321777344,-80.56660461425781,-143.16424560546875,9.65600776672363,-0.98862886428833,-1.18809282779694,-1.57048749923706,-1.90066087245941,-0.01543805561960
328,2635447236,-136.30583190917969,-80.53940582275391,-142.95872497558594,9.64561462402344,-1.02155315876007,-1.18845784664154,-2.12351703643799,-2.06248188018799,0.01700683310628
329,2635463903,-136.58894348144531,-80.50825500488281,-142.74145507812500,9.69268512725830,-1.07854413986206,-1.20160758495331,-2.93952488899231,-2.33135151863098,0.07165152579546
330,2635480570,-136.86584472656250,-80.47776031494141,-142.52423095703125,9.69606971740723,-1.13448524475098,-1.22598838806152,-2.59874773025513,-2.30254983901978,0.03014614805579
331,2635497237,-137.16880798339844,-80.44659423828125,-142.28997802734375,9.67243099212646,-1.09861230850220,-1.16761159896851,-3.02825355529785,-2.46490216255188,-0.10191293060780
332,2635513904,-137.49359130859375,-80.41257476806641,-142.04469299316406,9.68529510498047,-1.09773766994476,-1.14899039268494,-3.79792833328247,-2.65074849128723,-0.07937376201153
333,2635530571,-137.85113525390625,-80.37361145019531,-141.74919128417969,9.65288829803467,-1.10108399391174,-1.08298933506012,-3.21548271179199,-3.16935396194458,-0.22012838721275
334,2635547238,-138.23579406738281,-80.32467651367188,-141.43269348144531,9.63890838623047,-0.99159872531891,-1.08522653579712,-3.19186711311340,-3.80759668350220,-0.06248217821121
335,2635563905,-138.64369201660156,-80.26270294189453,-141.09265136718750,9.67425251007080,-1.00874292850494,-1.12135946750641,-3.07602787017822,-4.57106637954712,0.21731096506119
336,2635580572,-139.07376098632812,-80.18883514404297,-140.72943115234375,9.67266178131104,-1.01699972152710,-1.08211827278137,-3.09932208061218,-5.27125310897827,0.46174570918083
337,2635597239,-139.53861999511719,-80.10660552978516,-140.33998107910156,9.66481494903564,-1.03704297542572,-1.14405155181885,-3.65168642997742,-5.84969186782837,0.51910555362701
338,2635613906,-140.02250671386719,-80.01757049560547,-139.93292236328125,9.68190383911133,-1.07022941112518,-1.22815692424774,-3.89760732650757,-6.28854036331177,0.58574974536896
339,2635630573,-140.51507568359375,-79.92590332031250,-139.50828552246094,9.69366645812988,-1.10478353500366,-1.30174255371094,-3.82765865325928,-6.49757766723633,0.51380366086960
340,2635647240,-140.99978637695312,-79.83068847656250,-139.08735656738281,9.67732524871826,-1.10029351711273,-1.32347929477692,-3.10075759887695,-6.72493028640747,0.52523976564407
341,2635663907,-141.48216247558594,-79.73090362548828,-138.65863037109375,9.63250255584717,-1.08766758441925,-1.29749464988708,-2.42269301414490,-7.02214622497559,0.52313309907913
342,2635680574,-141.96339416503906,-79.62889099121094,-138.22351074218750,9.66632366180420,-1.10611903667450,-1.29849529266357,-1.95318651199341,-7.20183181762695,0.44880506396294
343,2635697241,-142.45825195312500,-79.52375793457031,-137.78704833984375,9.69738674163818,-1.03216576576233,-1.29909789562225,-2.36177325248718,-7.43312692642212,0.40459749102592
344,2635713908,-142.98730468750000,-79.41404724121094,-137.32246398925781,9.69489479064941,-1.03579568862915,-1.33493936061859,-3.08341050148010,-7.82637071609497,0.25956556200981
345,2635730575,-143.53125000000000,-79.29692840576172,-136.84890747070312,9.66412830352783,-1.02702677249908,-1.33494269847870,-3.41493582725525,-8.28010845184326,0.31923678517342
346,2635747242,-144.08154296875000,-79.16880798339844,-136.37466430664062,9.62925624847412,-0.95577239990234,-1.39191949367523,-3.87099575996399,-8.84052753448486,0.58594191074371
347,2635763909,-144.62489318847656,-79.02739715576172,-135.90991210937500,9.63306999206543,-0.90770912170410,-1.40926742553711,-4.00859355926514,-9.46964454650879,0.99450939893723
348,2635780576,-145.14282226562500,-78.87213897705078,-135.46151733398438,9.59205818176270,-0.97663223743439,-1.44812047481537,-3.45859313011169,-10.08517742156982,1.47357606887817
349,2635797243,-145.63162231445312,-78.70560455322266,-135.01896667480469,9.59136009216309,-0.97126752138138,-1.49617505073547,-2.00379729270935,-10.66614341735840,1.75119221210480
350,2635813910,-146.12669372558594,-78.52591705322266,-134.57170104980469,9.58079147338867,-0.95284712314606,-1.49278259277344,-2.56726455688477,-11.35358905792236,2.05937719345093
351,2635830577,-146.60539245605469,-78.33513641357422,-134.14682006835938,9.60964965820312,-1.01513457298279,-1.53268933296204,-2.79845166206360,-11.83375835418701,2.46332836151123
352,2635847244,-147.08473205566406,-78.13601684570312,-133.74157714843750,9.62301921844482,-1.02274572849274,-1.60486829280853,-3.41038441658020,-12.24691200256348,2.65749216079712
353,2635863911,-147.54450988769531,-77.93118286132812,-133.34951782226562,9.64275455474854,-1.02499604225159,-1.68865597248077,-2.77351737022400,-12.54857158660889,2.76347064971924
354,2635880578,-147.95060729980469,-77.71784973144531,-132.99443054199219,9.66465950012207,-0.96689063310623,-1.69026815891266,-2.18869590759277,-12.74037837982178,3.33886027336121
355,2635897245,-148.35180664062500,-77.49269866943359,-132.65774536132812,9.60226631164551,-0.93735092878342,-1.74180769920349,-2.94182515144348,-13.28445816040039,3.74440622329712
356,2635913912,-148.70805358886719,-77.25130462646484,-132.33175659179688,9.66089248657227,-1.02542114257812,-1.66523826122284,-1.31832504272461,-14.05903911590576,4.29490089416504
357,2635930579,-149.02302551269531,-76.98623657226562,-132.03988647460938,9.66095447540283,-0.88946551084518,-1.55181598663330,-0.48979195952415,-15.14339160919189,5.19053936004639
358,2635947246,-149.30014038085938,-76.68557739257812,-131.77398681640625,9.58335113525391,-0.74903291463852,-1.50370991230011,0.19254368543625,-16.86109542846680,6.44842672348022
359,2635963913,-149.59515380859375,-76.33052825927734,-131.52687072753906,9.50984001159668,-0.60699313879013,-1.39011681079865,-1.82606029510498,-19.63490486145020,8.13315200805664
360,2635980580,-149.81980895996094,-75.92317199707031,-131.33847045898438,9.60337066650391,-0.66647696495056,-1.37143564224243,-1.26104378700256,-21.97433090209961,10.31547832489014
361,2635997247,-149.99739074707031,-75.46385192871094,-131.17936706542969,9.76457023620605,-0.65594571828842,-1.47491502761841,-0.22829939424992,-24.52497863769531,12.11946868896484
362,2636013914,-150.15119934082031,-74.94435882568359,-131.09327697753906,9.80254936218262,-0.40865623950958,-1.53549981117249,-3.17399406433105,-27.15507888793945,14.77820682525635
363,2636030581,-150.30639648437500,-74.36191558837891,-131.13395690917969,9.90758609771729,-0.29654741287231,-1.54616713523865,-10.60788154602051,-29.49394226074219,18.28594398498535
364,2636047248,-150.44976806640625,-73.73107147216797,-131.31793212890625,10.11437034606934,-0.38100102543831,-1.83723115921021,-17.92382621765137,-30.91419219970703,21.66235923767090
365,2636063915,-150.53012084960938,-73.06172180175781,-131.60971069335938,10.10806560516357,-0.62126028537750,-2.19755911827087,-20.30643653869629,-32.00264739990234,24.45407676696777
366,2636080582,-150.58918762207031,-72.36106872558594,-131.93963623046875,10.11943244934082,-0.61187410354614,-2.29828190803528,-21.24772453308105,-33.22056579589844,26.12892341613770
367,2636097249,-150.65208435058594,-71.63533782958984,-132.32575988769531,10.29099941253662,-0.75683486461639,-2.38444137573242,-24.59247589111328,-33.93664932250977,27.94125747680664
368,2636113916,-150.76728820800781,-70.87422943115234,-132.73217773437500,10.52548122406006,-0.71813315153122,-2.58254027366638,-28.79869079589844,-35.49990081787109,29.51999664306641
369,2636130583,-150.89854431152344,-70.06092071533203,-133.09709167480469,10.63528633117676,-0.91878604888916,-2.81346273422241,-27.30153083801270,-38.55071640014648,30.51871681213379
370,2636147250,-150.98150634765625,-69.18360900878906,-133.41230773925781,10.49073314666748,-0.56486392021179,-2.84298038482666,-21.49473571777344,-42.31857299804688,31.66689109802246
371,2636163917,-151.04812622070312,-68.26603698730469,-133.65701293945312,10.37719535827637,-0.54086935520172,-2.93849778175354,-16.46607017517090,-45.08518981933594,31.68271064758301
372,2636180584,-151.10093688964844,-67.31866455078125,-133.84725952148438,10.24525070190430,-0.79773646593094,-3.08823347091675,-12.52466487884521,-47.17284011840820,31.61401939392090
373,2636197251,-151.13027954101562,-66.35808563232422,-134.00842285156250,10.06649398803711,-1.19883847236633,-3.27162098884583,-9.44019126892090,-48.13749694824219,31.51766967773438
374,2636213918,-151.10203552246094,-65.40232849121094,-134.16517639160156,9.79519081115723,-1.77150702476501,-3.39100933074951,-5.67977857589722,-47.86627197265625,31.41357803344727
375,2636230585,-151.02587890625000,-64.47391510009766,-134.30139160156250,9.38931274414062,-2.16889762878418,-3.48847055435181,-1.62342107295990,-46.58631515502930,30.32914733886719
376,2636247252,-150.97145080566406,-63.61471557617188,-134.42338562011719,9.12206745147705,-2.25222897529602,-3.47299933433533,-2.10540890693665,-43.04658126831055,28.14453506469727
377,2636263919,-150.98478698730469,-62.85956192016602,-134.59123229980469,8.84077739715576,-2.73138213157654,-3.45611906051636,-8.58018970489502,-36.93337631225586,26.29440307617188
378,2636280586,-150.99804687500000,-62.22480010986328,-134.88392639160156,8.34004020690918,-2.98956608772278,-3.32240462303162,-15.17216110229492,-28.89543914794922,25.90099525451660
379,2636297253,-150.97142028808594,-61.82535171508789,-135.26231384277344,7.70263767242432,-1.65141785144806,-2.18331217765808,-17.24142074584961,-15.30792427062988,21.28504562377930
380,2636313920,-151.20773315429688,-61.83126449584961,-135.55416870117188,6.89265823364258,-0.18003696203232,-1.09573781490326,-28.40909385681152,4.78932189941406,7.41452980041504
381,2636330587,-151.97482299804688,-62.27640914916992,-135.62548828125000,6.85622453689575,-0.91878229379654,-1.40703189373016,-48.59582138061523,24.92688179016113,-10.59183025360107
382,2636347254,-152.88037109375000,-63.12064743041992,-135.49232482910156,7.53993320465088,-0.42693978548050,-1.74851989746094,-46.02660751342773,43.67950439453125,-26.33932113647461
383,2636363921,-153.96885681152344,-64.30488586425781,-135.16375732421875,7.74361419677734,-0.20829895138741,-1.75290060043335,-46.42665863037109,60.11558151245117,-39.24136734008789
384,2636380588,-155.27180480957031,-65.78075408935547,-134.58601379394531,8.16161060333252,-0.54198682308197,-2.11705255508423,-45.54121780395508,74.20438385009766,-50.81089019775391
385,2636397255,-156.63067626953125,-67.50879669189453,-133.73988342285156,8.86120891571045,-0.63216876983643,-2.23502850532532,-33.71455001831055,86.94748687744141,-60.27085876464844
386,2636413922,-158.06896972656250,-69.43986511230469,-132.61865234375000,9.32344722747803,-0.58567094802856,-2.32781744003296,-22.50504875183105,97.87882995605469,-67.03730773925781
387,2636430589,-159.78634643554688,-71.54837799072266,-131.05082702636719,9.56481742858887,-0.80311942100525,-2.57578206062317,-13.15683650970459,107.20897674560547,-74.43182373046875
388,2636447256,-162.02612304687500,-73.79081726074219,-128.82487487792969,9.92486476898193,-0.84395772218704,-2.81323623657227,-5.67989587783813,114.55917358398438,-81.23247528076172
389,2636463923,-165.07640075683594,-76.11942291259766,-125.66539764404297,10.19562244415283,-1.09767091274261,-2.91825890541077,1.28202784061432,120.46647644042969,-86.37480163574219
390,2636480590,-169.29777526855469,-78.47049713134766,-121.15325164794922,10.48613548278809,-1.56676495075226,-2.80069684982300,12.05357074737549,124.68579101562500,-88.94757843017578
391,2636497257,-175.29771423339844,-80.76745605468750,-114.62902069091797,10.87222957611084,-1.84964835643768,-2.65768551826477,26.30308723449707,127.33380889892578,-87.95770263671875
392,2636513924,175.60249328613281,-82.88777160644531,-104.76657104492188,11.03070831298828,-1.83594632148743,-2.34564924240112,41.03873062133789,126.94073486328125,-84.03131866455078
393,2636530591,160.98735046386719,-84.60868072509766,-89.24390411376953,10.87625694274902,-1.29741036891937,-1.88308441638947,50.26272964477539,121.09939575195312,-77.99674224853516
394,2636547258,138.58007812500000,-85.61930084228516,-65.83480834960938,10.78272056579590,-1.49885463714600,-1.78726947307587,56.50783538818359,111.58601379394531,-72.60408782958984
395,2636563925,112.73828887939453,-85.67296600341797,-38.83359527587891,10.56775665283203,-1.31274628639221,-1.55072462558746,66.47377777099609,101.47168731689453,-68.28332519531250
396,2636580592,92.94635009765625,-84.96985626220703,-17.88898658752441,10.03218841552734,-0.17344872653484,-1.03712809085846,66.39338684082031,90.80461883544922,-62.74183273315430
397,2636597259,80.80915832519531,-83.98509979248047,-4.97179794311523,9.85691452026367,1.01743924617767,-0.61485600471497,44.47125244140625,78.07288360595703,-54.16378021240234
398,2636613926,72.89299011230469,-83.08290100097656,3.08028650283813,9.55821418762207,1.55168926715851,-0.58484053611755,6.29359483718872,65.73300933837891,-39.82673263549805
399,2636630593,67.10598754882812,-82.46836853027344,8.30669593811035,8.91519260406494,1.89172530174255,-0.45019730925560,-34.92999267578125,50.13983917236328,-20.75594711303711
400,2636647260,63.09262847900391,-82.22388458251953,11.25965118408203,8.39210414886475,0.09941094368696,-0.47130352258682,-64.01130676269531,28.06538200378418,-3.00301933288574
401,2636663927,61.02391052246094,-82.27457427978516,12.27160358428955,8.71974086761475,-1.24692177772522,-0.51161277294159,-62.75944519042969,6.29769468307495,6.87095451354980
402,2636680594,60.47101974487305,-82.54028320312500,12.00457382202148,9.05874252319336,-0.81524443626404,-0.71282398700714,-47.84978485107422,-9.14957809448242,13.21272850036621
403,2636697261,61.04245376586914,-82.92427062988281,10.93454647064209,9.04507541656494,-0.47913473844528,-1.09110736846924,-28.18905258178711,-17.84919166564941,16.45793724060059
404,2636713928,62.67024993896484,-83.34145355224609,9.20446872711182,9.14698600769043,-0.03706062957644,-1.33568835258484,-4.18265533447266,-22.26103210449219,16.53836441040039
405,2636730595,65.04969024658203,-83.74984741210938,6.97139406204224,9.37549400329590,0.43426188826561,-1.33029496669769,10.83712100982666,-23.82973861694336,15.68517303466797
406,2636747262,67.65211486816406,-84.10598754882812,4.61829805374146,9.52198028564453,0.54854649305344,-1.33074545860291,16.96142005920410,-21.75996780395508,13.89469623565674
407,2636763929,69.99147033691406,-84.40262603759766,2.56555724143982,9.47385692596436,0.82258147001266,-1.01155519485474,19.01950073242188,-17.43880271911621,12.46108055114746
408,2636780596,71.85322570800781,-84.65345764160156,0.95990699529648,9.53439617156982,0.84136134386063,-0.71736937761307,17.01202774047852,-13.11021518707275,11.54278373718262
409,2636797263,73.23967742919922,-84.88197326660156,-0.19600450992584,9.58653259277344,0.84063750505447,-0.29256543517113,15.32656192779541,-9.65216827392578,11.50626754760742
410,2636813930,74.20505523681641,-85.10367584228516,-1.00693881511688,9.65767002105713,0.72615182399750,0.07401136308908,10.65353679656982,-7.31035327911377,11.90722942352295
411,2636830597,74.91448974609375,-85.32303619384766,-1.65122914314270,9.73172187805176,0.69993531703949,0.24195948243141,5.26480913162231,-6.11262178421021,12.13538265228271
412,2636847264,75.59561920166016,-85.55089569091797,-2.33390736579895,9.70029354095459,0.72329276800156,0.30108663439751,1.24111521244049,-6.13644075393677,12.72002887725830
413,2636863931,76.49595642089844,-85.80376434326172,-3.31022381782532,9.63578510284424,0.88630396127701,0.27627295255661,-3.15922069549561,-7.44299983978271,13.95279979705811
414,2636880598,77.64636230468750,-86.08354187011719,-4.60699987411499,9.78382682800293,0.93994498252869,0.13684754073620,-7.38443756103516,-8.62975502014160,15.44851016998291
415,2636897265,79.05418395996094,-86.38101959228516,-6.24131059646606,9.75238990783691,1.21864259243011,0.04571722075343,-12.15511131286621,-9.42378139495850,16.47630882263184
416,2636913932,80.97579956054688,-86.68447875976562,-8.44785213470459,9.72104644775391,1.34694325923920,-0.09211086481810,-15.63984107971191,-10.55653953552246,16.83036613464355
417,2636930599,83.84616088867188,-86.97988128662109,-11.61590003967285,9.69110774993896,1.33222305774689,-0.11870375275612,-16.34984016418457,-12.27921867370605,16.45676803588867
418,2636947266,88.11999511718750,-87.26419830322266,-16.16647338867188,9.68516731262207,1.31832349300385,-0.07983233779669,-15.06427097320557,-14.41693592071533,16.32245254516602
419,2636963933,94.34677886962891,-87.52741241455078,-22.64637374877930,9.61691188812256,1.31537544727325,0.02190745808184,-13.61610603332520,-16.89967346191406,16.41831588745117
420,2636980600,102.90746307373047,-87.74501800537109,-31.43372344970703,9.48027420043945,1.32472300529480,0.10890877246857,-12.03201866149902,-19.16382980346680,16.41728973388672
421,2636997267,113.61522674560547,-87.88567352294922,-42.40588378906250,9.46958827972412,1.46103930473328,0.16466665267944,-14.34810352325439,-20.84094429016113,16.18374061584473
422,2637013934,125.71946716308594,-87.94329071044922,-54.85718536376953,9.30393409729004,1.63244557380676,0.23247565329075,-19.34396934509277,-21.55989837646484,16.84553718566895
423,2637030601,138.36021423339844,-87.90538787841797,-67.91739654541016,9.01523780822754,1.58274054527283,0.16063885390759,-23.67796516418457,-22.17992019653320,17.79585838317871
424,2637047268,150.18315124511719,-87.76069641113281,-80.18507385253906,8.55453968048096,1.50846254825592,0.21566149592400,-25.12687683105469,-22.81137466430664,18.02972221374512
425,2637063935,160.17333984375000,-87.51667022705078,-90.58135986328125,7.95066404342651,1.37316322326660,0.04953549057245,-22.71074104309082,-23.47216987609863,17.69546318054199
426,2637080602,168.39785766601562,-87.20306396484375,-99.03952789306641,7.21860551834106,1.13792407512665,-0.16798715293407,-12.33005523681641,-23.86852645874023,17.86379241943359
427,2637097269,175.18028259277344,-86.81457519531250,-105.72962951660156,5.90020227432251,0.98205947875977,-0.30189299583435,7.30091381072998,-25.44751930236816,17.82825660705566
428,2637113936,-179.08193969726562,-86.34580230712891,-110.90185546875000,3.24394750595093,1.07315862178802,-0.41131725907326,35.71650314331055,-28.14237403869629,17.93723678588867
429,2637130603,-174.06176757812500,-85.79644775390625,-114.80617523193359,-0.43021079897881,1.73528575897217,-0.71753150224686,68.74147033691406,-31.35615158081055,18.36303329467773
430,2637147270,-169.41647338867188,-85.10535430908203,-118.06546020507812,-2.20912456512451,3.21864986419678,-0.27468815445900,84.99981689453125,-38.24179077148438,21.66832351684570
431,2637163937,-165.83068847656250,-84.22110748291016,-120.33710479736328,-0.60792136192322,3.26213812828064,0.15072228014469,80.68786621093750,-48.53586959838867,24.10241699218750
432,2637180604,-163.38993835449219,-83.19853210449219,-121.57785797119141,2.06341910362244,2.18934774398804,0.31102609634399,73.68436431884766,-56.44958877563477,24.49501800537109
433,2637197271,-161.28407287597656,-82.09644317626953,-122.71398162841797,3.51688480377197,1.82883048057556,0.25866675376892,59.98811721801758,-59.81976699829102,28.72325134277344
434,2637213938,-159.41038513183594,-80.93833160400391,-124.17476654052734,2.87406969070435,1.69007301330566,0.40848785638809,26.95640754699707,-60.56139755249023,35.89881134033203
435,2637230605,-158.03105163574219,-79.80105590820312,-125.72741699218750,3.26676273345947,-0.02987475879490,0.44546097517014,-7.86346530914307,-57.40778732299805,39.64273834228516
436,2637247272,-156.97715759277344,-78.82936096191406,-127.27641296386719,2.82269144058228,-1.30090808868408,0.45150229334831,-26.87409210205078,-46.75848770141602,38.58597183227539
437,2637263939,-156.17463684082031,-78.10665893554688,-128.73632812500000,1.80493819713593,-0.60380625724792,1.16395497322083,-36.46141052246094,-32.32453536987305,33.66923904418945
438,2637280606,-155.78585815429688,-77.59806823730469,-129.82287597656250,1.26953852176666,0.28532999753952,2.27895855903625,-39.18447875976562,-21.78431510925293,25.30941581726074
439,2637297273,-156.05332946777344,-77.24687957763672,-130.28834533691406,2.09464716911316,0.73076808452606,3.50224256515503,-42.09067535400391,-16.26198959350586,14.51149368286133
440,2637313940,-156.79959106445312,-76.93486785888672,-130.10520935058594,3.20945811271667,0.23013433814049,5.15561819076538,-32.85848617553711,-17.65709304809570,5.60151338577271
441,2637330607,-157.27082824707031,-76.57286834716797,-129.42942810058594,3.07466721534729,-1.42758178710938,7.21124410629272,12.40501594543457,-23.14287757873535,0.28198367357254
442,2637347274,-157.59349060058594,-76.48662567138672,-128.09300231933594,1.48346066474915,-2.14736533164978,8.15346240997314,59.82438278198242,-11.47657585144043,-14.90074634552002
443,2637363941,-159.24919128417969,-76.88092803955078,-125.59706115722656,-1.02262520790100,-9.52816104888916,-0.17750898003578,47.58440780639648,9.76602268218994,-40.40924835205078
444,2637380608,-158.08975219726562,-71.59628295898438,-128.13656616210938,9.57425498962402,-93.96086120605469,-77.62031555175781,-75.92753601074219,-279.73040771484375,154.20230102539062
445,2637397275,-146.11672973632812,-67.17864227294922,-134.88441467285156,33.51182937622070,53.30245590209961,45.28972244262695,340.06726074218750,-166.71008300781250,250.09262084960938
446,2637413942,-147.47019958496094,-64.31527709960938,-133.42195129394531,116.78729248046875,7.34035205841064,-13.24816513061523,0.02519281581044,-162.98724365234375,64.22599029541016
447,2637430609,-148.20693969726562,-59.02269744873047,-134.80921936035156,1.45989227294922,5.76681947708130,-17.35671234130859,-116.24900054931641,-247.32489013671875,202.82070922851562
448,2637447276,-146.24989318847656,-55.70590972900391,-136.37255859375000,-24.63306045532227,-5.22738122940063,-7.76311540603638,39.59451675415039,-139.46301269531250,150.59843444824219
449,2637463943,-147.37469482421875,-53.47468948364258,-135.63795471191406,-0.81349593400955,-21.35401535034180,-17.59570312500000,-30.34371948242188,-125.52645874023438,52.24239349365234
450,2637480610,-147.67712402343750,-51.93265914916992,-134.38639831542969,24.12137794494629,-4.84184598922729,-11.26171588897705,42.79864883422852,-101.98014831542969,11.60683727264404
451,2637497277,-147.65524291992188,-50.73538208007812,-134.02198791503906,4.17446088790894,-5.70594406127930,-9.80093383789062,19.58730697631836,-67.50659942626953,27.20558738708496
452,2637513944,-147.82881164550781,-49.89139556884766,-133.69143676757812,6.92952442169189,-0.08983278274536,-12.46950626373291,6.05336904525757,-49.08102798461914,16.63980102539062
453,2637530611,-147.65481567382812,-49.17374801635742,-133.51741027832031,13.58193016052246,-3.41077804565430,-9.22674560546875,19.58903694152832,-39.52036666870117,17.57766723632812
454,2637547278,-147.33175659179688,-48.72454833984375,-133.85789489746094,8.05704784393311,-3.59571814537048,-9.00058460235596,5.18774700164795,-15.01287937164307,26.12639808654785
455,2637563945,-147.08110046386719,-48.57069015502930,-134.21769714355469,5.74171209335327,-3.05493903160095,-10.68736267089844,0.04664077237248,0.47299018502235,17.31710815429688
456,2637580612,-146.71165466308594,-48.70925903320312,-134.43972778320312,10.25537967681885,-5.85366010665894,-10.67539215087891,13.38094902038574,12.28588867187500,3.16207122802734
457,2637597279,-146.19873046875000,-49.17828369140625,-134.72227478027344,14.65591526031494,-6.08258581161499,-10.00869560241699,19.20315170288086,30.12258911132812,-5.94000959396362
458,2637613946,-145.60940551757812,-49.88473892211914,-135.18142700195312,13.25612163543701,-4.57919883728027,-11.08250331878662,15.61549663543701,45.63914871215820,-8.62587928771973
459,2637630613,-144.93418884277344,-50.85083770751953,-135.77006530761719,10.92201232910156,-3.59849667549133,-11.87105560302734,14.52379131317139,60.98891830444336,-14.17347526550293
460,2637647280,-144.14831542968750,-52.35461807250977,-136.48161315917969,10.81180286407471,-6.10864734649658,-12.89623355865479,14.90367126464844,89.39306640625000,-30.40589904785156
461,2637663947,-143.30581665039062,-54.70497512817383,-137.44116210937500,12.10220241546631,-7.49115943908691,-14.30919170379639,5.45645618438721,134.45764160156250,-55.50168609619141
462,2637680614,-142.78198242187500,-58.14878082275391,-138.38810729980469,15.60179710388184,-8.18055057525635,-16.09142684936523,-14.71147632598877,184.53050231933594,-98.77053833007812
463,2637697281,-144.19525146484375,-63.07461166381836,-138.05795288085938,24.77041053771973,-10.60686874389648,-16.45292282104492,-66.27010345458984,232.29283142089844,-183.31802368164062
464,2637713948,-149.01022338867188,-69.75025939941406,-133.95341491699219,43.54667282104492,-5.80150079727173,-11.28668117523193,-61.53940582275391,280.46127319335938,-302.29135131835938
465,2637730615,-161.65174865722656,-77.50375366210938,-122.13446807861328,45.05947113037109,16.35511779785156,7.00166273117065,-75.08743286132812,337.69464111328125,-374.29421997070312
466,2637747282,-173.53837585449219,-81.19913482666016,-115.63876342773438,8.43764400482178,-26.16462898254395,-2.06458377838135,-328.65942382812500,201.26873779296875,-117.53754425048828
467,2637763949,-162.93270874023438,-80.66931915283203,-130.49742126464844,-10.81096267700195,6.04221677780151,16.20424652099609,-242.91601562500000,-1.75322723388672,143.98513793945312
468,2637780616,-159.76605224609375,-77.10179138183594,-137.01156616210938,-2.64814591407776,-18.99899101257324,-3.10326671600342,-192.37805175781250,-177.86433410644531,140.05557250976562
469,2637797283,-155.41941833496094,-73.88563537597656,-136.82366943359375,1.21408557891846,-4.26360702514648,-3.46694183349609,272.86132812500000,-178.98649597167969,71.27076721191406
470,2637813950,-150.83593750000000,-72.02795410156250,-136.42393493652344,5.75606775283813,10.54919624328613,-0.00581300258636,299.10864257812500,-102.11256408691406,44.43474197387695
471,2637830617,-148.04985046386719,-72.20201110839844,-135.56687927246094,1.89285302162170,8.44972801208496,1.75102603435516,217.29487609863281,1.47267615795135,-18.58104324340820
472,2637847284,-147.26373291015625,-73.65692138671875,-134.80540466308594,1.54116034507751,7.87067270278931,6.04135036468506,92.02748870849609,67.07740020751953,-57.68630981445312
473,2637863951,-149.96185302734375,-75.29843902587891,-134.63098144531250,0.93831336498260,12.59309768676758,7.32367897033691,-150.58898925781250,83.12125396728516,-53.33703994750977
474,2637880618,-154.53861999511719,-76.55561828613281,-135.48614501953125,-0.80346184968948,8.03416061401367,3.89502096176147,-323.16171264648438,73.06646728515625,-23.71313476562500
475,2637897285,-158.05912780761719,-77.43982696533203,-137.09080505371094,-2.37322473526001,-3.34386754035950,0.65059429407120,-303.81991577148438,57.77793502807617,-1.11310613155365
476,2637913952,-159.53312683105469,-78.21047973632812,-138.37817382812500,-1.30430793762207,-3.62126207351685,-1.30094504356384,-162.73933410644531,49.47281265258789,-1.16261482238770
477,2637930619,-159.79353332519531,-79.11675262451172,-139.15542602539062,0.51392877101898,-0.64641845226288,-2.20169353485107,-60.15730285644531,54.64035797119141,-9.93137836456299
478,2637947286,-159.67901611328125,-80.13448333740234,-139.09022521972656,0.67389869689941,-0.90585672855377,-1.89525091648102,11.90246295928955,57.50710678100586,-21.44096183776855
479,2637963953,-160.01689147949219,-81.07630157470703,-137.62464904785156,0.38324558734894,-0.29602396488190,-1.00177145004272,67.66614532470703,48.56887054443359,-32.57756042480469
480,2637980620,-161.44139099121094,-81.90415191650391,-134.82926940917969,0.25516957044601,0.03258558362722,-0.57657057046890,81.58506011962891,39.14709472656250,-39.45430374145508
481,2637997287,-163.86705017089844,-82.63611602783203,-131.37005615234375,0.61861807107925,1.32161068916321,0.09936161339283,61.31317520141602,34.05280685424805,-39.37714767456055
482,2638013954,-166.75997924804688,-83.25994873046875,-128.31588745117188,0.65908670425415,0.61964482069016,0.23619450628757,9.47121524810791,30.95026779174805,-30.88712692260742
483,2638030621,-169.50784301757812,-83.81826019287109,-126.16632843017578,0.84449434280396,-0.13180786371231,-0.66993713378906,-35.52919769287109,30.25824356079102,-20.72968673706055
484,2638047288,-172.15037536621094,-84.43457794189453,-124.55871582031250,0.54462087154388,-0.99958091974258,-1.40161669254303,-61.42858505249023,35.37796020507812,-15.27455711364746
485,2638063955,-174.28782653808594,-85.15111541748047,-123.16309356689453,0.68586111068726,-3.13835358619690,-1.77497088909149,-43.69072341918945,42.22752380371094,-12.25900650024414
486,2638080622,-175.87298583984375,-85.93177032470703,-121.39933013916016,-0.03197183087468,-2.76232576370239,-1.59135973453522,11.53635978698730,46.37176895141602,-11.85656547546387
487,2638097289,-177.61367797851562,-86.66345977783203,-118.84207153320312,-0.74138998985291,-0.16177944839001,-0.66828244924545,49.78173828125000,43.64518356323242,-12.04130935668945
488,2638113956,179.04141235351562,-87.22138977050781,-114.53782653808594,-1.06755626201630,1.39045774936676,-0.17897582054138,58.31595611572266,33.67125701904297,-13.87355422973633
489,2638130623,174.49159240722656,-87.49501037597656,-109.11982727050781,-0.97362792491913,2.23848915100098,-0.21525397896767,52.89746093750000,17.62653350830078,-13.74104785919189
490,2638147290,171.27603149414062,-87.48223114013672,-105.47134399414062,-0.49407011270523,1.54795551300049,-0.74801802635193,26.99318504333496,0.93905377388000,-9.29984951019287
491,2638163957,169.90556335449219,-87.25006866455078,-103.60542297363281,-0.26641473174095,-0.61237895488739,-1.31998682022095,30.85810470581055,-12.34525489807129,-7.00941705703735
492,2638180624,170.35989379882812,-86.83386993408203,-103.06652069091797,0.79399812221527,-1.43705129623413,-0.80936527252197,60.81383895874023,-23.72742652893066,-5.55844974517822
493,2638197291,172.87951660156250,-86.27122497558594,-104.39649200439453,-0.20758445560932,0.65782320499420,-0.68489575386047,72.78030395507812,-33.49532699584961,0.20600117743015
494,2638213958,177.17578125000000,-85.45416259765625,-108.13106536865234,-0.60607433319092,3.04032278060913,-0.48392534255981,35.54254531860352,-49.61607360839844,12.24316501617432
495,2638230625,-178.33999633789062,-84.40242004394531,-112.77922058105469,-1.42630314826965,-1.54409933090210,-1.70704853534698,-7.51333808898926,-62.73241424560547,24.38976097106934
496,2638247292,-171.90237426757812,-81.79307556152344,-121.78067779541016,0.24168092012405,-28.83141136169434,-32.44425201416016,-148.73080444335938,-149.39088439941406,78.26673889160156
497,2638263959,-141.65399169921875,-73.61223602294922,-137.08740234375000,52.06030273437500,-36.53816604614258,-13.67071342468262,914.55340576171875,-370.58666992187500,372.61236572265625
498,2638280626,-146.24517822265625,-71.26960754394531,-137.12335205078125,52.88959121704102,20.31496238708496,47.17241668701172,-276.26638793945312,-112.75202941894531,83.53543853759766
499,2638297293,-145.88055419921875,-66.12602996826172,-139.02371215820312,86.79944610595703,84.52043914794922,2.51335430145264,-83.18588256835938,-232.37861633300781,206.94242858886719
500,2638313960,-145.38909912109375,-61.65323638916016,-139.83515930175781,14.78506088256836,-45.35415649414062,-33.51058197021484,-13.01292133331299,-208.92810058593750,169.56893920898438
501,2638330627,-146.01593017578125,-59.17247009277344,-141.55485534667969,-17.56244659423828,-19.33199691772461,-18.01903915405273,-126.10192108154297,-93.75119781494141,126.32230377197266
502,2638347294,-145.40795898437500,-58.58316802978516,-143.48829650878906,-19.34401321411133,-11.09123802185059,-23.31090736389160,-61.61681747436523,5.06626415252686,69.80268859863281
503,2638363961,-145.59722900390625,-59.32566452026367,-143.77621459960938,-0.15158912539482,-11.17794036865234,-20.24094581604004,-24.94888877868652,42.26640701293945,-17.55065536499023
504,2638380628,-144.25422668457031,-60.67828750610352,-143.57026672363281,11.05879497528076,-10.95586681365967,-8.17294120788574,92.47591400146484,63.37801742553711,-51.36098480224609
505,2638397295,-142.98066711425781,-62.21249771118164,-143.80784606933594,12.36779594421387,-3.93392062187195,-2.29057598114014,65.08167266845703,78.65515136718750,-48.79108047485352
506,2638413962,-142.67837524414062,-63.97163391113281,-144.12371826171875,7.53893423080444,-2.41798400878906,-7.43844556808472,2.43220829963684,89.78765106201172,-56.60976409912109
507,2638430629,-142.79963684082031,-65.81593322753906,-143.74497985839844,12.39607048034668,-1.47033607959747,-6.25777721405029,14.49369049072266,82.73155975341797,-74.34240722656250
508,2638447296,-142.17356872558594,-67.45643615722656,-143.78570556640625,11.53483200073242,-1.24408876895905,-2.71765971183777,36.51327133178711,79.16570281982422,-58.83893966674805
509,2638463963,-141.54141235351562,-68.99224090576172,-143.89761352539062,9.01207923889160,-1.65569984912872,-2.25001645088196,32.88422775268555,74.50756835937500,-54.61952209472656
510,2638480630,-141.15931701660156,-70.36235046386719,-143.83454895019531,7.75741291046143,-1.42101550102234,-0.17836405336857,27.66678619384766,63.87842178344727,-52.03707885742188
511,2638497297,-141.23817443847656,-71.68836212158203,-143.69294738769531,8.67333126068115,-0.36919039487839,1.46083152294159,4.49570035934448,60.76819229125977,-51.67354202270508
512,2638513964,-141.31675720214844,-72.84403991699219,-143.65089416503906,9.46166706085205,0.43155658245087,1.54443550109863,-1.12008798122406,54.11296844482422,-43.64053726196289
513,2638530631,-141.06594848632812,-73.78235626220703,-143.59599304199219,9.54868125915527,0.89480614662170,1.23857641220093,19.39800643920898,43.77418899536133,-35.68607711791992
514,2638547298,-140.60272216796875,-74.49151611328125,-143.52127075195312,8.86274337768555,0.36411166191101,-0.08152051270008,33.29896163940430,32.71089172363281,-27.48655509948730
515,2638563965,-140.25860595703125,-74.95772552490234,-143.49021911621094,9.24483108520508,1.48723483085632,0.91215366125107,23.63632392883301,21.74567604064941,-17.85831069946289
516,2638580632,-140.21519470214844,-75.30984497070312,-143.36625671386719,9.49666786193848,-1.32678639888763,0.04254369437695,10.99081516265869,15.51775264739990,-14.64349555969238
517,2638597299,-140.21701049804688,-75.58604431152344,-143.02114868164062,9.46050071716309,-2.56330919265747,-1.25357985496521,21.13325881958008,9.90320110321045,-14.26547241210938
518,2638613966,-140.20042419433594,-75.77555084228516,-142.52769470214844,9.72635459899902,-2.00203990936279,-1.66357541084290,30.87847709655762,4.54742479324341,-12.56681442260742
519,2638630633,-140.22807312011719,-75.97031402587891,-142.01939392089844,9.85297584533691,-1.31765711307526,-1.81555831432343,29.11177635192871,4.71363687515259,-12.86380004882812
520,2638647300,-140.36065673828125,-76.17352294921875,-141.59184265136719,9.99235630035400,-0.56955373287201,-2.20009708404541,18.14396667480469,5.93442249298096,-12.20594024658203
521,2638663967,-140.49792480468750,-76.39501190185547,-141.20137023925781,9.66503429412842,-2.08337187767029,-3.49541592597961,15.71712970733643,7.20011329650879,-12.41068553924561
522,2638680634,-140.34652709960938,-76.63807678222656,-141.02192687988281,9.97197055816650,-0.88975125551224,-2.63404536247253,20.75451469421387,10.13959026336670,-10.89113903045654
523,2638697301,-140.20191955566406,-76.92375183105469,-141.02296447753906,9.92748355865479,-0.64441388845444,-2.24531388282776,9.81100940704346,13.68890476226807,-10.60662364959717
524,2638713968,-140.12721252441406,-77.23717498779297,-141.11097717285156,9.54844188690186,-1.73609900474548,-2.33587956428528,0.52562445402145,15.69145965576172,-10.79805183410645
525,2638730635,-139.97576904296875,-77.55567932128906,-141.25157165527344,9.57441997528076,-1.80616581439972,-2.04418563842773,2.05040168762207,16.32897567749023,-10.52069282531738
526,2638747302,-139.78535461425781,-77.91391754150391,-141.46635437011719,9.69124698638916,-1.01208686828613,-1.69125378131866,0.03102983720601,18.69780349731445,-11.41921710968018
527,2638763969,-139.69206237792969,-78.26817321777344,-141.69726562500000,9.37338638305664,-1.33995997905731,-1.54382097721100,-6.76533842086792,18.56418800354004,-11.21503925323486
528,2638780636,-139.54026794433594,-78.59236145019531,-141.92453002929688,9.47011184692383,-1.14327979087830,-0.63274973630905,-3.05259013175964,17.08515930175781,-10.18163871765137
529,2638797303,-139.47032165527344,-78.90282440185547,-142.07084655761719,9.54363250732422,-0.96745365858078,-0.29118195176125,-3.22227978706360,15.77339458465576,-10.45289421081543
530,2638813970,-139.54315185546875,-79.16082763671875,-142.10577392578125,9.26435947418213,-1.15042638778687,-0.69789540767670,-5.23728370666504,12.52368831634521,-9.40780448913574
531,2638830637,-139.63011169433594,-79.34008026123047,-142.03271484375000,9.61349678039551,-0.76681435108185,-0.70473998785019,0.28818139433861,8.15670013427734,-7.25931358337402
532,2638847304,-139.99205017089844,-79.46376800537109,-141.83021545410156,9.64356422424316,-0.40583580732346,-0.42357340455055,-8.57462978363037,4.72549438476562,-6.16078567504883
533,2638863971,-140.57008361816406,-79.52589416503906,-141.46022033691406,9.59370803833008,-0.81782972812653,-0.59776902198792,-11.65677452087402,0.77609074115753,-5.15900850296021
534,2638880638,-141.26266479492188,-79.51734924316406,-140.94299316406250,9.55599880218506,-0.77382087707520,-0.54791283607483,-9.83697128295898,-3.45770311355591,-3.72422909736633
535,2638897305,-142.11198425292969,-79.46320343017578,-140.33801269531250,9.75993919372559,-0.63192296028137,-0.55929762125015,-14.06617164611816,-6.15476179122925,-2.84833908081055
536,2638913972,-142.97369384765625,-79.39676666259766,-139.73155212402344,9.73833751678467,-1.05161905288696,-1.31407392024994,-14.72992134094238,-6.72693157196045,-2.53994321823120
537,2638930639,-143.73693847656250,-79.34673309326172,-139.14363098144531,9.56419086456299,-1.58696258068085,-2.16675472259521,-9.91334915161133,-5.79085540771484,-3.09764027595520
538,2638947306,-144.38853454589844,-79.34056091308594,-138.60040283203125,9.67410182952881,-1.51018822193146,-2.21074509620667,-5.86388778686523,-3.33762979507446,-4.32953262329102
539,2638963973,-145.01753234863281,-79.38383483886719,-138.06562805175781,9.56750869750977,-1.79000425338745,-2.42888402938843,-5.00835943222046,-0.81106472015381,-5.99731683731079
540,2638980640,-145.37615966796875,-79.44541931152344,-137.66839599609375,9.46377849578857,-1.48187053203583,-2.20574569702148,3.10712170600891,1.03233921527863,-5.37002325057983
541,2638997307,-145.61380004882812,-79.52841186523438,-137.33399963378906,9.42059707641602,-1.07307100296021,-1.68910503387451,6.66348505020142,2.52502226829529,-5.50145530700684
542,2639013974,-145.86039733886719,-79.59519958496094,-136.99018859863281,9.62544536590576,-0.66511940956116,-0.88577812910080,6.69348287582397,1.70505058765411,-5.01257896423340
543,2639030641,-146.28627014160156,-79.62794494628906,-136.57832336425781,9.66498851776123,-0.57229018211365,-0.73743093013763,-0.05351773276925,-0.36261180043221,-4.45808267593384
544,2639047308,-146.89537048339844,-79.62064361572266,-136.09730529785156,9.82069873809814,-0.65538489818573,-1.00056064128876,-6.95719766616821,-2.73066616058350,-3.76497101783752
545,2639063975,-147.55845642089844,-79.61808776855469,-135.56777954101562,9.74090385437012,-1.00137472152710,-1.61800444126129,-7.33170795440674,-2.73101234436035,-4.39745235443115
546,2639080642,-148.20497131347656,-79.63568878173828,-135.04306030273438,9.55560684204102,-1.45306992530823,-2.19292449951172,-6.61994886398315,-1.61929917335510,-5.03112888336182
547,2639097309,-148.68118286132812,-79.67558288574219,-134.54040527343750,9.64142990112305,-1.20090413093567,-1.92750012874603,2.29904747009277,-0.29703691601753,-5.53532123565674
548,2639113976,-149.08775329589844,-79.73516845703125,-134.09165954589844,9.59704780578613,-1.04663813114166,-1.70353925228119,3.29334521293640,1.06921505928040,-5.63353300094604
549,2639130643,-149.50254821777344,-79.80007171630859,-133.63240051269531,9.62619113922119,-0.87163501977921,-1.44173681735992,3.42335581779480,1.34388577938080,-5.86228036880493
550,2639147310,-149.95535278320312,-79.85921478271484,-133.18534851074219,9.59333896636963,-0.64468550682068,-1.28911769390106,0.43139478564262,1.17363798618317,-5.54647541046143
551,2639163977,-150.47958374023438,-79.90665435791016,-132.76014709472656,9.67545509338379,-0.78689485788345,-1.41975677013397,-5.14750576019287,0.73553270101547,-4.96619367599487
552,2639180644,-150.97468566894531,-79.95768737792969,-132.33880615234375,9.67389297485352,-0.90348267555237,-1.67663049697876,-3.61196756362915,1.00659835338593,-5.01987171173096
553,2639197311,-151.44160461425781,-80.01676940917969,-131.94963073730469,9.70039653778076,-0.64626175165176,-1.67404484748840,-3.82072377204895,1.65025830268860,-4.93333959579468
554,2639213978,-151.86300659179688,-80.07712554931641,-131.58065795898438,9.79271888732910,-0.83669608831406,-1.54096961021423,-2.27514410018921,1.86948382854462,-4.75723266601562
555,2639230645,-152.24118041992188,-80.14330291748047,-131.22367858886719,9.62514114379883,-0.93078130483627,-1.59059584140778,-0.39471095800400,2.27786564826965,-4.77578973770142
556,2639247312,-152.61024475097656,-80.20780944824219,-130.86833190917969,9.65084743499756,-0.67286586761475,-1.52964651584625,0.06278954446316,2.24307107925415,-4.68394231796265
557,2639263979,-153.00819396972656,-80.26724243164062,-130.51448059082031,9.68215370178223,-0.57874977588654,-1.34543824195862,-1.75325345993042,2.02419114112854,-4.49893522262573
558,2639280646,-153.42143249511719,-80.31866455078125,-130.17883300781250,9.64648628234863,-0.71665626764297,-1.38975989818573,-3.74538373947144,1.72159612178802,-4.08920860290527
559,2639297313,-153.80407714843750,-80.36267852783203,-129.85102844238281,9.63972091674805,-0.66371679306030,-1.44328272342682,-2.37397098541260,1.38983500003815,-3.79427170753479
560,2639313980,-154.18109130859375,-80.39794921875000,-129.50747680664062,9.66793918609619,-0.61333209276199,-1.40725779533386,-1.09843277931213,0.88842785358429,-3.69014334678650
561,2639330647,-154.60647583007812,-80.42535400390625,-129.13813781738281,9.70092487335205,-0.66370433568954,-1.37741458415985,-2.46965980529785,0.38620108366013,-3.70885348320007
562,2639347314,-155.06811523437500,-80.44387817382812,-128.74975585937500,9.69299221038818,-0.63948321342468,-1.39148020744324,-3.52400660514832,-0.14825272560120,-3.64242720603943
563,2639363981,-155.58412170410156,-80.45836639404297,-128.33468627929688,9.70382308959961,-0.64795577526093,-1.48167955875397,-5.20005083084106,-0.43548640608788,-3.78648614883423
564,2639380648,-156.08135986328125,-80.47489929199219,-127.92721557617188,9.71759414672852,-0.67420613765717,-1.60472989082336,-4.52605247497559,-0.25767022371292,-3.76676440238953
565,2639397315,-156.56503295898438,-80.49707031250000,-127.52246093750000,9.60264015197754,-0.69721031188965,-1.61823368072510,-3.87607264518738,0.09870494902134,-3.87567567825317
566,2639413982,-157.01414489746094,-80.51425933837891,-127.13424682617188,9.64211940765381,-0.65973502397537,-1.45505809783936,-2.77413749694824,-0.07358529418707,-3.60441160202026
567,2639430649,-157.35342407226562,-80.52408599853516,-126.84945678710938,9.58784675598145,-0.70167148113251,-1.47993636131287,-2.30030846595764,-0.04723621904850,-2.49296712875366
568,2639447316,-157.52388000488281,-80.52809143066406,-126.68629455566406,9.54504108428955,-0.68117636442184,-1.52715885639191,0.62937444448471,0.10203459113836,-1.24805557727814
569,2639463983,-157.63813781738281,-80.52136993408203,-126.51742553710938,9.69679355621338,-0.60446852445602,-1.47362208366394,4.33491754531860,-0.51377797126770,-1.05533301830292
570,2639480650,-157.77767944335938,-80.50835418701172,-126.33612823486328,9.68283367156982,-0.42148771882057,-1.40768086910248,3.55546593666077,-0.90622222423553,-1.03000843524933
571,2639497317,-157.93603515625000,-80.49027252197266,-126.17684173583984,9.65032863616943,-0.51939558982849,-1.48634326457977,1.12077963352203,-1.10482931137085,-0.71806478500366
572,2639513984,-158.06665039062500,-80.46830749511719,-126.00865936279297,9.68846416473389,-0.71888858079910,-1.42312216758728,3.31934857368469,-1.34701049327850,-0.72304654121399
573,2639530651,-158.19087219238281,-80.44278717041016,-125.83187866210938,9.68185329437256,-0.61688417196274,-1.47800779342651,4.20237874984741,-1.58129632472992,-0.72849565744400
574,2639547318,-158.36398315429688,-80.41390991210938,-125.64073181152344,9.68220996856689,-0.49320027232170,-1.51025354862213,2.13077831268311,-1.81408333778381,-0.80147254467010
575,2639563985,-158.56816101074219,-80.38152313232422,-125.43272399902344,9.70234870910645,-0.61818188428879,-1.45631909370422,1.25563061237335,-2.07333517074585,-0.89235919713974
576,2639580652,-158.78585815429688,-80.34934234619141,-125.22646331787109,9.65468692779541,-0.59292453527451,-1.43252992630005,0.34086021780968,-2.05466365814209,-0.89595788717270
577,2639597319,-159.04039001464844,-80.31887054443359,-125.00412750244141,9.66665744781494,-0.60374617576599,-1.60410702228546,-0.92873573303223,-2.02037477493286,-1.09798455238342
578,2639613986,-159.29096984863281,-80.29327392578125,-124.76618957519531,9.66472244262695,-0.66112667322159,-1.69871222972870,0.24291725456715,-1.79040467739105,-1.37081742286682
579,2639630653,-159.50445556640625,-80.27241516113281,-124.52525329589844,9.70075511932373,-0.73768329620361,-1.63838160037994,2.63570022583008,-1.53747260570526,-1.51034879684448
580,2639647320,-159.71144104003906,-80.25854492187500,-124.27957153320312,9.66038417816162,-0.59818965196609,-1.63782012462616,3.30945563316345,-1.15247559547424,-1.71516120433807
581,2639663987,-159.91374206542969,-80.24720001220703,-124.05020904541016,9.65324211120605,-0.65199887752533,-1.63663482666016,2.62496209144592,-0.94487804174423,-1.62054121494293
582,2639680654,-160.10664367675781,-80.23976898193359,-123.82690429687500,9.67464447021484,-0.65379452705383,-1.62285852432251,2.82862782478333,-0.69741457700729,-1.65028369426727
583,2639697321,-160.28543090820312,-80.23978424072266,-123.62059020996094,9.68282508850098,-0.55549871921539,-1.58082473278046,2.67305684089661,-0.21091419458389,-1.64455950260162
584,2639713988,-160.47892761230469,-80.24414062500000,-123.41556549072266,9.65530300140381,-0.56217038631439,-1.64067113399506,1.71220910549164,0.04068577662110,-1.71861863136292
585,2639730655,-160.67935180664062,-80.25551605224609,-123.20971679687500,9.66954040527344,-0.62824559211731,-1.64724004268646,1.34653651714325,0.44343268871307,-1.86756920814514
586,2639747322,-160.86970520019531,-80.26703643798828,-122.99906158447266,9.66955947875977,-0.55682671070099,-1.57963132858276,2.23327374458313,0.44700565934181,-1.91458141803741
587,2639763989,-161.06588745117188,-80.27801513671875,-122.79195404052734,9.68848419189453,-0.54262948036194,-1.51168727874756,1.67549955844879,0.43216946721077,-1.86827981472015
588,2639780656,-161.23004150390625,-80.28614807128906,-122.62728881835938,9.64780902862549,-0.60294526815414,-1.54659700393677,1.08585035800934,0.41805046796799,-1.40424823760986
589,2639797323,-161.41123962402344,-80.29299163818359,-122.43737030029297,9.65910720825195,-0.56163865327835,-1.54088544845581,1.56063306331635,0.26977857947350,-1.62056040763855
590,2639813990,-161.63313293457031,-80.29339599609375,-122.23773956298828,9.67732620239258,-0.45683130621910,-1.51849114894867,-0.30885714292526,-0.12202530354261,-1.59124660491943
591,2639830657,-161.84188842773438,-80.28973388671875,-122.03608703613281,9.68033218383789,-0.46238404512405,-1.53181385993958,0.59813338518143,-0.35118216276169,-1.53797233104706
592,2639847324,-162.04118347167969,-80.27816009521484,-121.83582305908203,9.62394618988037,-0.44588854908943,-1.45880389213562,1.08679807186127,-0.79026055335999,-1.38211882114410
593,2639863991,-162.24836730957031,-80.25592041015625,-121.62345886230469,9.68713188171387,-0.57446390390396,-1.40251731872559,1.32950413227081,-1.43100082874298,-1.31228590011597
594,2639880658,-162.42808532714844,-80.22457122802734,-121.44769287109375,9.67003345489502,-0.46963360905647,-1.52503669261932,0.81174325942993,-1.83848583698273,-0.80186319351196
595,2639897325,-162.60813903808594,-80.19003295898438,-121.27381896972656,9.66229248046875,-0.44408431649208,-1.61582624912262,0.67460012435913,-2.01233243942261,-0.73880475759506
596,2639913992,-162.78302001953125,-80.15889739990234,-121.11697387695312,9.66833305358887,-0.49468687176704,-1.65297305583954,-0.02177719771862,-1.76737225055695,-0.64556169509888
597,2639930659,-162.97549438476562,-80.12675476074219,-120.96618652343750,9.65395069122314,-0.47579190135002,-1.55123531818390,-1.43970263004303,-1.80328762531281,-0.58094727993011
598,2639947326,-163.17274475097656,-80.09158325195312,-120.83077239990234,9.69678592681885,-0.45410034060478,-1.54890239238739,-2.63480401039124,-1.93322086334229,-0.38822448253632
599,2639963993,-163.36009216308594,-80.05760192871094,-120.71173858642578,9.64595890045166,-0.50135284662247,-1.70172286033630,-2.99916362762451,-1.80526614189148,-0.26385563611984
600,2639980660,-163.54672241210938,-80.02827453613281,-120.57893371582031,9.64961338043213,-0.58492559194565,-1.73907876014709,-2.14918708801270,-1.58388924598694,-0.48870307207108
601,2639997327,-163.73698425292969,-80.00542449951172,-120.44423675537109,9.68101406097412,-0.53672039508820,-1.74526679515839,-2.25474333763123,-1.21535468101501,-0.62697964906693
602,2640013994,-163.94075012207031,-79.98930358886719,-120.30035400390625,9.70009422302246,-0.51881968975067,-1.73852968215942,-2.52605271339417,-0.84990626573563,-0.83889281749725
603,2640030661,-164.12854003906250,-79.97928619384766,-120.16461181640625,9.65740013122559,-0.48959788680077,-1.73106861114502,-2.04653167724609,-0.47067180275917,-0.86599105596542
604,2640047328,-164.31381225585938,-79.97010803222656,-120.01520538330078,9.58748149871826,-0.50142681598663,-1.66231679916382,-1.08709895610809,-0.45668086409569,-1.02250385284424
605,2640063995,-164.50820922851562,-79.95770263671875,-119.87882232666016,9.68565845489502,-0.40234348177910,-1.53577208518982,-2.40981531143188,-0.60566979646683,-0.84181892871857
606,2640080662,-164.68077087402344,-79.94568634033203,-119.75698852539062,9.71909236907959,-0.51244294643402,-1.69459855556488,-1.95442831516266,-0.53844296932220,-0.70714110136032
607,2640097329,-164.84585571289062,-79.93602752685547,-119.62496948242188,9.62225437164307,-0.47133827209473,-1.72627317905426,-0.90686887502670,-0.42454332113266,-0.85194247961044
608,2640113996,-164.98658752441406,-79.92646789550781,-119.50548553466797,9.62422943115234,-0.46222120523453,-1.75066590309143,-0.18536551296711,-0.38266015052795,-0.73016041517258
609,2640130663,-165.12579345703125,-79.91492462158203,-119.39308929443359,9.63915729522705,-0.39074009656906,-1.60358631610870,-0.51324647665024,-0.47704294323921,-0.63114172220230
610,2640147330,-165.24104309082031,-79.89325714111328,-119.29898071289062,9.67583370208740,-0.36265772581100,-1.57076537609100,-0.15989369153976,-1.01578056812286,-0.29263150691986
611,2640163997,-165.33897399902344,-79.86581420898438,-119.22000885009766,9.64706039428711,-0.40576031804085,-1.62728428840637,-0.00836894940585,-1.30823886394501,-0.05730200558901
612,2640180664,-165.42620849609375,-79.83469390869141,-119.14305877685547,9.62812805175781,-0.44232466816902,-1.66822504997253,0.50622224807739,-1.51841688156128,0.01539323385805
613,2640197331,-165.52146911621094,-79.80306243896484,-119.07607269287109,9.63744926452637,-0.40254226326942,-1.67662608623505,-0.55858731269836,-1.51829516887665,0.11913106590509
614,2640213998,-165.62036132812500,-79.76807403564453,-119.01711273193359,9.67019557952881,-0.42791953682899,-1.67495715618134,-1.25486862659454,-1.69530475139618,0.24791172146797
615,2640230665,-165.66998291015625,-79.73482513427734,-118.99131011962891,9.71948528289795,-0.44249626994133,-1.69872236251831,-0.25170883536339,-1.50259470939636,0.55763328075409
616,2640247332,-165.70138549804688,-79.70730590820312,-118.97098541259766,9.64498805999756,-0.50630903244019,-1.89149212837219,0.51588463783264,-1.15377521514893,0.52674436569214
617,2640263999,-165.73089599609375,-79.68687438964844,-118.93772125244141,9.65473079681396,-0.50211030244827,-1.86003756523132,1.39055192470551,-0.78070712089539,0.28772029280663
618,2640280666,-165.76942443847656,-79.67459106445312,-118.90284729003906,9.62967491149902,-0.46623137593269,-1.77796888351440,0.94737529754639,-0.30919012427330,0.14964218437672
619,2640297333,-165.82826232910156,-79.67015838623047,-118.86496734619141,9.65685749053955,-0.42121255397797,-1.73040556907654,-0.09913393855095,0.13412727415562,0.00210664444603
620,2640314000,-165.88470458984375,-79.67074584960938,-118.83516693115234,9.64284992218018,-0.45138889551163,-1.80073833465576,-0.42956981062889,0.45142385363579,0.01100065466017
621,2640330667,-165.92988586425781,-79.67635345458984,-118.80345153808594,9.63584709167480,-0.46098026633263,-1.79945456981659,0.36503219604492,0.74404895305634,-0.08384957909584
622,2640347334,-165.96223449707031,-79.68462371826172,-118.78390502929688,9.64261531829834,-0.36438947916031,-1.69367456436157,0.40993762016296,0.92430466413498,0.00704989489168
623,2640364001,-165.98051452636719,-79.69007873535156,-118.78091430664062,9.67052459716797,-0.45271185040474,-1.71358978748322,0.28109937906265,0.80642861127853,0.21953924000263
624,2640380668,-165.98243713378906,-79.69435119628906,-118.78753662109375,9.63411617279053,-0.39417761564255,-1.68981575965881,0.68955147266388,0.76185613870621,0.33730006217957
625,2640397335,-165.98632812500000,-79.69991302490234,-118.79774475097656,9.61523246765137,-0.46064013242722,-1.76864778995514,0.36455833911896,0.84658932685852,0.35632386803627
626,2640414002,-165.98718261718750,-79.70806884765625,-118.80902099609375,9.64864540100098,-0.40590867400169,-1.69615936279297,0.48140352964401,0.99995827674866,0.32895672321320
627,2640430669,-166.00263977050781,-79.71460723876953,-118.81703948974609,9.65488624572754,-0.40265616774559,-1.64794564247131,-0.20378105342388,0.89512550830841,0.32028681039810
628,2640447336,-166.01704406738281,-79.71667480468750,-118.82921600341797,9.65313720703125,-0.40742784738541,-1.66196262836456,-0.37769123911858,0.65308541059494,0.42433837056160
629,2640464003,-166.01643371582031,-79.71539306640625,-118.86153411865234,9.65602302551270,-0.41787591576576,-1.66303038597107,-0.67765432596207,0.50102281570435,0.68711185455322
630,2640480670,-165.99868774414062,-79.70909881591797,-118.91150665283203,9.66080284118652,-0.40736722946167,-1.70938229560852,-0.68809163570404,0.25483354926109,0.94307249784470
631,2640497337,-165.97389221191406,-79.70436096191406,-118.97047424316406,9.64816188812256,-0.40578997135162,-1.72896897792816,-0.79591459035873,0.37404146790504,1.01407718658447
632,2640514004,-165.93457031250000,-79.69752502441406,-119.03857421875000,9.66497898101807,-0.39287883043289,-1.69042301177979,-0.46204668283463,0.27674520015717,1.13930404186249
633,2640530671,-165.87863159179688,-79.69110870361328,-119.11888122558594,9.63560962677002,-0.43020743131638,-1.65020501613617,-0.17926968634129,0.33673018217087,1.25790369510651
634,2640547338,-165.83692932128906,-79.67675018310547,-119.19042205810547,9.65537548065186,-0.41804590821266,-1.62350440025330,-0.52583515644073,-0.15719154477119,1.28856229782104
635,2640564005,-165.81918334960938,-79.65579223632812,-119.25524139404297,9.67363643646240,-0.36929163336754,-1.61944663524628,-1.56236839294434,-0.55156314373016,1.31448233127594
636,2640580672,-165.79524230957031,-79.63306427001953,-119.33177947998047,9.69045352935791,-0.46095961332321,-1.71247279644012,-1.88743829727173,-0.62743431329727,1.46717870235443
637,2640597339,-165.78030395507812,-79.61327362060547,-119.39553070068359,9.66548633575439,-0.42231354117393,-1.75869631767273,-1.66531217098236,-0.48311957716942,1.28815877437592
638,2640614006,-165.76655578613281,-79.59380340576172,-119.45948028564453,9.65377140045166,-0.44936627149582,-1.72629463672638,-1.74914884567261,-0.46711802482605,1.28934335708618
639,2640630673,-165.74615478515625,-79.57587432861328,-119.54007720947266,9.66069412231445,-0.42379045486450,-1.72267377376556,-2.33030748367310,-0.33046787977219,1.44137382507324
640,2640647340,-165.70779418945312,-79.55854034423828,-119.62729644775391,9.60647773742676,-0.47051575779915,-1.77937543392181,-1.64806199073792,-0.27943456172943,1.50664782524109
641,2640664007,-165.67184448242188,-79.53473663330078,-119.70642852783203,9.62203121185303,-0.48095050454140,-1.70904934406281,-1.30515277385712,-0.67086708545685,1.51616942882538
642,2640680674,-165.64300537109375,-79.50955200195312,-119.77636718750000,9.66681480407715,-0.40955376625061,-1.70521390438080,-1.19914150238037,-0.77996414899826,1.44487619400024
643,2640697341,-165.60035705566406,-79.48171234130859,-119.85756683349609,9.65656757354736,-0.43043005466461,-1.74376082420349,-1.02941918373108,-0.89779561758041,1.60480225086212
644,2640714008,-165.53207397460938,-79.45407867431641,-119.96195983886719,9.65044879913330,-0.43023434281349,-1.71920037269592,-0.85992723703384,-0.82267349958420,1.85096573829651
645,2640730675,-165.45538330078125,-79.42763519287109,-120.06848144531250,9.66331958770752,-0.47939452528954,-1.77077400684357,-0.48580244183540,-0.75033038854599,1.86324703693390
646,2640747342,-165.37683105468750,-79.39943695068359,-120.17242431640625,9.61664772033691,-0.48353162407875,-1.72549617290497,-0.21846351027489,-0.85153257846832,1.86514878273010
647,2640764009,-165.29545593261719,-79.37104797363281,-120.26947021484375,9.59735393524170,-0.49338239431381,-1.70055139064789,0.35917329788208,-0.87918150424957,1.79913198947906
648,2640780676,-165.24969482421875,-79.33853149414062,-120.35164642333984,9.70949077606201,-0.44858774542809,-1.71970391273499,-0.90542173385620,-1.16297018527985,1.70814287662506
649,2640797343,-165.21003723144531,-79.30834197998047,-120.43194580078125,9.64313125610352,-0.51074612140656,-1.82270991802216,-1.15236663818359,-1.02870857715607,1.65509915351868
650,2640814010,-165.17205810546875,-79.27921295166016,-120.50592803955078,9.60966968536377,-0.56886470317841,-1.84316062927246,-0.88310027122498,-0.97973698377609,1.57334339618683
651,2640830677,-165.12551879882812,-79.25120544433594,-120.57321166992188,9.61116981506348,-0.50130259990692,-1.76164805889130,0.02383261732757,-0.93781548738480,1.48814916610718
652,2640847344,-165.07005310058594,-79.22370147705078,-120.64916992187500,9.64874839782715,-0.49075019359589,-1.76326417922974,0.04915077611804,-0.87964904308319,1.57696115970612
653,2640864011,-164.99665832519531,-79.19796752929688,-120.72917938232422,9.62691402435303,-0.47404596209526,-1.79881799221039,0.89000284671783,-0.76034492254257,1.59528684616089
654,2640880678,-164.93740844726562,-79.17162322998047,-120.79145812988281,9.61661815643311,-0.50227624177933,-1.80165982246399,1.07766699790955,-0.85321664810181,1.41909718513489
655,2640897345,-164.87348937988281,-79.14131927490234,-120.86035156250000,9.59678649902344,-0.50291246175766,-1.72513353824615,0.97981393337250,-1.05359768867493,1.55351281166077
656,2640914012,-164.82708740234375,-79.11164855957031,-120.90828704833984,9.62977313995361,-0.55370128154755,-1.79032051563263,1.15953791141510,-1.08107995986938,1.31891298294067
657,2640930679,-164.79135131835938,-79.08193206787109,-120.95816802978516,9.65214252471924,-0.49273949861526,-1.83244419097900,0.40629422664642,-1.07548367977142,1.34149062633514
658,2640947346,-164.75225830078125,-79.05377197265625,-121.00491333007812,9.61416339874268,-0.56539690494537,-1.89241671562195,0.78406244516373,-0.99921548366547,1.28906798362732
659,2640964013,-164.72520446777344,-79.03289031982422,-121.03450775146484,9.58715057373047,-0.55352264642715,-1.88989591598511,1.08063185214996,-0.62208127975464,0.98390549421310
660,2640980680,-164.70297241210938,-79.01479339599609,-121.05644226074219,9.64908313751221,-0.54375272989273,-1.88110244274139,1.24071776866913,-0.48438102006912,0.85688573122025
661,2640997347,-164.67347717285156,-79.00205230712891,-121.07441711425781,9.62818527221680,-0.56748044490814,-1.85927832126617,1.90525186061859,-0.18869514763355,0.73185718059540
662,2641014014,-164.64984130859375,-78.99089050292969,-121.08305358886719,9.59658050537109,-0.54660785198212,-1.82852482795715,2.10749626159668,-0.12790983915329,0.60304462909698
663,2641030681,-164.63385009765625,-78.98056030273438,-121.08944702148438,9.63441276550293,-0.49998223781586,-1.80439615249634,1.78184986114502,-0.08221035450697,0.56297987699509
664,2641047348,-164.61193847656250,-78.97174072265625,-121.10353088378906,9.65924835205078,-0.48797670006752,-1.81385481357574,1.68655788898468,0.03266900032759,0.62409186363220
665,2641064015,-164.59274291992188,-78.96114349365234,-121.11683654785156,9.61640167236328,-0.53125107288361,-1.79900228977203,1.56409096717834,-0.07995645701885,0.64675915241241
