sep=,
DeviceTag:,Xsens_DOT_4
FirmwareVersion:,3.0.0
AppVersion:,2023.6.0
StartTime: ,2025-04-09_11:06:15_000 CEST
© Movella Technologies B. V. 2005-2025

PacketCounter,SampleTimeFine,Euler_X,Euler_Y,Euler_Z,Acc_X,Acc_Y,Acc_Z,Gyr_X,Gyr_Y,Gyr_Z
0,2629997127,-21.60613632202148,-83.80796813964844,117.27551269531250,0.00000000000000,0.00000000000000,0.00000000000000,0.00000000000000,0.00000000000000,0.00000000000000
1,2630013794,-21.51977348327637,-83.71509552001953,117.12081909179688,9.80760288238525,-0.55948311090469,1.03496265411377,-4.00356721878052,5.65273714065552,-0.19699373841286
2,2630030461,-21.40637588500977,-83.63200378417969,116.97187805175781,9.76822471618652,-0.48242288827896,0.99643063545227,-1.95937788486481,5.09768295288086,-0.39038234949112
3,2630047128,-21.25337600708008,-83.54718780517578,116.80951690673828,9.73283767700195,-0.52870237827301,0.94708609580994,-0.58103054761887,5.24560976028442,-0.47961705923080
4,2630063795,-21.13439941406250,-83.49135589599609,116.67654418945312,9.75902652740479,-0.42232871055603,1.07479584217072,-0.36560204625130,3.53497481346130,-0.89236563444138
5,2630080462,-21.05846023559570,-83.41924285888672,116.54222106933594,9.86288547515869,-0.48902693390846,1.16931045055389,-3.43436288833618,4.47259283065796,-0.60738605260849
6,2630097129,-21.07010650634766,-83.31889343261719,116.44734954833984,9.76734924316406,-0.47272998094559,1.11196076869965,-6.27572154998779,5.95522356033325,0.25008249282837
7,2630113796,-21.12519836425781,-83.21910095214844,116.41026306152344,9.75343418121338,-0.51829653978348,0.96221917867661,-5.46241474151611,5.78147840499878,0.61058121919632
8,2630130463,-21.17753410339355,-83.14424896240234,116.40901947021484,9.77706623077393,-0.44295176863670,0.99995833635330,-3.19925093650818,4.29280424118042,0.30476555228233
9,2630147130,-21.26104736328125,-83.09851074218750,116.44712066650391,9.76563930511475,-0.46856060624123,1.04825890064240,-2.95653200149536,2.58037734031677,-0.07955946028233
10,2630163797,-21.30252075195312,-83.04088592529297,116.44126892089844,9.85600948333740,-0.58366239070892,1.16130399703979,-2.76606273651123,3.33765506744385,-0.08400325477123
11,2630180464,-21.26494026184082,-82.97641754150391,116.41942596435547,9.72940158843994,-0.54202520847321,0.98977494239807,0.91897100210190,3.77068972587585,-0.05608541890979
12,2630197131,-21.23388481140137,-82.92737579345703,116.39820098876953,9.76669597625732,-0.41446468234062,1.05884134769440,0.40055701136589,2.92201209068298,-0.40528899431229
13,2630213798,-21.32447242736816,-82.86377716064453,116.40956878662109,9.86239814758301,-0.45624855160713,1.34229373931885,-4.59588527679443,3.61916399002075,0.17369252443314
14,2630230465,-21.54750442504883,-82.76910400390625,116.52374267578125,9.74153137207031,-0.59306907653809,1.22547221183777,-6.52786445617676,5.07907581329346,1.57598793506622
15,2630247132,-21.74155044555664,-82.68817901611328,116.68293762207031,9.68673515319824,-0.65605676174164,1.05018103122711,-2.18923926353455,4.17050313949585,1.60633897781372
16,2630263799,-21.81344604492188,-82.63393402099609,116.78183746337891,9.72985076904297,-0.53313940763474,1.13537418842316,1.77891731262207,2.83798980712891,0.63069999217987
17,2630280466,-21.85123825073242,-82.60548400878906,116.85070037841797,9.77907752990723,-0.55334341526031,1.25150609016418,1.89918148517609,1.48971140384674,-0.16976736485958
18,2630297133,-21.99553489685059,-82.57476806640625,116.97438049316406,9.76762008666992,-0.52415859699249,1.28441011905670,-1.14210212230682,1.44893586635590,0.28983327746391
19,2630313800,-22.19481277465820,-82.54486083984375,117.15940093994141,9.75396728515625,-0.58839720487595,1.14124691486359,-0.92815941572189,1.24307394027710,0.71273738145828
20,2630330467,-22.35046577453613,-82.51916503906250,117.33878326416016,9.80135536193848,-0.53899914026260,1.13887143135071,1.37431335449219,1.00245535373688,0.57975620031357
21,2630347134,-22.50459671020508,-82.49010467529297,117.51879119873047,9.79842853546143,-0.48907002806664,1.15803682804108,1.47315275669098,1.17731332778931,0.66376590728760
22,2630363801,-22.65764617919922,-82.46195983886719,117.67214965820312,9.79585838317871,-0.54067963361740,1.17319560050964,-0.08906175196171,1.20939326286316,0.45581641793251
23,2630380468,-22.76460838317871,-82.44290161132812,117.81464385986328,9.75959110260010,-0.65288645029068,1.07721912860870,2.11263799667358,0.72920638322830,0.18109461665154
24,2630397135,-22.84057998657227,-82.42295837402344,117.93235778808594,9.78721523284912,-0.56937795877457,1.14785850048065,2.57726526260376,0.85090506076813,0.03612671419978
25,2630413802,-22.94266700744629,-82.39775085449219,118.05916595458984,9.81551647186279,-0.52615147829056,1.15444326400757,1.07873010635376,1.12885415554047,0.16947923600674
26,2630430469,-23.06360816955566,-82.36909484863281,118.16639709472656,9.78878211975098,-0.55955177545547,1.18909430503845,-0.86257803440094,1.36008560657501,0.15700584650040
27,2630447136,-23.16719627380371,-82.34742736816406,118.27037048339844,9.75985240936279,-0.60371577739716,1.19118821620941,0.19661587476730,0.96751970052719,-0.00114616821520
28,2630463803,-23.29582977294922,-82.32662963867188,118.40177154541016,9.73170948028564,-0.57892966270447,1.28423047065735,0.17453773319721,0.83752244710922,0.16417738795280
29,2630480470,-23.42729377746582,-82.31298065185547,118.53067779541016,9.78335857391357,-0.65294033288956,1.21772003173828,-0.21392366290092,0.45258921384811,-0.02674606069922
30,2630497137,-23.54148674011230,-82.30323028564453,118.64104461669922,9.76050662994385,-0.61132758855820,1.19303345680237,-0.31419739127159,0.29686400294304,-0.25997531414032
31,2630513804,-23.67041015625000,-82.29589843750000,118.75559997558594,9.77272605895996,-0.62123185396194,1.23006522655487,-1.03828120231628,0.15303587913513,-0.29528239369392
32,2630530471,-23.79090118408203,-82.29121398925781,118.86199951171875,9.77486896514893,-0.64636731147766,1.18646013736725,-0.72964817285538,0.01545726321638,-0.38412007689476
33,2630547138,-23.89387702941895,-82.29151153564453,118.97200775146484,9.77587413787842,-0.64636731147766,1.20864367485046,0.28806602954865,-0.25613340735435,-0.50826483964920
34,2630563805,-23.98096847534180,-82.28953552246094,119.06439208984375,9.79244232177734,-0.62618315219879,1.23043704032898,0.19343991577625,-0.07724149525166,-0.58365577459335
35,2630580472,-24.06225776672363,-82.28398895263672,119.14049530029297,9.77930736541748,-0.61824756860733,1.20012867450714,-0.40644156932831,0.16310167312622,-0.61710608005524
36,2630597139,-24.13308525085449,-82.28141784667969,119.21483612060547,9.76824951171875,-0.65728902816772,1.16874742507935,0.37452170252800,0.00034577143379,-0.66475838422775
37,2630613806,-24.18967819213867,-82.28495025634766,119.30303955078125,9.75769615173340,-0.65851998329163,1.21526634693146,1.87861454486847,-0.37071180343628,-0.73671722412109
38,2630630473,-24.22215270996094,-82.29045104980469,119.38098144531250,9.78242111206055,-0.59204441308975,1.22244071960449,2.61659336090088,-0.44395136833191,-0.87324583530426
39,2630647140,-24.24603462219238,-82.29658508300781,119.44394683837891,9.82435798645020,-0.64935618638992,1.24139344692230,2.42301249504089,-0.44083935022354,-0.97987157106400
40,2630663807,-24.26291465759277,-82.29925537109375,119.50417327880859,9.77005195617676,-0.65860730409622,1.13950896263123,2.37938117980957,-0.21939197182655,-0.94920015335083
41,2630680474,-24.25391006469727,-82.30435943603516,119.54379272460938,9.80773258209229,-0.68072295188904,1.11185431480408,3.12028002738953,-0.30522012710571,-1.10788369178772
42,2630697141,-24.23603630065918,-82.30417633056641,119.55564880371094,9.80938434600830,-0.59307318925858,1.27765452861786,1.51137948036194,0.09780207276344,-1.24428391456604
43,2630713808,-24.27150535583496,-82.29831695556641,119.57965850830078,9.74938392639160,-0.62946909666061,1.24746787548065,-0.78098887205124,0.35956388711929,-0.99142277240753
44,2630730475,-24.28714561462402,-82.29890441894531,119.61107635498047,9.70417118072510,-0.68913918733597,1.17044925689697,1.00438928604126,-0.03075444698334,-1.07849323749542
45,2630747142,-24.25735473632812,-82.30502319335938,119.62609100341797,9.79545497894287,-0.64047938585281,1.21863651275635,2.91829824447632,-0.28793156147003,-1.31559002399445
46,2630763809,-24.21453666687012,-82.31629943847656,119.61781311035156,9.81815338134766,-0.58134645223618,1.24850034713745,2.13265395164490,-0.47842600941658,-1.63261103630066
47,2630780476,-24.22876358032227,-82.32235717773438,119.61919403076172,9.77606391906738,-0.58935028314590,1.20676648616791,-0.71320492029190,-0.22502680122852,-1.43403589725494
48,2630797143,-24.25135612487793,-82.32581329345703,119.61628723144531,9.77910327911377,-0.67142885923386,1.11945962905884,-1.48992264270782,-0.06996750086546,-1.40478599071503
49,2630813810,-24.25128364562988,-82.33274078369141,119.60879516601562,9.77312850952148,-0.63949942588806,1.19830286502838,-0.47241985797882,-0.23977971076965,-1.53130006790161
50,2630830477,-24.24506759643555,-82.34252929687500,119.60198211669922,9.76265525817871,-0.55221045017242,1.23145937919617,-0.09362082183361,-0.39376324415207,-1.59886646270752
51,2630847144,-24.26832580566406,-82.35855865478516,119.59869384765625,9.78194141387939,-0.62763959169388,1.28058624267578,-1.65681517124176,-0.74529761075974,-1.72708368301392
52,2630863811,-24.29418182373047,-82.37656402587891,119.60958862304688,9.75283241271973,-0.70034879446030,1.19483184814453,-0.87380921840668,-0.91051226854324,-1.66397392749786
53,2630880478,-24.28608322143555,-82.39579010009766,119.62325286865234,9.78758525848389,-0.67932480573654,1.14452385902405,1.28724300861359,-0.97920548915863,-1.67722845077515
54,2630897145,-24.26379013061523,-82.41970062255859,119.62966156005859,9.79578208923340,-0.60220992565155,1.18201112747192,1.74341821670532,-1.21284449100494,-1.84097039699554
55,2630913812,-24.24420738220215,-82.44974517822266,119.62140655517578,9.77119255065918,-0.61276048421860,1.23351907730103,1.00867915153503,-1.52362883090973,-2.06312203407288
56,2630930479,-24.21981239318848,-82.48377990722656,119.59944152832031,9.73824405670166,-0.60406047105789,1.22015607357025,0.23082162439823,-1.68074989318848,-2.28745079040527
57,2630947146,-24.20079231262207,-82.51756286621094,119.56624603271484,9.77746295928955,-0.61568629741669,1.15911602973938,-0.77003937959671,-1.62783432006836,-2.36071586608887
58,2630963813,-24.18478775024414,-82.54833221435547,119.53693389892578,9.76444625854492,-0.57009309530258,1.07475054264069,-0.68682372570038,-1.47894763946533,-2.25430798530579
59,2630980480,-24.14797210693359,-82.57942199707031,119.49420166015625,9.77980899810791,-0.55800181627274,1.11023509502411,-0.23711599409580,-1.46049380302429,-2.35793733596802
60,2630997147,-24.13306045532227,-82.60994720458984,119.46160888671875,9.81595325469971,-0.57994061708450,1.18967807292938,-0.99636614322662,-1.45154213905334,-2.27125120162964
61,2631013814,-24.15474510192871,-82.63590240478516,119.44702911376953,9.77134227752686,-0.58358645439148,1.11754119396210,-2.12265872955322,-1.26752758026123,-2.03712511062622
62,2631030481,-24.14773178100586,-82.66008758544922,119.41234588623047,9.77457332611084,-0.59339797496796,1.10281789302826,-1.70477497577667,-1.10007190704346,-2.14696550369263
63,2631047148,-24.14389228820801,-82.68616485595703,119.37094116210938,9.80488681793213,-0.60248357057571,1.20613789558411,-2.15864467620850,-1.18395340442657,-2.22010207176208
64,2631063815,-24.14175415039062,-82.70400238037109,119.34523773193359,9.72933387756348,-0.67377579212189,1.17743039131165,-1.23779118061066,-0.78974837064743,-1.89827883243561
65,2631080482,-24.15803146362305,-82.72300720214844,119.37107086181641,9.75202465057373,-0.64541697502136,1.15508818626404,0.60061782598495,-1.01158010959625,-1.58360123634338
66,2631097149,-24.17208099365234,-82.74715423583984,119.41199493408203,9.77908420562744,-0.54467773437500,1.13600349426270,1.63875174522400,-1.33483779430389,-1.60247766971588
67,2631113816,-24.21685600280762,-82.76871490478516,119.46952819824219,9.80921840667725,-0.52423441410065,1.16122472286224,0.43717035651207,-1.23095273971558,-1.46956062316895
68,2631130483,-24.26137542724609,-82.78265380859375,119.50629425048828,9.78455924987793,-0.65448552370071,1.13083052635193,-0.46447992324829,-0.76676106452942,-1.38829159736633
69,2631147150,-24.29834365844727,-82.79747772216797,119.53982543945312,9.76326656341553,-0.59113687276840,1.13245844841003,-0.25199693441391,-0.80085140466690,-1.44087433815002
70,2631163817,-24.35624122619629,-82.81433105468750,119.58506011962891,9.75724124908447,-0.57221323251724,1.13442254066467,-0.78342205286026,-0.94347578287125,-1.40473484992981
71,2631180484,-24.43162536621094,-82.82985687255859,119.63967132568359,9.79537868499756,-0.61479735374451,1.08361685276031,-1.19728469848633,-0.90985912084579,-1.30397450923920
72,2631197151,-24.47443962097168,-82.84936523437500,119.66298675537109,9.77678966522217,-0.58168494701385,1.09123778343201,-1.16200339794159,-1.02355396747589,-1.62268614768982
73,2631213818,-24.50569534301758,-82.87126922607422,119.66901397705078,9.76299762725830,-0.59209656715393,1.13418972492218,-1.33911526203156,-1.10662877559662,-1.78190767765045
74,2631230485,-24.54605484008789,-82.89443969726562,119.68881988525391,9.73986339569092,-0.59241235256195,1.11170601844788,-1.08391022682190,-1.21878671646118,-1.72347211837769
75,2631247152,-24.57190895080566,-82.92304992675781,119.70888519287109,9.79894161224365,-0.63631194829941,1.09328794479370,-0.14677996933460,-1.51889073848724,-1.85363590717316
76,2631263819,-24.55947303771973,-82.95867156982422,119.71257781982422,9.79245758056641,-0.59513938426971,1.11330354213715,0.84144115447998,-1.83831942081451,-2.18010807037354
77,2631280486,-24.54593086242676,-82.99044799804688,119.68939208984375,9.79008579254150,-0.56923818588257,1.11982214450836,-0.66279906034470,-1.53865087032318,-2.25479483604431
78,2631297153,-24.51510810852051,-83.02248382568359,119.64089965820312,9.75295829772949,-0.62948983907700,1.01060152053833,-1.04442834854126,-1.48326349258423,-2.41908788681030
79,2631313820,-24.45240402221680,-83.05651855468750,119.55675506591797,9.77189922332764,-0.52459365129471,1.04032588005066,-1.23158025741577,-1.49623632431030,-2.70532202720642
80,2631330487,-24.35725021362305,-83.09573364257812,119.44498443603516,9.80991935729980,-0.56716829538345,1.03681659698486,-0.93538224697113,-1.69180214405060,-3.00660443305969
81,2631347154,-24.20340347290039,-83.13956451416016,119.30467987060547,9.78149127960205,-0.55730909109116,1.05373942852020,0.81015545129776,-1.85774695873260,-3.30683708190918
82,2631363821,-24.03062057495117,-83.18241119384766,119.14853668212891,9.75376987457275,-0.51551276445389,0.97140288352966,1.10182011127472,-1.77351963520050,-3.36370992660522
83,2631380488,-23.83448982238770,-83.23439025878906,118.98136138916016,9.75157165527344,-0.55547183752060,0.94330173730850,1.87373590469360,-2.25190091133118,-3.64155673980713
84,2631397155,-23.58889198303223,-83.30036926269531,118.80293273925781,9.79809951782227,-0.56789553165436,1.07722282409668,4.08892679214478,-3.00118732452393,-4.04362440109253
85,2631413822,-23.32588577270508,-83.33932495117188,118.59138488769531,9.85729503631592,-0.54076862335205,1.31088292598724,3.39498901367188,-1.45273315906525,-3.56380891799927
86,2631430489,-23.18133735656738,-83.34056091308594,118.44810485839844,9.75853824615479,-0.60129600763321,1.11824250221252,0.15756933391094,0.44216486811638,-2.24260330200195
87,2631447156,-23.12600708007812,-83.33352661132812,118.36334228515625,9.70281410217285,-0.48762878775597,1.08423650264740,-1.74968647956848,0.72935998439789,-1.68177449703217
88,2631463823,-23.11959838867188,-83.33341217041016,118.34469604492188,9.77557086944580,-0.53790611028671,1.01940071582794,-0.80462944507599,0.16978658735752,-1.42756867408752
89,2631480490,-23.10613822937012,-83.34138488769531,118.34719085693359,9.78830528259277,-0.52213376760483,1.04178750514984,0.80663359165192,-0.32378938794136,-1.48595285415649
90,2631497157,-23.06440162658691,-83.35665893554688,118.33735656738281,9.77922630310059,-0.53113436698914,0.98884910345078,2.07918763160706,-0.70649427175522,-1.70226478576660
91,2631513824,-22.99941253662109,-83.37439727783203,118.29705047607422,9.75453281402588,-0.52843314409256,0.96127080917358,1.70586991310120,-0.76331609487534,-1.94981181621552
92,2631530491,-22.94110870361328,-83.39164733886719,118.22765350341797,9.83250522613525,-0.48389458656311,1.10763359069824,-0.59753781557083,-0.65896993875504,-2.14373803138733
93,2631547158,-22.92607879638672,-83.39199829101562,118.17747497558594,9.76944351196289,-0.53483474254608,1.03458023071289,-2.06159806251526,0.22329150140285,-1.62602841854095
94,2631563825,-22.90916252136230,-83.39607238769531,118.14788818359375,9.76396942138672,-0.51456779241562,1.01415181159973,-0.67669391632080,-0.03485247865319,-1.57550752162933
95,2631580492,-22.88454818725586,-83.41054534912109,118.13877868652344,9.76626777648926,-0.51746314764023,1.01330494880676,0.75334626436234,-0.65688246488571,-1.71510946750641
96,2631597159,-22.82557296752930,-83.42875671386719,118.11294555664062,9.77755165100098,-0.52797859907150,1.01945888996124,1.84707272052765,-0.80954700708389,-1.89970040321350
97,2631613826,-22.73682594299316,-83.43386077880859,118.04431915283203,9.80371570587158,-0.51978522539139,1.07744693756104,1.09222805500031,0.01422785595059,-1.87185943126678
98,2631630493,-22.69755172729492,-83.43472290039062,118.00183105468750,9.75830936431885,-0.48510551452637,1.01275861263275,-0.14547371864319,0.17790581285954,-1.58361399173737
99,2631647160,-22.68551445007324,-83.44387054443359,117.98542785644531,9.77600002288818,-0.46778804063797,1.02166330814362,-0.19755716621876,-0.35310310125351,-1.60916280746460
100,2631663827,-22.69428825378418,-83.45468139648438,117.99001312255859,9.79753017425537,-0.52338528633118,1.08258318901062,0.17131054401398,-0.51352828741074,-1.47353076934814
101,2631680494,-22.67496299743652,-83.46055603027344,118.01133728027344,9.75623607635498,-0.59944605827332,1.00472438335419,2.58396267890930,-0.27214130759239,-1.28131997585297
102,2631697161,-22.62358856201172,-83.47235107421875,118.02947998046875,9.74333953857422,-0.46375486254692,1.00283026695251,4.21250820159912,-0.59656459093094,-1.45515370368958
103,2631713828,-22.60034561157227,-83.49043273925781,118.04770660400391,9.77331447601318,-0.48714339733124,1.01359927654266,2.48668575286865,-0.93507486581802,-1.59905850887299
104,2631730495,-22.58172225952148,-83.51708221435547,118.07359313964844,9.76177597045898,-0.50766783952713,0.97928154468536,2.68719506263733,-1.43265295028687,-1.74829101562500
105,2631747162,-22.54819488525391,-83.55339050292969,118.11199188232422,9.77794170379639,-0.52613908052444,0.99183583259583,4.43845081329346,-1.99664473533630,-1.87762224674225
106,2631763829,-22.46875190734863,-83.59970092773438,118.15003204345703,9.73667049407959,-0.50566971302032,0.95002174377441,7.00997924804688,-2.54889297485352,-2.12801218032837
107,2631780496,-22.38533210754395,-83.65566253662109,118.19031524658203,9.75597000122070,-0.45994377136230,0.97231620550156,7.70911741256714,-3.10137224197388,-2.29777336120605
108,2631797163,-22.32435035705566,-83.72348785400391,118.26121520996094,9.77382469177246,-0.48396179080009,1.00556027889252,7.58839130401611,-3.79801201820374,-2.43509602546692
109,2631813830,-22.36101150512695,-83.76540374755859,118.34239959716797,9.95370483398438,-0.41399127244949,1.26997447013855,3.14758300781250,-2.44746613502502,-1.71512234210968
110,2631830497,-22.53061294555664,-83.76005554199219,118.46404266357422,9.77480888366699,-0.56137794256210,0.95167011022568,-2.93021464347839,0.11489856243134,-0.43756094574928
111,2631847164,-22.72800827026367,-83.76155853271484,118.61332702636719,9.74197578430176,-0.49044483900070,0.98719698190689,-2.93745017051697,-0.34629008173943,-0.43368059396744
112,2631863831,-22.92461776733398,-83.77401733398438,118.76863098144531,9.76261043548584,-0.53347426652908,0.98693740367889,-2.47704887390137,-0.97982019186020,-0.65070980787277
113,2631880498,-23.24431037902832,-83.79508972167969,119.01365661621094,9.79680919647217,-0.49015980958939,1.07385146617889,-4.69259881973267,-1.67079949378967,-0.33910575509071
114,2631897165,-23.65271949768066,-83.80754852294922,119.28079986572266,9.80227184295654,-0.48541092872620,0.97798967361450,-8.43564033508301,-1.26678502559662,0.01020666211843
115,2631913832,-24.06410408020020,-83.81902313232422,119.52291870117188,9.78200531005859,-0.43950888514519,0.96572703123093,-10.09116935729980,-1.15330803394318,-0.12270406633615
116,2631930499,-24.49154853820801,-83.83652496337891,119.76342010498047,9.77859687805176,-0.53663992881775,0.89587563276291,-11.22094821929932,-1.49544298648834,-0.30753824114799
117,2631947166,-24.87587356567383,-83.85120391845703,119.98366546630859,9.73026466369629,-0.43066248297691,0.91048693656921,-9.94761180877686,-1.27761971950531,-0.37703832983971
118,2631963833,-25.23588180541992,-83.87187194824219,120.21889495849609,9.77162361145020,-0.55103284120560,0.86256158351898,-7.55216836929321,-1.64727473258972,-0.44888186454773
119,2631980500,-25.55075454711914,-83.90400695800781,120.46600341796875,9.74788475036621,-0.53866863250732,0.88084709644318,-4.17492818832397,-2.30408668518066,-0.69613409042358
120,2631997167,-25.87700653076172,-83.95114135742188,120.73285675048828,9.74020957946777,-0.49593812227249,0.92782115936279,-3.63123393058777,-3.17112755775452,-0.99283140897751
121,2632013834,-26.20076942443848,-84.01509857177734,121.02391815185547,9.72165775299072,-0.55874091386795,0.82998251914978,-1.88090097904205,-4.13376903533936,-1.30834174156189
122,2632030501,-26.46457672119141,-84.09784698486328,121.31846618652344,9.74141883850098,-0.56105571985245,0.80538028478622,1.81839931011200,-5.15001583099365,-1.84724557399750
123,2632047168,-26.68578338623047,-84.18938446044922,121.63363647460938,9.76062679290771,-0.52252727746964,0.86361718177795,5.33517742156982,-5.64361143112183,-2.03853416442871
124,2632063835,-26.91714668273926,-84.27669525146484,121.95580291748047,9.76707935333252,-0.49579539895058,0.87901866436005,5.41570425033569,-5.42893934249878,-1.90854978561401
125,2632080502,-27.10700035095215,-84.35157012939453,122.23440551757812,9.76989650726318,-0.52519899606705,0.88752180337906,5.24224090576172,-4.63143587112427,-1.85221457481384
126,2632097169,-27.30069351196289,-84.41598510742188,122.49234008789062,9.76980590820312,-0.46891680359840,0.96037936210632,3.87299871444702,-4.01308059692383,-1.69961380958557
127,2632113836,-27.50200271606445,-84.46437835693359,122.74347686767578,9.82357406616211,-0.52266824245453,0.90574723482132,3.08289861679077,-3.14716720581055,-1.31963682174683
128,2632130503,-27.66614913940430,-84.49897003173828,122.95313262939453,9.80257415771484,-0.52506434917450,0.86357903480530,2.60474753379822,-2.28526115417480,-1.18761610984802
129,2632147170,-27.78713035583496,-84.52031707763672,123.12455749511719,9.79577159881592,-0.55442863702774,0.82423275709152,2.97478699684143,-1.47039318084717,-1.01364183425903
130,2632163837,-27.88700294494629,-84.52489471435547,123.27324676513672,9.80447483062744,-0.54230237007141,0.82684522867203,2.90852713584900,-0.52698773145676,-0.66565495729446
131,2632180504,-27.94530296325684,-84.51816558837891,123.37775421142578,9.76714515686035,-0.48359662294388,0.84474235773087,2.70409893989563,0.17312903702259,-0.59050720930099
132,2632197171,-28.04051017761230,-84.50552368164062,123.50395965576172,9.78797435760498,-0.52602934837341,0.86658865213394,1.84428060054779,0.44334298372269,-0.29573065042496
133,2632213838,-28.10514640808105,-84.48629760742188,123.60504913330078,9.77748870849609,-0.56098926067352,0.82872241735458,2.22103095054626,0.84203034639359,-0.23875518143177
134,2632230505,-28.18627929687500,-84.46976470947266,123.71077728271484,9.78405570983887,-0.51545572280884,0.88132274150848,1.50408029556274,0.70396506786346,-0.28004288673401
135,2632247172,-28.26018524169922,-84.45150756835938,123.80910491943359,9.76289367675781,-0.56009697914124,0.89593797922134,1.50542497634888,0.79871922731400,-0.27298659086227
136,2632263839,-28.34132957458496,-84.43521881103516,123.92030334472656,9.77563762664795,-0.57905125617981,0.85477483272552,1.79290163516998,0.66000086069107,-0.26485455036163
137,2632280506,-28.41009140014648,-84.41840362548828,124.01863861083984,9.74505329132080,-0.52309632301331,0.84040039777756,1.83837676048279,0.72316169738770,-0.30386260151863
138,2632297173,-28.51393318176270,-84.40378570556641,124.14300537109375,9.77685546875000,-0.54044914245605,0.84588783979416,1.19163084030151,0.53157877922058,-0.24089387059212
139,2632313840,-28.59380149841309,-84.39108276367188,124.24508666992188,9.78122329711914,-0.57455593347549,0.86634719371796,1.29072642326355,0.48647484183311,-0.41185867786407
140,2632330507,-28.65150642395020,-84.37879943847656,124.32023620605469,9.77068233489990,-0.61058044433594,0.87771266698837,1.08299458026886,0.54749709367752,-0.54884815216064
141,2632347174,-28.68380355834961,-84.36688995361328,124.37901306152344,9.76012039184570,-0.55835533142090,0.82746160030365,1.57811367511749,0.57227742671967,-0.64907068014145
142,2632363841,-28.73984146118164,-84.35756683349609,124.44811248779297,9.77095222473145,-0.55949425697327,0.82254749536514,0.80414909124374,0.40336155891418,-0.66785752773285
143,2632380508,-28.78392982482910,-84.34726715087891,124.51082611083984,9.78068733215332,-0.55623370409012,0.87166655063629,1.13935530185699,0.47145295143127,-0.67090541124344
144,2632397175,-28.85449600219727,-84.34352111816406,124.60493469238281,9.74833869934082,-0.58892279863358,0.88969165086746,1.39630186557770,0.04153098911047,-0.69741457700729
145,2632413842,-28.92490959167480,-84.34320831298828,124.70228576660156,9.74285697937012,-0.59983187913895,0.88403367996216,1.55096435546875,-0.14822711050510,-0.78475397825241
146,2632430509,-28.98684120178223,-84.34722900390625,124.80863189697266,9.75255203247070,-0.56874901056290,0.84525007009506,2.67632222175598,-0.41222998499870,-0.86161768436432
147,2632447176,-29.05570411682129,-84.35469055175781,124.90667724609375,9.79361248016357,-0.57279956340790,0.84206408262253,1.72561717033386,-0.56193625926971,-1.00640618801117
148,2632463843,-29.12482261657715,-84.36402893066406,124.98767089843750,9.78183841705322,-0.54377520084381,0.85199671983719,0.88061583042145,-0.62484097480774,-1.13600635528564
149,2632480510,-29.17262268066406,-84.37545013427734,125.04625701904297,9.74171829223633,-0.59936273097992,0.84372681379318,0.70154464244843,-0.64918583631516,-1.31780529022217
150,2632497177,-29.22482299804688,-84.38766479492188,125.10217285156250,9.76337814331055,-0.55594694614410,0.85811489820480,0.59931153059006,-0.70599484443665,-1.33073973655701
151,2632513844,-29.25214004516602,-84.39740753173828,125.14585876464844,9.79652118682861,-0.54185974597931,0.83512789011002,0.95101231336594,-0.52843475341797,-1.36280679702759
152,2632530511,-29.28455162048340,-84.40766906738281,125.17572784423828,9.79469108581543,-0.52280235290527,0.80571931600571,-0.14424432814121,-0.50717622041702,-1.43901753425598
153,2632547178,-29.30310249328613,-84.41601562500000,125.18273925781250,9.74663829803467,-0.56056493520737,0.80179888010025,-0.64849436283112,-0.34652063250542,-1.50189673900604
154,2632563845,-29.33104896545410,-84.42455291748047,125.19488525390625,9.77301979064941,-0.57065033912659,0.83998501300812,-0.87765127420425,-0.36884212493896,-1.47622013092041
155,2632580512,-29.33061218261719,-84.43218231201172,125.18818664550781,9.77789783477783,-0.56620615720749,0.85638207197189,-0.30962550640106,-0.27848049998283,-1.55349349975586
156,2632597179,-29.33594703674316,-84.44258117675781,125.18321990966797,9.76059532165527,-0.60323858261108,0.84706139564514,-0.04610926285386,-0.44671747088432,-1.57832491397858
157,2632613846,-29.33999633789062,-84.45592498779297,125.19466400146484,9.73807907104492,-0.57660794258118,0.84585571289062,0.47469297051430,-0.61427581310272,-1.62403094768524
158,2632630513,-29.33504104614258,-84.47213745117188,125.20593261718750,9.73862743377686,-0.58129012584686,0.82059955596924,1.00734746456146,-0.76784962415695,-1.71180570125580
159,2632647180,-29.35549163818359,-84.49045562744141,125.23577880859375,9.78407669067383,-0.53225165605545,0.84146875143051,0.52894061803818,-0.92874842882156,-1.68635928630829
160,2632663847,-29.35951805114746,-84.50552368164062,125.25312805175781,9.79508018493652,-0.56957638263702,0.82221406698227,0.93465858697891,-0.73509085178375,-1.64235675334930
161,2632680514,-29.35479736328125,-84.51791381835938,125.26361846923828,9.79247856140137,-0.51411384344101,0.81135743856430,0.88659632205963,-0.56425416469574,-1.61045610904694
162,2632697181,-29.35242462158203,-84.52915191650391,125.26518249511719,9.76686668395996,-0.54747933149338,0.78420603275299,0.25730517506599,-0.47649231553078,-1.61285102367401
163,2632713848,-29.34531402587891,-84.53922271728516,125.26415252685547,9.74669265747070,-0.54552125930786,0.80550479888916,0.39521673321724,-0.41301116347313,-1.59528052806854
164,2632730515,-29.33396911621094,-84.54972076416016,125.27320098876953,9.74807453155518,-0.59459954500198,0.80731892585754,1.09749138355255,-0.45219859480858,-1.56850242614746
165,2632747182,-29.30862236022949,-84.56058502197266,125.26617431640625,9.78558731079102,-0.53036546707153,0.84395349025726,1.08887267112732,-0.43392392992973,-1.64982271194458
166,2632763849,-29.30981826782227,-84.56996154785156,125.27777099609375,9.75601100921631,-0.46673282980919,0.79594391584396,0.61706119775772,-0.41322892904282,-1.51611185073853
167,2632780516,-29.34296035766602,-84.58000183105469,125.30941009521484,9.76378154754639,-0.56270354986191,0.76351869106293,-0.10594052076340,-0.49986377358437,-1.43342101573944
168,2632797183,-29.34900474548340,-84.58673095703125,125.33081817626953,9.76341056823730,-0.52305310964584,0.81807851791382,0.64006131887436,-0.28775224089622,-1.41100978851318
169,2632813850,-29.36825370788574,-84.59072113037109,125.35582733154297,9.78191375732422,-0.55885875225067,0.81055343151093,0.19625730812550,-0.16296720504761,-1.30227136611938
170,2632830517,-29.38134574890137,-84.59561157226562,125.36553192138672,9.77489089965820,-0.55416864156723,0.81129258871078,-0.19403541088104,-0.16953685879707,-1.38955938816071
171,2632847184,-29.38722991943359,-84.60181427001953,125.37010192871094,9.76358127593994,-0.56499654054642,0.81979465484619,-0.07395027577877,-0.22817714512348,-1.45721530914307
172,2632863851,-29.41024208068848,-84.60878753662109,125.38838195800781,9.76819705963135,-0.54765963554382,0.80098360776901,-0.26394525170326,-0.30406755208969,-1.40882015228271
173,2632880518,-29.42561721801758,-84.61890411376953,125.40033721923828,9.74789714813232,-0.55536282062531,0.81183785200119,-0.16664263606071,-0.45286458730698,-1.53224778175354
174,2632897185,-29.46766662597656,-84.63009643554688,125.43571472167969,9.73685836791992,-0.50782811641693,0.83802968263626,-0.37635937333107,-0.56769913434982,-1.44681644439697
175,2632913852,-29.51448059082031,-84.64035797119141,125.47808837890625,9.75093841552734,-0.51982516050339,0.78735631704330,-0.00443740002811,-0.55623745918274,-1.36877465248108
176,2632930519,-29.59157562255859,-84.65023803710938,125.54808807373047,9.78806781768799,-0.52495688199997,0.79489243030548,-0.45802545547485,-0.59728169441223,-1.24757540225983
177,2632947186,-29.63197708129883,-84.65544128417969,125.58551788330078,9.76962280273438,-0.53719049692154,0.76956361532211,-0.14729222655296,-0.26705721020699,-1.26389074325562
178,2632963853,-29.68294334411621,-84.65844726562500,125.62136077880859,9.76249122619629,-0.55809944868088,0.75636690855026,-0.85045057535172,-0.14825272560120,-1.20481503009796
179,2632980520,-29.68510818481445,-84.65925598144531,125.62361145019531,9.76654815673828,-0.54980599880219,0.75330680608749,-0.04325345158577,0.06736139953136,-1.31144070625305
180,2632997187,-29.68730545043945,-84.65837860107422,125.60682678222656,9.79314708709717,-0.53594493865967,0.78314477205276,-1.17621850967407,0.20263488590717,-1.35687768459320
181,2633013854,-29.68269157409668,-84.65558624267578,125.58156585693359,9.76042842864990,-0.54934769868851,0.79398846626282,-1.22945439815521,0.32683083415031,-1.33556771278381
182,2633030521,-29.69487953186035,-84.65515136718750,125.57399749755859,9.73425197601318,-0.52823638916016,0.77406072616577,-1.20682561397552,0.15914452075958,-1.32073807716370
183,2633047188,-29.73084449768066,-84.65705108642578,125.59796142578125,9.73644828796387,-0.51375013589859,0.83071500062943,-0.68494123220444,-0.05474074557424,-1.23018443584442
184,2633063855,-29.78271865844727,-84.66138458251953,125.64401245117188,9.74904632568359,-0.52698498964310,0.77900910377502,-0.31929430365562,-0.24114997684956,-1.19478762149811
185,2633080522,-29.84584426879883,-84.66667175292969,125.70771026611328,9.77510070800781,-0.55900597572327,0.80201035737991,-0.00678096245974,-0.35013201832771,-1.15310299396515
186,2633097189,-29.88841247558594,-84.67222595214844,125.74450683593750,9.77078056335449,-0.59900796413422,0.79016768932343,-0.05547070130706,-0.29537203907967,-1.25995910167694
187,2633113856,-29.92020416259766,-84.67995452880859,125.77689361572266,9.76142215728760,-0.54108089208603,0.81037032604218,0.06823223084211,-0.37341395020485,-1.36124455928802
188,2633130523,-29.94822883605957,-84.68669891357422,125.80004882812500,9.76526165008545,-0.53583639860153,0.75924152135849,-0.26509785652161,-0.30101963877678,-1.38000595569611
189,2633147190,-29.98050117492676,-84.69489288330078,125.82957458496094,9.77675819396973,-0.60246235132217,0.75876855850220,-0.19488060474396,-0.40306058526039,-1.40543901920319
190,2633163857,-29.97636222839355,-84.70565032958984,125.83551025390625,9.75230407714844,-0.54552352428436,0.78282690048218,0.66745412349701,-0.46175211668015,-1.58036112785339
191,2633180524,-29.96992874145508,-84.71709442138672,125.83129119873047,9.76758098602295,-0.56723302602768,0.79914546012878,0.16215401887894,-0.47322666645050,-1.65713536739349
192,2633197191,-29.96357536315918,-84.72868347167969,125.82470703125000,9.75216197967529,-0.54201823472977,0.76152551174164,-0.10053625702858,-0.46597829461098,-1.68013560771942
193,2633213858,-29.93684959411621,-84.73790740966797,125.79700469970703,9.74421119689941,-0.54188311100006,0.73330909013748,-0.06626646220684,-0.28767547011375,-1.70359659194946
194,2633230525,-29.89214515686035,-84.74737548828125,125.74797821044922,9.76782894134521,-0.51748818159103,0.74456185102463,-0.15562915802002,-0.24970459938049,-1.80553507804871
195,2633247192,-29.84416770935059,-84.75648498535156,125.70024871826172,9.77821445465088,-0.55019694566727,0.78517740964890,-0.10679855942726,-0.22211974859238,-1.80434429645538
196,2633263859,-29.77279090881348,-84.76277160644531,125.64261627197266,9.75479507446289,-0.52038115262985,0.78731888532639,0.76297664642334,-0.05904367193580,-1.76673197746277
197,2633280526,-29.72327995300293,-84.76886749267578,125.59022521972656,9.76129722595215,-0.51243829727173,0.75507646799088,-0.05023290589452,-0.07197809219360,-1.72043716907501
198,2633297193,-29.65466690063477,-84.77198028564453,125.52413940429688,9.75310325622559,-0.52958440780640,0.72853219509125,0.36277827620506,0.12315869331360,-1.68589854240417
199,2633313860,-29.59274101257324,-84.77674865722656,125.46926879882812,9.76049041748047,-0.54159820079803,0.79111528396606,0.34993350505829,0.01650738529861,-1.70432674884796
200,2633330527,-29.52408981323242,-84.78038787841797,125.41219329833984,9.77510929107666,-0.50896787643433,0.79820549488068,0.47371971607208,0.09106595069170,-1.69150757789612
201,2633347194,-29.45771408081055,-84.78330993652344,125.35969543457031,9.74791717529297,-0.56315088272095,0.78134071826935,0.75909644365311,0.09745632857084,-1.64247214794159
202,2633363861,-29.39440917968750,-84.78827667236328,125.30890655517578,9.74901294708252,-0.51905536651611,0.77953171730042,0.84775483608246,-0.01107108965516,-1.67467999458313
203,2633380528,-29.33039283752441,-84.78940582275391,125.25553131103516,9.79045486450195,-0.52362716197968,0.76505851745605,0.93526035547256,0.18264415860176,-1.55979406833649
204,2633397195,-29.26676940917969,-84.79030609130859,125.19903564453125,9.76353836059570,-0.49170437455177,0.79814767837524,0.36982175707817,0.21997468173504,-1.59635615348816
205,2633413862,-29.20961189270020,-84.79097747802734,125.14368438720703,9.75991344451904,-0.52145284414291,0.76915550231934,0.32834199070930,0.21177859604359,-1.56372559070587
206,2633430529,-29.15939331054688,-84.79124450683594,125.10182952880859,9.73169708251953,-0.52930414676666,0.76577138900757,0.42567023634911,0.21373799443245,-1.50923478603363
207,2633447196,-29.12332534790039,-84.79150390625000,125.06591796875000,9.75842761993408,-0.49888777732849,0.78227722644806,0.05479836836457,0.19052007794380,-1.47259569168091
208,2633463863,-29.09233665466309,-84.79064178466797,125.03721618652344,9.76826190948486,-0.52400916814804,0.78753900527954,0.13748897612095,0.22864456474781,-1.40888404846191
209,2633480530,-29.07882690429688,-84.78977966308594,125.02838897705078,9.77832698822021,-0.48663645982742,0.77537304162979,0.32182353734970,0.18578168749809,-1.30512702465057
210,2633497197,-29.06243133544922,-84.78748321533203,125.01587677001953,9.74147891998291,-0.51519805192947,0.74893844127655,0.37817150354385,0.25558915734291,-1.27742707729340
211,2633513864,-29.04434585571289,-84.78315734863281,124.99784851074219,9.76757335662842,-0.49455004930496,0.77026486396790,0.22172915935516,0.37348440289497,-1.23862373828888
212,2633530531,-29.03950309753418,-84.77806091308594,124.98452758789062,9.76923561096191,-0.51257920265198,0.77877569198608,-0.41128233075142,0.40386104583740,-1.20563459396362
213,2633547198,-29.02827072143555,-84.77438354492188,124.96460723876953,9.75383090972900,-0.52148216962814,0.78808718919754,-0.47291931509972,0.35454380512238,-1.28014206886292
214,2633563865,-29.04533958435059,-84.77040863037109,124.97640228271484,9.74446964263916,-0.50084555149078,0.77419012784958,-0.31195628643036,0.29057610034943,-1.12057483196259
215,2633580532,-29.08413505554199,-84.76744842529297,125.00709533691406,9.77244472503662,-0.50431072711945,0.75884127616882,-0.42609930038452,0.18054392933846,-1.05668401718140
216,2633597199,-29.10926246643066,-84.76142883300781,125.04539489746094,9.75327014923096,-0.49910041689873,0.80698895454407,0.65800315141678,0.32619056105614,-0.94733059406281
217,2633613866,-29.16321754455566,-84.75559234619141,125.08952331542969,9.75761222839355,-0.48442828655243,0.80863797664642,-0.67650175094604,0.30079552531242,-0.92032188177109
218,2633630533,-29.22379112243652,-84.74816131591797,125.14297485351562,9.77504253387451,-0.52295339107513,0.82544142007828,-0.45259565114975,0.36122876405716,-0.81851154565811
219,2633647200,-29.27156829833984,-84.74037170410156,125.18668365478516,9.77176666259766,-0.54192233085632,0.77415430545807,-0.35040092468262,0.40771570801735,-0.86227065324783
220,2633663867,-29.32359123229980,-84.73415374755859,125.23484039306641,9.77858543395996,-0.54714530706406,0.77881664037704,-0.79218161106110,0.32424396276474,-0.92917114496231
221,2633680534,-29.37083435058594,-84.72905731201172,125.28369903564453,9.75067043304443,-0.56394720077515,0.80697727203369,-0.02687412686646,0.24725224077702,-0.92137217521667
222,2633697201,-29.43145561218262,-84.72622680664062,125.34453582763672,9.75459098815918,-0.53538048267365,0.80454808473587,0.05833291634917,0.09248745441437,-0.91134470701218
223,2633713868,-29.47270965576172,-84.72482299804688,125.38986968994141,9.77499675750732,-0.54687660932541,0.80915874242783,0.44896498322487,0.05579726397991,-1.01507604122162
224,2633730535,-29.51444053649902,-84.72173309326172,125.43412780761719,9.77915668487549,-0.53313297033310,0.76371645927429,0.24420426785946,0.14170224964619,-0.98407191038132
225,2633747202,-29.56300163269043,-84.71947479248047,125.48043823242188,9.76619338989258,-0.50321662425995,0.79756599664688,-0.11046116054058,0.09786611795425,-1.00402414798737
226,2633763869,-29.61553955078125,-84.71665191650391,125.52909851074219,9.76788043975830,-0.53378719091415,0.78396713733673,-0.16063643991947,0.12336355447769,-0.96843534708023
227,2633780536,-29.66079711914062,-84.71198272705078,125.56829071044922,9.78278064727783,-0.51877045631409,0.77759456634521,-0.31769350171089,0.24630452692509,-0.96094357967377
228,2633797203,-29.69101715087891,-84.70705413818359,125.60102081298828,9.77895927429199,-0.53636759519577,0.76814687252045,0.29924595355988,0.27030360698700,-0.97714364528656
229,2633813870,-29.70939445495605,-84.70243072509766,125.61750793457031,9.75530815124512,-0.52874147891998,0.77754276990891,-0.38300588726997,0.31360188126564,-1.10259473323822
230,2633830537,-29.72215843200684,-84.69644165039062,125.62410736083984,9.75787162780762,-0.54771292209625,0.79412645101547,-0.29608920216560,0.40361776947975,-1.07718694210052
231,2633847204,-29.72530174255371,-84.69108581542969,125.63114166259766,9.76568317413330,-0.54201793670654,0.76985895633698,0.09369124472141,0.37119200825691,-1.11529839038849
232,2633863871,-29.73285484313965,-84.68680572509766,125.63898468017578,9.78624343872070,-0.54433619976044,0.77791076898575,0.15333043038845,0.30591806769371,-1.11815440654755
233,2633880538,-29.72270202636719,-84.68227386474609,125.63078308105469,9.77969551086426,-0.52902275323868,0.77684956789017,0.03969968482852,0.37431678175926,-1.20573699474335
234,2633897205,-29.70504379272461,-84.67741394042969,125.60449218750000,9.75679874420166,-0.52400338649750,0.76673400402069,-0.59350383281708,0.44134521484375,-1.28379178047180
235,2633913872,-29.68668365478516,-84.67509460449219,125.57810974121094,9.76976585388184,-0.58764982223511,0.80848985910416,-0.20113013684750,0.29510951042175,-1.32906210422516
236,2633930539,-29.66692352294922,-84.67328643798828,125.55960083007812,9.75849819183350,-0.52819478511810,0.79529505968094,0.27847406268120,0.23997816443443,-1.31906020641327
237,2633947206,-29.66288375854492,-84.67351531982422,125.55185699462891,9.75997829437256,-0.55309832096100,0.81755208969116,-0.22140260040760,0.11811296641827,-1.34066474437714
238,2633963873,-29.64738273620605,-84.67549896240234,125.54148864746094,9.78068065643311,-0.54382067918777,0.83187282085419,0.41870364546776,0.03747138381004,-1.39217197895050
239,2633980540,-29.63372230529785,-84.67763519287109,125.53953552246094,9.76474761962891,-0.53410005569458,0.78716301918030,0.77372121810913,0.00176727620419,-1.36093723773956
240,2633997207,-29.61697769165039,-84.67667388916016,125.53890228271484,9.77614402770996,-0.51769191026688,0.77722048759460,1.04749536514282,0.15981043875217,-1.26221299171448
241,2634013874,-29.60153388977051,-84.67646026611328,125.52938079833984,9.78429985046387,-0.52311956882477,0.78255760669708,0.38595777750015,0.15006479620934,-1.32970249652863
242,2634030541,-29.56852149963379,-84.67439270019531,125.50914001464844,9.75590610504150,-0.54887628555298,0.80456376075745,0.65874582529068,0.27344119548798,-1.34478843212128
243,2634047208,-29.54181480407715,-84.67376708984375,125.50042724609375,9.73657512664795,-0.51129329204559,0.83795893192291,1.14523363113403,0.16985063254833,-1.30968618392944
244,2634063875,-29.53926467895508,-84.67513275146484,125.51425170898438,9.75549030303955,-0.52645498514175,0.77869427204132,0.91894519329071,0.00343210157007,-1.27295756340027
245,2634080542,-29.52185630798340,-84.67439270019531,125.50930023193359,9.79180240631104,-0.53875792026520,0.76836639642715,0.82474172115326,0.15758213400841,-1.29104018211365
246,2634097209,-29.48456001281738,-84.67380523681641,125.46907043457031,9.76379013061523,-0.51899254322052,0.75458562374115,0.02525412105024,0.24041359126568,-1.45921289920807
247,2634113876,-29.45286941528320,-84.67256164550781,125.43056488037109,9.74039363861084,-0.52289623022079,0.76601427793503,-0.28972443938255,0.27531090378761,-1.43662273883820
248,2634130543,-29.40935707092285,-84.67192840576172,125.38947296142578,9.75187206268311,-0.56435847282410,0.79999828338623,0.28985890746117,0.25205454230309,-1.46387469768524
249,2634147210,-29.38004875183105,-84.67292022705078,125.36676788330078,9.77256298065186,-0.52355450391769,0.77388405799866,0.33592340350151,0.12709023058414,-1.43790352344513
250,2634163877,-29.34904289245605,-84.67513275146484,125.33977508544922,9.75437450408936,-0.54287749528885,0.81466531753540,0.08133313059807,0.07782419025898,-1.50394582748413
251,2634180544,-29.34392356872559,-84.67991638183594,125.33241271972656,9.74343395233154,-0.51074641942978,0.80439633131027,-0.00591013068333,-0.12912002205849,-1.46285009384155
252,2634197211,-29.34478187561035,-84.68500518798828,125.33885955810547,9.76859855651855,-0.56623053550720,0.81255149841309,0.44832471013069,-0.17622178792953,-1.40159749984741
253,2634213878,-29.32800674438477,-84.69061279296875,125.32672119140625,9.77342033386230,-0.53945237398148,0.81813675165176,0.37050050497055,-0.14841918647289,-1.50835108757019
254,2634230545,-29.31174659729004,-84.69544982910156,125.31599426269531,9.76364803314209,-0.51838636398315,0.79205894470215,0.33384871482849,-0.12046292424202,-1.49160027503967
255,2634247212,-29.31498146057129,-84.70113372802734,125.31842803955078,9.77502441406250,-0.55954021215439,0.78677296638489,-0.06411499530077,-0.18907935917377,-1.44869911670685
256,2634263879,-29.32023620605469,-84.71020507812500,125.32758331298828,9.74943447113037,-0.53973728418350,0.81046545505524,0.26769116520882,-0.38623312115669,-1.50993907451630
257,2634280546,-29.33006858825684,-84.71865844726562,125.33860015869141,9.75929069519043,-0.52677881717682,0.79915624856949,0.34957489371300,-0.37242785096169,-1.46474552154541
258,2634297213,-29.32638359069824,-84.72575378417969,125.34458923339844,9.77674579620361,-0.51758354902267,0.77871984243393,0.60106599330902,-0.27533009648323,-1.47096931934357
259,2634313880,-29.31655502319336,-84.73009490966797,125.33390808105469,9.76274585723877,-0.49906370043755,0.75403612852097,-0.02976836264133,-0.08577053248882,-1.47014975547791
260,2634330547,-29.29238319396973,-84.73136138916016,125.31416320800781,9.77043247222900,-0.52115684747696,0.72868394851685,0.22956660389900,0.09650864452124,-1.43157708644867
261,2634347214,-29.30488586425781,-84.73274230957031,125.32207489013672,9.75551986694336,-0.50211912393570,0.78707522153854,-0.18517339229584,0.01430469285697,-1.28701889514923
262,2634363881,-29.29973983764648,-84.73210144042969,125.31042480468750,9.76398944854736,-0.52484619617462,0.79685336351395,-0.34229451417923,0.17150261998177,-1.32934391498566
263,2634380548,-29.31013107299805,-84.73404693603516,125.31910705566406,9.74444389343262,-0.53189635276794,0.84333741664886,-0.12812113761902,-0.01178824435920,-1.30846953392029
264,2634397215,-29.32091712951660,-84.73516082763672,125.33297729492188,9.77888298034668,-0.51421529054642,0.75945007801056,0.16704604029655,0.01682754419744,-1.26089406013489
265,2634413882,-29.33501434326172,-84.73902893066406,125.34427642822266,9.77225399017334,-0.54334157705307,0.77969920635223,-0.05789110437036,-0.13098973035812,-1.34700381755829
266,2634430549,-29.33420753479004,-84.74185943603516,125.34348297119141,9.75773143768311,-0.52722615003586,0.79798048734665,0.14846402406693,-0.04208807274699,-1.36867225170135
267,2634447216,-29.35094261169434,-84.74670410156250,125.35540771484375,9.78230667114258,-0.51465088129044,0.79501271247864,-0.40888753533363,-0.16956245899200,-1.38841962814331
268,2634463883,-29.37206459045410,-84.75193023681641,125.38608551025391,9.75436973571777,-0.57387369871140,0.78873419761658,0.59061604738235,-0.24665667116642,-1.29812204837799
269,2634480550,-29.39701080322266,-84.75865173339844,125.41654968261719,9.75734901428223,-0.48580747842789,0.76878494024277,0.25191369652748,-0.31268626451492,-1.34742653369904
270,2634497217,-29.42395973205566,-84.76396942138672,125.43991088867188,9.78264713287354,-0.53837096691132,0.75332599878311,-0.23853747546673,-0.23948515951633,-1.34528779983521
271,2634513884,-29.44616889953613,-84.76801300048828,125.46308898925781,9.75790214538574,-0.51292765140533,0.78362166881561,-0.04655748233199,-0.14932844042778,-1.30498623847961
272,2634530551,-29.47025871276855,-84.77070617675781,125.48475646972656,9.75175666809082,-0.52845835685730,0.80058991909027,-0.12119290232658,-0.09403062611818,-1.26952540874481
273,2634547218,-29.49331474304199,-84.77355957031250,125.50967407226562,9.73716068267822,-0.51488804817200,0.77722454071045,0.06236691772938,-0.09771884977818,-1.25939559936523
274,2634563885,-29.51185035705566,-84.77846527099609,125.52782440185547,9.76915931701660,-0.54296684265137,0.77533280849457,0.01039875671268,-0.20040015876293,-1.35157573223114
275,2634580552,-29.49986457824707,-84.78297424316406,125.50919342041016,9.79676914215088,-0.51294636726379,0.76556509733200,-0.31476086378098,-0.07512845098972,-1.50832557678223
276,2634597219,-29.48835945129395,-84.78466033935547,125.48902130126953,9.75832939147949,-0.55040210485458,0.77325183153152,-0.44108268618584,0.07367493212223,-1.43404877185822
277,2634613886,-29.46104812622070,-84.78688049316406,125.45980834960938,9.75674533843994,-0.54754352569580,0.79594880342484,0.04834397137165,0.06624724715948,-1.48488974571228
278,2634630553,-29.44984054565430,-84.78977966308594,125.45232391357422,9.78355216979980,-0.49718520045280,0.76856178045273,0.21660661697388,-0.01563015021384,-1.41321277618408
279,2634647220,-29.42513465881348,-84.79169464111328,125.42494964599609,9.78401470184326,-0.53095018863678,0.75198554992676,-0.17231583595276,0.07663319259882,-1.48661875724792
280,2634663887,-29.38886642456055,-84.79406738281250,125.38015747070312,9.75297164916992,-0.48716118931770,0.75956887006760,-0.15779344737530,0.10110612958670,-1.54287695884705
281,2634680554,-29.35766220092773,-84.79586791992188,125.33747100830078,9.74354362487793,-0.54445600509644,0.73795866966248,-0.81926703453064,0.13399283587933,-1.56305992603302
282,2634697221,-29.30860137939453,-84.79813385009766,125.29022216796875,9.76943206787109,-0.56651484966278,0.77146333456039,0.09104034304619,0.11767755448818,-1.58845484256744
283,2634713888,-29.25731277465820,-84.80039215087891,125.23815917968750,9.76925373077393,-0.52603363990784,0.81394010782242,0.07660758495331,0.12627062201500,-1.59796988964081
284,2634730555,-29.24230384826660,-84.80721282958984,125.21517944335938,9.74999141693115,-0.49938631057739,0.78616875410080,-0.39842477440834,-0.18754258751869,-1.59520375728607
285,2634747222,-29.21094703674316,-84.81367492675781,125.19234466552734,9.76375579833984,-0.49123570322990,0.76168876886368,0.61397480964661,-0.16908861696720,-1.58283269405365
286,2634763889,-29.17776679992676,-84.82055664062500,125.16468048095703,9.76021766662598,-0.53323465585709,0.76719653606415,0.46061879396439,-0.17811709642410,-1.61413133144379
287,2634780556,-29.16440200805664,-84.82721710205078,125.14432525634766,9.75286483764648,-0.49030703306198,0.77476429939270,-0.00949590932578,-0.20316632091999,-1.55225121974945
288,2634797223,-29.14031219482422,-84.83589935302734,125.12338256835938,9.72696685791016,-0.53186202049255,0.74922710657120,0.08732649683952,-0.28601059317589,-1.65556001663208
289,2634813890,-29.10807800292969,-84.84542846679688,125.08990478515625,9.77536010742188,-0.53006911277771,0.78042513132095,0.35926938056946,-0.31885892152786,-1.69533669948578
290,2634830557,-29.07521820068359,-84.85463714599609,125.06735229492188,9.77832412719727,-0.48760074377060,0.73815041780472,0.67751991748810,-0.31290400028229,-1.66247558593750
291,2634847224,-29.04475212097168,-84.86363220214844,125.03124237060547,9.75438308715820,-0.48014360666275,0.75687795877457,-0.29288765788078,-0.26946482062340,-1.72401010990143
292,2634863891,-29.01065444946289,-84.87042999267578,124.99667358398438,9.74592304229736,-0.51347225904465,0.72265344858170,0.01167939044535,-0.14858567714691,-1.64709496498108
293,2634880558,-28.95192909240723,-84.87570190429688,124.93527984619141,9.76521015167236,-0.48441141843796,0.74627315998077,-0.09833356738091,-0.01058444753289,-1.73238551616669
294,2634897225,-28.90787124633789,-84.88021850585938,124.88342285156250,9.77268791198730,-0.48189231753349,0.74414747953415,-0.45350489020348,0.01379244029522,-1.66396117210388
295,2634913892,-28.86002540588379,-84.88565063476562,124.82740783691406,9.75172519683838,-0.48640015721321,0.75597637891769,-0.33367583155632,-0.04129407182336,-1.70604264736176
296,2634930559,-28.82604789733887,-84.89270019531250,124.79020690917969,9.74870395660400,-0.49078100919724,0.74992144107819,-0.18589058518410,-0.16310808062553,-1.67006969451904
297,2634947226,-28.79005622863770,-84.90026855468750,124.75321197509766,9.75102043151855,-0.49524328112602,0.74674993753433,-0.13216792047024,-0.18777307868004,-1.69308257102966
298,2634963893,-28.75304031372070,-84.90691375732422,124.71510314941406,9.75934219360352,-0.47884428501129,0.75320893526077,0.05227552354336,-0.14369367063046,-1.65221774578094
299,2634980560,-28.72063827514648,-84.91431427001953,124.67069244384766,9.78144264221191,-0.53612023591995,0.75326186418533,-0.60369777679443,-0.16896058619022,-1.70659327507019
300,2634997227,-28.65805435180664,-84.92259979248047,124.60625457763672,9.77693843841553,-0.52660787105560,0.80351185798645,0.08006529510021,-0.16637367010117,-1.81900751590729
301,2635013894,-28.61307525634766,-84.93121337890625,124.54699707031250,9.76545524597168,-0.46403792500496,0.75943619012833,-0.48699346184731,-0.20305106043816,-1.78608226776123
302,2635030561,-28.56741523742676,-84.94170379638672,124.48848724365234,9.78977394104004,-0.56108945608139,0.71672546863556,-0.66037863492966,-0.29505184292793,-1.85818207263947
303,2635047228,-28.49463653564453,-84.94681549072266,124.41376495361328,9.75058078765869,-0.44366404414177,0.74193108081818,-0.00827930588275,0.02903199940920,-1.78076791763306
304,2635063895,-28.45932388305664,-84.95282745361328,124.36151885986328,9.75079536437988,-0.49926117062569,0.75369137525558,-0.96775650978088,-0.06985222548246,-1.70125281810760
305,2635080562,-28.40500259399414,-84.95815277099609,124.30877685546875,9.75301933288574,-0.50410318374634,0.76382994651794,0.07758086174726,-0.04119161888957,-1.69557988643646
306,2635097229,-28.35523796081543,-84.96655273437500,124.25398254394531,9.77185153961182,-0.48698654770851,0.79007220268250,-0.14899547398090,-0.20051541924477,-1.77633666992188
307,2635113896,-28.28757667541504,-84.97515869140625,124.17919158935547,9.76251602172852,-0.51203089952469,0.74857854843140,-0.24885939061642,-0.16295439004898,-1.87311434745789
308,2635130563,-28.21574783325195,-84.98530578613281,124.09838104248047,9.79756450653076,-0.53534442186356,0.76363646984100,-0.33943867683411,-0.22762645781040,-1.93992507457733
309,2635147230,-28.11449432373047,-84.99234771728516,124.00275421142578,9.77164840698242,-0.42468246817589,0.77011287212372,0.35885950922966,-0.02158510312438,-1.93382894992828
310,2635163897,-28.04292869567871,-85.00053405761719,123.92363739013672,9.75815486907959,-0.46923992037773,0.73294168710709,-0.39298200607300,-0.12668679654598,-1.88594603538513
311,2635180564,-27.94638442993164,-85.01045227050781,123.83158874511719,9.78351020812988,-0.50580644607544,0.75907492637634,0.37257507443428,-0.19188390672207,-1.99123990535736
312,2635197231,-27.83552932739258,-85.01929473876953,123.71269226074219,9.78792953491211,-0.47555160522461,0.75258636474609,-0.25930935144424,-0.07140179723501,-2.07295727729797
313,2635213898,-27.70938873291016,-85.02658081054688,123.56107330322266,9.74486255645752,-0.47175520658493,0.71003174781799,-1.32930541038513,0.08359985053539,-2.18598628044128
314,2635230565,-27.57942581176758,-85.03540802001953,123.40979766845703,9.75252342224121,-0.50065660476685,0.74407935142517,-1.21945273876190,0.00913092680275,-2.23349785804749
315,2635247232,-27.47117805480957,-85.04204559326172,123.29249572753906,9.72955131530762,-0.39979639649391,0.79449689388275,-0.53992205858231,0.03507659211755,-2.02328181266785
316,2635263899,-27.38195419311523,-85.05133819580078,123.19598388671875,9.78215503692627,-0.49728828668594,0.74466300010681,-0.44787001609802,-0.14948210120201,-1.99535083770752
317,2635280566,-27.24353408813477,-85.06374359130859,123.06584167480469,9.77983093261719,-0.47248247265816,0.77975338697433,0.37166592478752,-0.22174836695194,-2.23919677734375
318,2635297233,-27.10898208618164,-85.07662200927734,122.90955352783203,9.76011943817139,-0.44758158922195,0.78580981492996,-0.82971704006195,-0.22450172901154,-2.33059573173523
319,2635313900,-26.97112274169922,-85.09096527099609,122.73392486572266,9.78676223754883,-0.52479904890060,0.74371844530106,-2.03452563285828,-0.25425082445145,-2.47651100158691
320,2635330567,-26.79928588867188,-85.10591125488281,122.55386352539062,9.76834201812744,-0.47052150964737,0.74496841430664,-0.34803178906441,-0.26552045345306,-2.51135730743408
321,2635347234,-26.63890266418457,-85.12532806396484,122.37500000000000,9.77353477478027,-0.45282620191574,0.74883413314819,-0.97404462099075,-0.51940637826920,-2.62719035148621
322,2635363901,-26.47456741333008,-85.14780426025391,122.19174194335938,9.76468563079834,-0.44082352519035,0.80809479951859,-0.97163701057434,-0.67547732591629,-2.71848726272583
323,2635380568,-26.29992485046387,-85.17298126220703,122.00570678710938,9.75207805633545,-0.50539934635162,0.80479884147644,-0.56296068429947,-0.82556772232056,-2.80405902862549
324,2635397235,-26.10690879821777,-85.20050048828125,121.81446838378906,9.73620891571045,-0.43434742093086,0.71586638689041,0.05623268708587,-0.93621468544006,-2.89271759986877
325,2635413902,-25.91331481933594,-85.23408508300781,121.62128448486328,9.76685047149658,-0.42091688513756,0.68814170360565,0.11743423342705,-1.26937174797058,-3.04010581970215
326,2635430569,-25.73319435119629,-85.27130126953125,121.40967559814453,9.73175716400146,-0.32047909498215,0.71753448247910,-1.65915870666504,-1.44155311584473,-3.19717574119568
327,2635447236,-25.54052162170410,-85.31061553955078,121.17047882080078,9.72809982299805,-0.37942925095558,0.75086212158203,-2.58617186546326,-1.50096178054810,-3.36271023750305
328,2635463903,-25.33191108703613,-85.35291290283203,120.92185974121094,9.78470897674561,-0.43297782540321,0.74056279659271,-2.39645886421204,-1.64406013488770,-3.47918486595154
329,2635480570,-25.10191535949707,-85.39223480224609,120.65623474121094,9.77986526489258,-0.43204030394554,0.68335902690887,-2.09981250762939,-1.47659134864807,-3.46868324279785
330,2635497237,-24.82784843444824,-85.43481445312500,120.33123779296875,9.78072357177734,-0.38818520307541,0.70423209667206,-2.84893274307251,-1.52999389171600,-3.76891541481018
331,2635513904,-24.52698707580566,-85.47605895996094,119.96504974365234,9.76816558837891,-0.43995618820190,0.72229409217834,-3.66873121261597,-1.41144549846649,-3.89802908897400
332,2635530571,-24.20115280151367,-85.52801513671875,119.56632995605469,9.72817325592041,-0.54506742954254,0.75983774662018,-3.77031183242798,-1.95136117935181,-4.24692487716675
333,2635547238,-23.80443000793457,-85.59020233154297,119.14751434326172,9.72294998168945,-0.37776219844818,0.84478408098221,-1.22018289566040,-2.49698877334595,-4.59057092666626
334,2635563905,-23.44044876098633,-85.66460418701172,118.75288391113281,9.73542881011963,-0.48170292377472,0.76022225618362,-1.73830223083496,-3.23704242706299,-4.73250389099121
335,2635580572,-23.01429176330566,-85.75195312500000,118.31158447265625,9.76497459411621,-0.41603413224220,0.80160003900528,-0.82771933078766,-3.88759207725525,-5.17384910583496
336,2635597239,-22.53484725952148,-85.84701538085938,117.81702423095703,9.73556613922119,-0.40416803956032,0.74949419498444,-0.76240700483322,-4.28268146514893,-5.49989986419678
337,2635613906,-21.98241806030273,-85.94556427001953,117.24779510498047,9.78373527526855,-0.37652361392975,0.66732484102249,-1.04144442081451,-4.40640258789062,-5.80486917495728
338,2635630573,-21.36837196350098,-86.04820251464844,116.60915374755859,9.79696083068848,-0.36098447442055,0.64700317382812,-1.35053849220276,-4.59811401367188,-6.05397891998291
339,2635647240,-20.71336555480957,-86.15152740478516,115.92959594726562,9.76356506347656,-0.37785375118256,0.62008005380630,-1.30277085304260,-4.64293622970581,-6.10204076766968
340,2635663907,-19.99167251586914,-86.25895690917969,115.19452667236328,9.74478721618652,-0.35510063171387,0.64978283643723,-0.65214425325394,-4.88863897323608,-6.27426052093506
341,2635680574,-19.16274833679199,-86.36783599853516,114.36693572998047,9.76959037780762,-0.35369712114334,0.61678391695023,0.31014421582222,-4.92721128463745,-6.48355484008789
342,2635697241,-18.21866989135742,-86.48041534423828,113.40876770019531,9.78928089141846,-0.23823051154613,0.62620186805725,-0.39829674363136,-5.10301685333252,-6.84354114532471
343,2635713908,-17.14385414123535,-86.59705352783203,112.30233001708984,9.79830646514893,-0.27128028869629,0.61593943834305,-1.59291195869446,-5.29530572891235,-7.23960542678833
344,2635730575,-15.94002628326416,-86.71866607666016,111.07150268554688,9.74248313903809,-0.27776733040810,0.58260983228683,-1.37300121784210,-5.59757423400879,-7.50479936599731
345,2635747242,-14.68624019622803,-86.85203552246094,109.78433990478516,9.72332668304443,-0.19482421875000,0.62116771936417,-1.73014497756958,-6.38499879837036,-7.58775901794434
346,2635763909,-13.30245304107666,-86.99567413330078,108.36892700195312,9.70844268798828,-0.20402619242668,0.61968797445297,-1.63304722309113,-7.08654356002808,-7.81618595123291
347,2635780576,-11.85585403442383,-87.15119171142578,106.90703582763672,9.69177532196045,-0.19969287514687,0.57060211896896,-0.63662308454514,-7.91964817047119,-7.70694828033447
348,2635797243,-10.23641014099121,-87.32248687744141,105.29582214355469,9.68412113189697,-0.17340365052223,0.57351917028427,0.89452397823334,-8.96439170837402,-7.84842014312744
349,2635813910,-8.41873168945312,-87.50534820556641,103.50355529785156,9.68880844116211,-0.12267370522022,0.53540694713593,1.25771236419678,-9.78873729705811,-7.91301584243774
350,2635830577,-6.34852361679077,-87.69641113281250,101.43769073486328,9.72406482696533,-0.14866521954536,0.49146765470505,0.62356716394424,-10.42306232452393,-7.95353507995605
351,2635847244,-3.90112996101379,-87.89030456542969,98.99878692626953,9.74686050415039,-0.11072179675102,0.43578702211380,0.80204945802689,-10.79216861724854,-8.01566123962402
352,2635863911,-0.98888844251633,-88.08756256103516,96.09327697753906,9.75879573822021,-0.07677198201418,0.41451752185822,1.01857924461365,-11.19117546081543,-8.00437736511230
353,2635880578,2.52340006828308,-88.28491210937500,92.57906341552734,9.77260971069336,-0.03724398463964,0.38800522685051,0.50343072414398,-11.55900001525879,-7.95845365524292
354,2635897245,6.96110916137695,-88.48949432373047,88.11084747314453,9.70976066589355,0.07466159015894,0.39065220952034,-0.98818355798721,-12.36207485198975,-8.04443550109863
355,2635913912,12.89652729034424,-88.69944763183594,82.13272857666016,9.76533794403076,-0.12439441680908,0.39529642462730,-1.41343152523041,-13.43698978424072,-8.18758583068848
356,2635930579,21.23819351196289,-88.91718292236328,73.76449584960938,9.74655342102051,-0.07938721030951,0.48824098706245,-0.08794768154621,-14.90756893157959,-8.17903232574463
357,2635947246,34.33802032470703,-89.13883972167969,60.65191650390625,9.63802051544189,-0.01451154239476,0.45416417717934,1.32305121421814,-17.38745307922363,-8.35094833374023
358,2635963913,56.51021575927734,-89.32363128662109,38.45314025878906,9.52662372589111,0.03969720378518,0.55196583271027,0.25173488259315,-20.98524475097656,-8.45666885375977
359,2635980580,88.49420166015625,-89.33441925048828,6.49682283401489,9.64266681671143,-0.08901970833540,0.66083490848541,-0.02851340547204,-24.72044181823730,-8.55913829803467
360,2635997247,116.87926483154297,-89.07423400878906,-21.72485733032227,9.81294441223145,-0.04667237401009,0.48461681604385,5.70168638229370,-28.39896965026855,-8.64401149749756
361,2636013914,134.34512329101562,-88.62940979003906,-39.15924453735352,9.84164524078369,0.34464693069458,0.45103424787521,0.03615247085690,-32.40942382812500,-8.56834602355957
362,2636030581,144.69076538085938,-88.07359313964844,-49.58280563354492,9.94208621978760,0.33303314447403,0.45090112090111,-5.26755332946777,-36.42047119140625,-8.11213970184326
363,2636047248,151.35627746582031,-87.46256256103516,-56.43059921264648,10.18274974822998,0.39394724369049,0.36371421813965,-10.71022510528564,-39.03692626953125,-6.56940889358521
364,2636063915,156.03298950195312,-86.80236816406250,-61.37183761596680,10.28227806091309,0.55582547187805,0.07302422076464,-15.66633033752441,-41.66415786743164,-5.22836446762085
365,2636080582,159.29740905761719,-86.09265136718750,-64.96637725830078,10.27904224395752,0.55643838644028,-0.01963057368994,-19.52424240112305,-44.12261962890625,-4.91466331481934
366,2636097249,161.63490295410156,-85.35966491699219,-67.70151519775391,10.49758720397949,0.47273999452591,-0.23934227228165,-23.31397247314453,-45.24842071533203,-4.35266780853271
367,2636113916,163.25715637207031,-84.60370635986328,-69.79194641113281,10.83572101593018,0.77965831756592,-0.26731169223785,-27.55100059509277,-46.30963897705078,-4.43168878555298
368,2636130583,164.19778442382812,-83.82917785644531,-71.34860992431641,11.02876567840576,0.76123511791229,0.06674503535032,-36.40535736083984,-47.03330230712891,-5.22508811950684
369,2636147250,164.66683959960938,-83.06195068359375,-72.62432861328125,10.86466312408447,1.07493233680725,0.01626443862915,-47.81593322753906,-46.50996017456055,-5.19240999221802
370,2636163917,164.81700134277344,-82.21237945556641,-73.56095886230469,10.72480773925781,0.90938484668732,-0.35216307640076,-46.64668273925781,-50.89757919311523,-7.72856426239014
371,2636180584,164.79707336425781,-81.36669158935547,-74.14759826660156,10.71520709991455,1.01225197315216,-0.24888405203819,-35.96524810791016,-50.12309265136719,-9.71465206146240
372,2636197251,164.59472656250000,-80.58448028564453,-74.51371002197266,10.58063507080078,0.73158591985703,-0.39927968382835,-33.77388763427734,-46.02825164794922,-10.33696556091309
373,2636213918,164.33569335937500,-79.97654724121094,-74.84021759033203,10.33589076995850,0.29155716300011,-0.82167488336563,-34.80474472045898,-35.90541076660156,-7.85971736907959
374,2636230585,164.36067199707031,-79.27738189697266,-75.27077484130859,9.58762836456299,0.31624457240105,-1.61113202571869,-23.86102104187012,-41.51403045654297,-8.11375427246094
375,2636247252,164.37901306152344,-78.52915191650391,-75.61492919921875,9.41925621032715,0.19065809249878,-1.71330261230469,-19.11915206909180,-44.17961883544922,-9.54579830169678
376,2636263919,164.37826538085938,-77.83193206787109,-75.92510986328125,9.27260589599609,-0.22533717751503,-1.65203464031219,-18.22006797790527,-41.19208908081055,-8.87247848510742
377,2636280586,164.44114685058594,-77.24909210205078,-76.38722229003906,8.65578556060791,-0.53718876838684,-1.83660972118378,-23.26610565185547,-35.17813873291016,-4.91613960266113
378,2636297253,164.26695251464844,-76.89944458007812,-76.85437774658203,8.11343193054199,-0.33982115983963,0.70138514041901,-37.73261260986328,-21.77947425842285,-0.90266788005829
379,2636313920,163.70184326171875,-76.95845031738281,-77.04856109619141,7.36966848373413,0.13797248899937,2.93624591827393,-45.23156738281250,2.76562809944153,2.22292947769165
380,2636330587,162.75744628906250,-77.44921875000000,-76.97859954833984,7.36834001541138,-0.42156350612640,2.02179813385010,-52.54788970947266,28.54246520996094,6.31635141372681
381,2636347254,161.28141784667969,-78.35130310058594,-76.35837554931641,8.15884017944336,0.42677876353264,2.65996551513672,-52.15526580810547,53.94556045532227,7.98878765106201
382,2636363921,159.06588745117188,-79.59877014160156,-74.95353698730469,8.28170776367188,0.51812487840652,2.30786228179932,-50.17929077148438,75.91207122802734,8.90912723541260
383,2636380588,155.73304748535156,-81.10256195068359,-72.38589477539062,8.73215961456299,0.43389284610748,1.77096283435822,-48.06068038940430,93.21035003662109,9.49037456512451
384,2636397255,150.58984375000000,-82.78811645507812,-67.74610900878906,9.39109420776367,0.12221743166447,1.59573030471802,-32.88791275024414,107.75600433349609,9.43998527526855
385,2636413922,141.79447937011719,-84.55842590332031,-59.04358291625977,9.87811183929443,0.10806977748871,1.43499755859375,-8.57337665557861,119.94302368164062,9.65187263488770
386,2636430589,124.10835266113281,-86.20542907714844,-41.19983291625977,10.22953987121582,0.28900828957558,0.95897078514099,6.57453060150146,129.41616821289062,11.13146781921387
387,2636447256,87.59790802001953,-87.11499786376953,-4.38031578063965,10.65621185302734,0.46125283837318,0.54292255640030,16.40108489990234,136.74037170410156,13.29119777679443
388,2636463923,46.50548934936523,-86.41909027099609,37.12382888793945,10.88642120361328,0.30772438645363,0.35373237729073,21.35719108581543,142.73973083496094,16.96887016296387
389,2636480590,24.77224349975586,-84.61133575439453,59.37703323364258,11.14718055725098,-0.19072741270065,0.08676497638226,26.71329498291016,146.91015625000000,21.60037422180176
390,2636497257,14.21051979064941,-82.42638397216797,70.60115051269531,11.53061962127686,-0.55130916833878,-0.19185617566109,35.22465896606445,148.19680786132812,26.92143249511719
391,2636513924,8.40151786804199,-80.15026092529297,77.21239471435547,11.62880134582520,-0.63497668504715,-0.40832740068436,43.45029067993164,145.39581298828125,30.93498229980469
392,2636530591,5.12175464630127,-77.93260192871094,81.45865631103516,11.44461345672607,-0.11399616301060,-0.46122857928276,53.30272674560547,137.73236083984375,31.16485977172852
393,2636547258,3.07549023628235,-75.85789489746094,84.32878112792969,11.34953022003174,-0.34894534945488,-0.34721660614014,44.93609619140625,126.93589782714844,28.76710128784180
394,2636563925,2.04223394393921,-73.94813537597656,86.34834289550781,11.02406215667725,-0.34071135520935,-0.16453932225704,55.00057220458984,115.89895629882812,25.12484359741211
395,2636580592,1.62120187282562,-72.22834777832031,87.80496215820312,10.25515937805176,0.46009862422943,0.17906010150909,58.36848831176758,103.98812103271484,20.82151222229004
396,2636597259,1.26115500926971,-70.75537872314453,88.88314056396484,9.83346652984619,1.39656817913055,0.45579627156258,39.76547241210938,88.92450714111328,17.01558685302734
397,2636613926,0.54146963357925,-69.54888153076172,89.82022094726562,9.23523902893066,1.87511920928955,0.14153911173344,9.72696208953857,72.74797058105469,16.65915298461914
398,2636630593,-0.83492052555084,-68.69892120361328,90.59882354736328,8.53069591522217,2.71286487579346,0.05111832544208,-38.90517807006836,51.03175735473633,15.49219417572021
399,2636647260,-2.76452302932739,-68.31933593750000,91.14588165283203,8.05721378326416,0.75559759140015,-0.14364820718765,-85.20247650146484,22.47656250000000,11.45144844055176
400,2636663927,-4.18944406509399,-68.33110046386719,91.43724822998047,8.57007789611816,-0.94475138187408,0.26336988806725,-69.21331024169922,-0.99928998947144,5.12149953842163
401,2636680594,-5.00042581558228,-68.58309936523438,91.58216094970703,9.00094318389893,-0.66405326128006,1.04820013046265,-40.53096389770508,-15.22333431243896,0.68929344415665
402,2636697261,-5.34893655776978,-68.97010040283203,91.65906524658203,9.03463840484619,-0.30882206559181,1.47101747989655,-16.56487274169922,-23.16584777832031,-1.71134901046753
403,2636713928,-5.25984382629395,-69.42794799804688,91.63648986816406,9.26761913299561,0.24837180972099,1.85432398319244,4.12342548370361,-27.19946289062500,-4.30099201202393
404,2636730595,-4.89559936523438,-69.88801574707031,91.54157257080078,9.53025627136230,0.75063145160675,2.07062697410583,16.56196212768555,-27.20688819885254,-5.69501113891602
405,2636747262,-4.47990703582764,-70.30792236328125,91.44091033935547,9.61366844177246,0.60763853788376,2.26690912246704,19.30939674377441,-24.82862472534180,-5.38764429092407
406,2636763929,-4.08959245681763,-70.66640472412109,91.39066314697266,9.53019428253174,0.76802837848663,2.49785518646240,20.62079811096191,-21.26026535034180,-3.89103579521179
407,2636780596,-3.84657645225525,-70.96877288818359,91.39411926269531,9.52942848205566,0.59415030479431,2.65234017372131,14.82179069519043,-17.98656082153320,-2.46465730667114
408,2636797263,-3.77462172508240,-71.22431182861328,91.46986389160156,9.54965114593506,0.28320857882500,2.82343935966492,8.65494918823242,-15.28503799438477,-0.82841157913208
409,2636813930,-3.85989284515381,-71.45240020751953,91.61980438232422,9.55859851837158,-0.02030096203089,2.90996980667114,3.45203065872192,-13.72725677490234,0.68570369482040
410,2636830597,-4.02879428863525,-71.66202545166016,91.83132171630859,9.63258934020996,-0.12216088175774,2.97371077537537,1.94137966632843,-12.71346759796143,1.86291515827179
411,2636847264,-4.24395418167114,-71.87294006347656,92.05837249755859,9.59665966033936,-0.06431043893099,2.92907524108887,0.06893662363291,-12.81440639495850,2.06154203414917
412,2636863931,-4.54898309707642,-72.11180114746094,92.28589630126953,9.51981544494629,0.09482041001320,2.89714193344116,-5.28096532821655,-14.49817657470703,1.83383238315582
413,2636880598,-4.94124841690063,-72.37909698486328,92.52888488769531,9.65844917297363,0.14694288372993,2.98494887351990,-9.60930061340332,-16.23297119140625,1.82940220832825
414,2636897265,-5.39324617385864,-72.66845703125000,92.79322052001953,9.63803577423096,0.46054896712303,3.08389520645142,-11.95407295227051,-17.60386085510254,1.90512681007385
415,2636913932,-5.88423824310303,-72.97724914550781,93.02716064453125,9.66788864135742,0.64347463846207,3.15319705009460,-16.01091957092285,-18.72813987731934,1.03066992759705
416,2636930599,-6.33615875244141,-73.30719757080078,93.19479370117188,9.69137191772461,0.61891371011734,3.18705701828003,-17.44966125488281,-19.87588310241699,-0.47931087017059
417,2636947266,-6.71841096878052,-73.65954589843750,93.29279327392578,9.64854145050049,0.60133427381516,3.25386595726013,-17.25829696655273,-21.07791709899902,-2.01369476318359
418,2636963933,-6.99303627014160,-74.04219818115234,93.30712127685547,9.59717750549316,0.51190245151520,3.27660393714905,-15.61216831207275,-22.70522499084473,-3.77511096000671
419,2636980600,-7.18715190887451,-74.45597839355469,93.24008178710938,9.42960166931152,0.47349828481674,3.32586956024170,-15.47506713867188,-24.38088607788086,-5.41776180267334
420,2636997267,-7.31161451339722,-74.88222503662109,93.11044311523438,9.39183044433594,0.48731854557991,3.39570140838623,-14.92855548858643,-24.99313354492188,-6.53713035583496
421,2637013934,-7.49579477310181,-75.32195281982422,92.97242736816406,9.21297073364258,0.66126543283463,3.43615007400513,-19.01235961914062,-25.77103805541992,-6.77890634536743
422,2637030601,-7.78357458114624,-75.78032684326172,92.83142089843750,8.89829540252686,0.63092756271362,3.44654130935669,-25.41688537597656,-26.85522270202637,-7.01501464843750
423,2637047268,-8.07596397399902,-76.24940490722656,92.66475677490234,8.47863864898682,0.51759850978851,3.48096776008606,-27.20354080200195,-27.42200851440430,-7.54229640960693
424,2637063935,-8.30204486846924,-76.72630310058594,92.46471405029297,7.87881946563721,0.36218723654747,3.47168087959290,-25.19328880310059,-27.80518341064453,-8.11657238006592
425,2637080602,-8.42590999603271,-77.22031402587891,92.32540130615234,7.09437704086304,0.24216726422310,3.30765962600708,-15.53200531005859,-28.93414688110352,-7.43990993499756
426,2637097269,-8.26595783233643,-77.75308227539062,92.21354675292969,5.73021316528320,0.16962514817715,3.21285223960876,3.09487056732178,-31.29591941833496,-7.34027481079102
427,2637113936,-7.61892414093018,-78.35015106201172,92.06710052490234,3.02336096763611,0.32668879628181,2.97296404838562,30.28369331359863,-35.10361099243164,-8.01118278503418
428,2637130603,-6.28874492645264,-79.03788757324219,91.82926940917969,-0.62060403823853,1.03468525409698,2.76812386512756,65.88256835937500,-40.49532699584961,-9.03229904174805
429,2637147270,-4.35484075546265,-79.85359191894531,91.31398773193359,-2.07223606109619,2.94194436073303,3.19726109504700,85.71122741699219,-48.08115005493164,-11.43919849395752
430,2637163937,-1.92775559425354,-80.79093933105469,90.09709167480469,-0.50838249921799,2.70120477676392,3.46453404426575,73.74446105957031,-55.34001922607422,-16.59799766540527
431,2637180604,1.51025152206421,-81.77863311767578,87.87680816650391,2.11982727050781,1.50041794776917,3.10355162620544,74.72044372558594,-59.02735519409180,-21.67074203491211
432,2637197271,5.79850864410400,-82.78359985351562,84.74945068359375,3.30143976211548,1.34640908241272,2.22938060760498,71.51443481445312,-61.59218215942383,-22.58959197998047
433,2637213938,10.32304954528809,-83.82498931884766,80.74719238281250,2.81377816200256,1.78640139102936,1.88748681545258,33.17601013183594,-65.56213378906250,-20.26621246337891
434,2637230605,14.92197608947754,-84.83419036865234,75.72497558593750,3.28286600112915,-0.12665505707264,1.68746984004974,-23.66724967956543,-65.32191467285156,-17.16715240478516
435,2637247272,19.30559539794922,-85.69316101074219,70.73885345458984,2.74249100685120,-1.94412636756897,1.65703570842743,-34.81182479858398,-56.23685455322266,-9.82583332061768
436,2637263939,22.51209068298340,-86.33104705810547,66.73648834228516,1.95365655422211,-1.21511197090149,3.04654502868652,-46.87690353393555,-41.47192382812500,-3.33074069023132
437,2637280606,24.90408897399902,-86.72846221923828,63.19653701782227,1.35354351997375,-1.27092754840851,4.29043722152710,-68.21992492675781,-26.79135894775391,-3.57999968528748
438,2637297273,27.52983856201172,-86.90054321289062,59.36141204833984,1.98768508434296,-2.00938129425049,5.40009880065918,-72.05413055419922,-14.81420421600342,-8.28922939300537
439,2637313940,31.85346603393555,-86.93586730957031,54.04662322998047,2.72995257377625,-3.97733831405640,6.62339448928833,-58.90332794189453,-10.31037139892578,-15.24157428741455
440,2637330607,38.46327209472656,-86.99436950683594,47.17969131469727,2.27040576934814,-8.14624500274658,7.74457645416260,-14.75103664398193,-15.45860385894775,-17.24055862426758
441,2637347274,42.41923904418945,-86.74587249755859,44.67436599731445,0.47149324417114,-9.77730369567871,9.39827632904053,87.18964385986328,5.94014835357666,-17.18019104003906
442,2637363941,42.50166702270508,-86.91930389404297,47.37051773071289,3.78099799156189,-9.16628074645996,-15.76669311523438,166.64317321777344,-1.49211847782135,12.34392261505127
443,2637380608,155.60351562500000,-85.41747283935547,-62.51229476928711,-7.82371616363525,-8.97733974456787,-118.55070495605469,197.31195068359375,-381.86190795898438,7.51478147506714
444,2637397275,175.48303222656250,-81.29290771484375,-80.08492279052734,39.23355865478516,-18.14978218078613,39.44465637207031,144.69264221191406,-266.63461303710938,55.69234848022461
445,2637413942,-179.58691406250000,-74.98693847656250,-82.50290679931641,102.77962493896484,21.49095726013184,11.53861236572266,153.64071655273438,-378.79602050781250,14.93460845947266
446,2637430609,175.42102050781250,-70.74523925781250,-78.46640777587891,-13.33162117004395,40.18648147583008,14.58521652221680,-67.77533721923828,-251.41619873046875,-81.88392639160156
447,2637447276,178.72570800781250,-67.82283782958984,-78.76030731201172,-18.69649696350098,-28.17038154602051,-32.51940536499023,181.78195190429688,-175.31855773925781,-3.98832631111145
448,2637463943,172.38444519042969,-64.42198944091797,-79.50731658935547,2.92831373214722,4.00181865692139,-8.02855110168457,-421.27713012695312,-204.83148193359375,0.99381130933762
449,2637480610,175.51696777343750,-62.83406066894531,-77.31504058837891,26.34223747253418,6.02354001998901,-2.54392671585083,305.79785156250000,-88.48511505126953,-69.44464111328125
450,2637497277,172.65670776367188,-61.67900085449219,-76.99433135986328,2.64754986763000,-5.08076190948486,-11.17984294891357,-154.53800964355469,-67.90436553955078,-17.32244300842285
451,2637513944,173.30566406250000,-60.78929901123047,-76.53563690185547,7.79434251785278,11.91067409515381,-4.09264802932739,63.08465957641602,-51.25484466552734,-20.94272232055664
452,2637530611,172.82398986816406,-60.04565429687500,-76.42449188232422,13.65032672882080,-1.18504297733307,-7.28621959686279,-23.06940460205078,-43.78649520874023,-9.91925430297852
453,2637547278,173.06050109863281,-59.63843917846680,-76.81538391113281,8.39528656005859,2.44096803665161,-6.14649581909180,-6.06080627441406,-25.58919715881348,7.42929077148438
454,2637563945,173.42495727539062,-59.51794052124023,-77.30723571777344,6.52451324462891,3.99892592430115,-6.85527276992798,-3.55493688583374,-8.83160591125488,12.72714042663574
455,2637580612,173.89889526367188,-59.65634918212891,-77.78276062011719,10.98830413818359,1.51678764820099,-8.19171142578125,3.85904288291931,6.76338434219360,14.01394748687744
456,2637597279,174.69903564453125,-60.18693161010742,-78.28695678710938,15.48370933532715,0.29928520321846,-8.29976367950439,21.85221862792969,30.27139472961426,16.99348640441895
457,2637613946,175.63296508789062,-61.10376739501953,-78.95806884765625,13.78344726562500,1.68500626087189,-8.37304687500000,20.96096992492676,53.24734497070312,23.04705047607422
458,2637630613,177.15417480468750,-62.31019592285156,-79.73886108398438,12.11683750152588,4.49712276458740,-7.43220329284668,50.03582000732422,70.94110870361328,25.46033287048340
459,2637647280,178.59719848632812,-64.14385986328125,-80.77571868896484,12.50682353973389,2.57375741004944,-8.30955982208252,31.04607200622559,108.99327850341797,30.83606147766113
460,2637663947,-179.98625183105469,-66.99428558349609,-82.25211334228516,15.22787475585938,4.10668468475342,-8.96271228790283,4.32426023483276,170.63365173339844,37.47232437133789
461,2637680614,-179.07221984863281,-71.17272949218750,-83.81668090820312,20.09548377990723,5.18958854675293,-10.23377990722656,-32.90112686157227,251.00735473632812,30.23300933837891
462,2637697281,179.52627563476562,-77.03361511230469,-83.67711639404297,32.73161315917969,7.29216527938843,-7.84472656250000,-76.02973937988281,351.62823486328125,-4.90149116516113
463,2637713948,164.85325622558594,-84.90715026855469,-70.79288482666016,51.96742248535156,2.55211210250854,-0.14362764358521,-115.10607910156250,481.13055419921875,-57.65168762207031
464,2637730615,37.86778640747070,-85.25508880615234,54.59529113769531,42.13107299804688,8.47339248657227,4.03965377807617,-103.89805603027344,517.84808349609375,-95.59518432617188
465,2637747282,6.80607748031616,-82.51116943359375,76.20910644531250,-0.24295222759247,-33.88146972656250,-52.74263763427734,-574.28857421875000,201.92170715332031,64.84754943847656
466,2637763949,-0.91296130418777,-84.03442382812500,82.04395294189453,-11.48768424987793,11.18615818023682,9.77546882629395,-115.31149291992188,-88.77335357666016,44.45800399780273
467,2637780616,-4.05400419235229,-87.95178222656250,79.71771240234375,1.79320776462555,-23.49878311157227,-9.98574638366699,-326.29638671875000,-232.79869079589844,-21.08582878112793
468,2637797283,131.74829101562500,-88.57536315917969,-50.36069869995117,2.51017856597900,-1.58571493625641,11.05755329132080,342.40982055664062,-180.99969482421875,-73.04693603515625
469,2637813950,155.32943725585938,-86.76457214355469,-68.70186614990234,5.47731924057007,2.94571065902710,13.99940395355225,314.50662231445312,-111.61538696289062,-27.45477867126465
470,2637830617,157.82995605468750,-86.93235015869141,-66.91229248046875,3.52209329605103,6.48779726028442,14.97191238403320,257.18328857421875,11.63403511047363,-2.76144433021545
471,2637847284,143.08616638183594,-88.34555053710938,-50.80725479125977,2.08638262748718,5.27043342590332,7.70084428787231,81.27954101562500,91.85644531250000,4.41375017166138
472,2637863951,65.29452514648438,-89.06916809082031,24.04625129699707,-0.54294943809509,8.00929546356201,7.57428407669067,-170.31288146972656,104.28972625732422,6.14132976531982
473,2637880618,16.53870201110840,-88.20507049560547,66.68838500976562,-2.59546422958374,3.57437491416931,4.05385017395020,-370.56176757812500,75.77817535400391,15.54089164733887
474,2637897285,-2.82877707481384,-87.43204498291016,80.85689544677734,-3.01030635833740,-7.16050195693970,1.42925477027893,-313.91009521484375,48.97322845458984,25.93424606323242
475,2637913952,-11.46085929870605,-86.67575073242188,87.19005584716797,-1.05631053447723,-4.26216554641724,2.37433767318726,-139.00563049316406,42.18494415283203,23.85987091064453
476,2637930619,-16.32332992553711,-85.76792907714844,91.29080200195312,0.78383338451385,-0.38534751534462,2.90340495109558,-46.54507064819336,48.73007583618164,27.54562759399414
477,2637947286,-17.95343971252441,-84.74528503417969,93.17774200439453,1.37378859519958,-0.02415195852518,2.27000737190247,14.87004470825195,55.74599456787109,25.71847915649414
478,2637963953,-16.66602325439453,-83.77984619140625,93.02368927001953,0.92735689878464,0.37490677833557,1.77954065799713,68.00356292724609,55.55686950683594,15.04473114013672
479,2637980620,-13.93603038787842,-82.90430450439453,91.81490325927734,0.71081721782684,1.01848340034485,1.01855719089508,91.74468994140625,52.89115905761719,4.44186639785767
480,2637997287,-11.43172740936279,-82.09455871582031,90.39428710937500,0.60128784179688,2.02580618858337,0.96493881940842,65.75858306884766,49.88132858276367,-1.47998201847076
481,2638013954,-10.39146137237549,-81.39285278320312,89.45603942871094,0.51007205247879,1.16436541080475,-0.01770218648016,6.70672941207886,42.92870712280273,-1.24579071998596
482,2638030621,-10.83213520050049,-80.79493713378906,89.32221984863281,0.64652448892593,0.52616912126541,-0.18960459530354,-34.37573242187500,35.55179595947266,4.11787891387939
483,2638047288,-12.29791641235352,-80.19760894775391,89.89057159423828,0.65911668539047,0.18251287937164,-0.14792007207870,-54.32094192504883,34.04956817626953,11.44181156158447
484,2638063955,-14.14846229553223,-79.52639007568359,90.95204925537109,1.20955121517181,-1.90086817741394,-0.26155307888985,-48.34505462646484,36.70614242553711,18.86765861511230
485,2638080622,-15.20575332641602,-78.77091217041016,92.06536865234375,0.42485201358795,-1.85346913337708,0.08244708180428,2.16654372215271,40.73062515258789,22.39043426513672
486,2638097289,-15.47246170043945,-78.04991149902344,93.02474975585938,-0.86791443824768,0.10358681529760,1.31831789016724,40.39702224731445,38.73187255859375,21.33540534973145
487,2638113956,-15.07927894592285,-77.46683502197266,93.56715393066406,-1.38712513446808,1.39954376220703,2.06883382797241,55.41316223144531,32.01129913330078,14.61317443847656
488,2638130623,-14.03060722351074,-77.10081481933594,93.60416412353516,-1.21681916713715,2.39115762710571,1.52367258071899,65.11106872558594,21.21908950805664,4.73073101043701
489,2638147290,-13.08969306945801,-77.01377868652344,93.35782623291016,-0.78614372014999,2.59894323348999,0.74566364288330,42.08469772338867,5.94918870925903,-3.24778127670288
490,2638163957,-12.08682823181152,-77.17546081542969,92.87660980224609,-0.13050216436386,0.69305002689362,0.17185074090958,32.06645202636719,-7.96182441711426,-9.66010761260986
491,2638180624,-10.03252410888672,-77.47568511962891,91.81302642822266,0.62894749641418,-0.55761265754700,-0.02098625339568,61.04907989501953,-14.88365364074707,-18.45055961608887
492,2638197291,-6.96540546417236,-77.91463470458984,90.04564666748047,-0.46117663383484,1.69757056236267,-0.09285482764244,80.48211669921875,-22.59173965454102,-27.50006294250488
493,2638213958,-3.96948194503784,-78.65699768066406,87.80310058593750,-1.51099264621735,3.50812864303589,0.12607489526272,48.07703018188477,-41.60178375244141,-32.69303131103516
494,2638230625,-2.02211141586304,-79.79320526123047,85.71875762939453,-1.34433889389038,-0.02591843344271,-1.45703518390656,-5.92665243148804,-66.69746398925781,-28.15983963012695
495,2638247292,-1.91516494750977,-82.79260253906250,89.09950256347656,2.89651560783386,-2.90141773223877,-83.28464508056641,207.15177917480469,-180.57090759277344,23.33295631408691
496,2638263959,172.83256530761719,-86.29292297363281,-86.99823760986328,53.60763168334961,-44.69859313964844,9.01993846893311,-81.54728698730469,-654.85491943359375,-46.15676498413086
497,2638280626,-171.18240356445312,-82.92044067382812,-97.48008728027344,-1.49319696426392,2.65836334228516,60.51351165771484,332.98001098632812,-199.98735046386719,60.78928375244141
498,2638297293,-174.02909851074219,-79.11765289306641,-85.27170562744141,69.84716796875000,46.10610961914062,20.81545257568359,553.20837402343750,-239.63525390625000,-85.56445312500000
499,2638313960,176.71351623535156,-73.50010681152344,-86.45674133300781,26.18162918090820,-19.69036674499512,-31.87055015563965,-623.84960937500000,-336.75009155273438,23.47734642028809
500,2638330627,-178.23558044433594,-71.60871887207031,-86.52746582031250,-16.93754196166992,5.81195020675659,-8.30926895141602,299.00305175781250,-113.39325714111328,-1.50250232219696
501,2638347294,-179.47760009765625,-71.33908843994141,-89.78163909912109,-18.06139183044434,-5.56422805786133,-26.43042373657227,-259.60104370117188,-14.82766151428223,61.11064529418945
502,2638363961,-178.95721435546875,-72.44075775146484,-92.76015472412109,7.11407232284546,11.50631713867188,-8.24686336517334,-138.61882019042969,66.91892242431641,53.40442276000977
503,2638380628,-176.65623474121094,-74.13385009765625,-94.33837890625000,12.18836307525635,-5.96683502197266,-7.55815601348877,47.34214782714844,102.61058807373047,22.09358787536621
504,2638397295,-173.87228393554688,-75.89195251464844,-95.90750885009766,12.04842281341553,-1.15282011032104,-4.97795915603638,76.05561065673828,107.19485473632812,14.32413291931152
505,2638413962,-171.65820312500000,-77.78566741943359,-97.83763885498047,9.02080631256104,3.57187461853027,-5.70916414260864,20.02445602416992,116.07159423828125,10.63122844696045
506,2638430629,-170.18370056152344,-79.69844055175781,-99.69979095458984,13.04931449890137,2.40831351280212,-2.14583683013916,-21.18070983886719,116.78422546386719,2.22403526306152
507,2638447296,-166.99714660644531,-81.46728515625000,-102.72361755371094,11.94793415069580,-0.23918613791466,-0.79922437667847,12.09098339080811,109.88670349121094,6.92211866378784
508,2638463963,-162.48191833496094,-83.05776214599609,-106.88513946533203,9.31518745422363,0.01762867718935,-1.55458152294159,23.30393218994141,100.83617401123047,6.17589187622070
509,2638480630,-157.17884826660156,-84.44931793212891,-112.00421142578125,7.84961223602295,-1.29702794551849,-0.31048420071602,12.61861515045166,89.78679656982422,1.49560725688934
510,2638497297,-149.70420837402344,-85.62776184082031,-119.62924957275391,8.22245216369629,-1.85879278182983,1.53665554523468,-7.68116426467896,80.72859191894531,2.82550477981567
511,2638513964,-139.39218139648438,-86.53422546386719,-130.28921508789062,9.07159805297852,-1.73144233226776,3.27966427803040,-19.80852699279785,69.43966674804688,3.27440047264099
512,2638530631,-125.65962219238281,-87.14466857910156,-143.66406250000000,9.19088935852051,-1.33134329319000,4.05284404754639,22.32139205932617,57.28831863403320,2.25077128410339
513,2638547298,-110.85926818847656,-87.44082641601562,-157.65472412109375,8.59674930572510,-0.33816498517990,1.16339290142059,49.46675491333008,43.57092285156250,2.32021307945251
514,2638563965,-100.64205932617188,-87.51446533203125,-167.67234802246094,8.78975009918213,0.08988064527512,2.68189668655396,12.76452541351318,27.01263427734375,1.83204400539398
515,2638580632,-93.53144073486328,-87.52393341064453,-174.53407287597656,9.37409400939941,-1.56042945384979,1.26355147361755,15.54206180572510,18.06345558166504,0.42472341656685
516,2638597299,-87.22662353515625,-87.55559539794922,179.68307495117188,9.64943885803223,-1.51846396923065,-0.40950429439545,31.83870506286621,15.18991947174072,-3.00611782073975
517,2638613966,-82.37705993652344,-87.63181304931641,175.21670532226562,9.94098854064941,-0.62557262182236,0.19874250888824,23.36916160583496,11.04678535461426,-6.76760244369507
518,2638630633,-76.78148651123047,-87.69794464111328,170.34519958496094,9.96226882934570,-0.39281803369522,0.03974303603172,43.88948059082031,11.27096462249756,-7.27765274047852
519,2638647300,-70.90153503417969,-87.73307037353516,164.95989990234375,10.19027328491211,0.38300308585167,0.51954835653305,30.19271087646484,12.08368396759033,-6.84976482391357
520,2638663967,-63.72127532958984,-87.66737365722656,158.16184997558594,10.22845840454102,0.79723250865936,-1.08398437500000,23.67564392089844,16.90311241149902,-4.08844566345215
521,2638680634,-56.65686035156250,-87.49829864501953,151.23719787597656,10.23209476470947,0.31929919123650,-0.05220687389374,9.19459152221680,20.46061134338379,-1.40494227409363
522,2638697301,-50.62944030761719,-87.23926544189453,145.07492065429688,10.15391826629639,0.78267776966095,0.49689304828644,-7.34190177917480,23.01993370056152,0.95087343454361
523,2638713968,-45.66625213623047,-86.93822479248047,139.97123718261719,9.77154350280762,-0.16835528612137,-0.43201261758804,-7.76394939422607,23.72278976440430,1.60558664798737
524,2638730635,-41.49256134033203,-86.59866333007812,135.47500610351562,9.88337898254395,-0.53520661592484,-0.04080871492624,-18.71607780456543,25.29539680480957,1.57989919185638
525,2638747302,-37.57884216308594,-86.20316314697266,131.36726379394531,9.88795280456543,0.12419434636831,0.63584423065186,-10.99544620513916,28.18411254882812,1.74945557117462
526,2638763969,-34.52579498291016,-85.81086730957031,127.94110870361328,9.47508907318115,-0.32450118660927,0.14827466011047,-21.77517127990723,27.49295425415039,0.89826679229736
527,2638780636,-32.09341049194336,-85.46196746826172,125.14311981201172,9.43810653686523,-0.92702370882034,1.09233081340790,-21.36787414550781,24.56842041015625,-0.52081698179245
528,2638797303,-29.93097877502441,-85.15305328369141,122.76210784912109,9.48746585845947,-1.09570038318634,1.62518048286438,-12.56976222991943,21.96245384216309,-1.79277122020721
529,2638813970,-28.26222419738770,-84.88948822021484,120.89787292480469,9.21216869354248,-0.76497006416321,0.89996594190598,-11.24405097961426,18.61429023742676,-2.09411692619324
530,2638830637,-27.10972213745117,-84.69880676269531,119.41327667236328,9.64525222778320,-0.54722100496292,1.33870363235474,-19.50873947143555,13.97646713256836,-3.12536382675171
531,2638847304,-26.09389114379883,-84.55331420898438,118.13037872314453,9.57282066345215,-0.25766164064407,1.53997850418091,-15.64139461517334,11.12094593048096,-3.81895470619202
532,2638863971,-25.42205619812012,-84.47490692138672,117.08456420898438,9.52917098999023,-0.71203124523163,1.27661895751953,-22.10666465759277,6.94009447097778,-4.63016414642334
533,2638880638,-24.74232673645020,-84.47280883789062,116.10617065429688,9.56359386444092,-0.56088680028915,1.39435446262360,-17.60184288024902,2.61763381958008,-6.33277988433838
534,2638897305,-24.03260612487793,-84.51924133300781,115.14813995361328,9.64495086669922,-0.75601953268051,1.45447981357574,-14.58339118957520,-0.14813759922981,-7.43420171737671
535,2638913972,-23.19575309753418,-84.58905029296875,114.14764404296875,9.81644153594971,-0.42724576592445,0.98471003770828,-9.49387073516846,-1.44111859798431,-8.16134262084961
536,2638930639,-22.14646148681641,-84.64866638183594,113.01543426513672,9.82134437561035,-0.09457610547543,0.18041799962521,-4.61430215835571,-0.72167003154755,-8.51810073852539
537,2638947306,-20.93430900573730,-84.67822265625000,111.71682739257812,9.90232086181641,-0.12364558875561,0.25283908843994,-4.78015708923340,1.13669192790985,-8.65510368347168
538,2638963973,-19.89456367492676,-84.63417816162109,110.56945037841797,9.94748783111572,-0.26932987570763,0.37064540386200,-6.11834430694580,4.79842567443848,-6.36627578735352
539,2638980640,-18.96894073486328,-84.55425262451172,109.55634307861328,9.77399826049805,-0.06242753565311,0.46125707030296,-4.92997837066650,6.53176546096802,-5.07104110717773
540,2638997307,-18.18452262878418,-84.46530151367188,108.71769714355469,9.53926181793213,-0.06021519377828,0.69821316003799,-2.98309230804443,6.68882131576538,-4.13179683685303
541,2639013974,-17.43478965759277,-84.40984344482422,107.90422821044922,9.63159942626953,-0.36737006902695,1.19097745418549,-3.55111837387085,4.71561908721924,-4.75149631500244
542,2639030641,-16.62473106384277,-84.39255523681641,107.07298278808594,9.66445064544678,-0.32452896237373,1.30708837509155,-0.99480372667313,2.50936603546143,-5.61911296844482
543,2639047308,-15.73217296600342,-84.41174316406250,106.11529541015625,9.84949111938477,-0.20657768845558,1.21570277214050,-3.58126425743103,0.56662988662720,-6.96728944778442
544,2639063975,-14.64285373687744,-84.43933105468750,105.00291442871094,9.88407993316650,-0.03389695659280,0.91983044147491,-1.01047885417938,0.22000029683113,-7.95426177978516
545,2639080642,-13.68822860717773,-84.42367553710938,103.95503997802734,9.86484336853027,-0.11174440383911,0.51041936874390,-5.25280141830444,2.50003051757812,-6.95636653900146
546,2639097309,-12.71352291107178,-84.37517547607422,102.91400909423828,9.87186813354492,-0.09549383074045,0.69588059186935,-3.63802266120911,4.32292604446411,-6.53957128524780
547,2639113976,-11.81256771087646,-84.30243682861328,101.99489593505859,9.78634357452393,-0.01966381072998,0.81720358133316,-0.77432972192764,5.52262401580811,-5.65556049346924
548,2639130643,-10.98987007141113,-84.23094940185547,101.09793853759766,9.76323318481445,-0.11650723963976,0.97170668840408,-4.15464305877686,5.35534667968750,-5.69067525863647
549,2639147310,-10.23554801940918,-84.17045593261719,100.23119354248047,9.67651939392090,-0.05228339508176,1.11902189254761,-6.43523836135864,4.63778305053711,-5.76127767562866
550,2639163977,-9.59626007080078,-84.11953735351562,99.43380737304688,9.79291725158691,-0.11732445657253,1.01324009895325,-9.19651889801025,3.95069622993469,-5.54506826400757
551,2639180644,-8.90052318572998,-84.06389617919922,98.63407135009766,9.78869342803955,0.08447023481131,0.89517307281494,-5.95014524459839,4.18222188949585,-5.60542440414429
552,2639197311,-8.26701736450195,-84.00799560546875,97.86798095703125,9.81965255737305,0.21513754129410,0.95302343368530,-7.67453384399414,4.12374830245972,-5.48723459243774
553,2639213978,-7.68447113037109,-83.95493316650391,97.12837219238281,9.90245437622070,-0.16503740847111,1.09533786773682,-9.13714885711670,3.90446519851685,-5.42718648910522
554,2639230645,-7.08235454559326,-83.88746643066406,96.46313476562500,9.75358295440674,-0.09169607609510,0.95592671632767,-3.53455948829651,4.64454364776611,-4.93584299087524
555,2639247312,-6.51072645187378,-83.81940460205078,95.81198883056641,9.76776313781738,0.16586072742939,0.94727098941803,-4.50777816772461,4.65367412567139,-4.92992639541626
556,2639263979,-5.94754648208618,-83.76303863525391,95.12801361083984,9.77719211578369,0.01429201010615,1.26628816127777,-6.97817564010620,3.93157601356506,-5.31082630157471
557,2639280646,-5.44615030288696,-83.71356201171875,94.54436492919922,9.70910263061523,-0.11838751286268,1.11629414558411,-4.69959211349487,3.42170357704163,-4.76796531677246
558,2639297313,-4.87871026992798,-83.67690277099609,93.91769409179688,9.73238563537598,0.03263429179788,0.98376810550690,-3.27853465080261,2.67227554321289,-5.17190217971802
559,2639313980,-4.17129468917847,-83.66420745849609,93.20706176757812,9.71432971954346,0.08089275658131,1.05150294303894,0.09720020741224,1.22729671001434,-5.88896846771240
560,2639330647,-3.34863042831421,-83.68174743652344,92.42007446289062,9.76076793670654,-0.05740217864513,1.04718482494354,2.47350835800171,-0.60523462295532,-6.52298593521118
561,2639347314,-2.36789107322693,-83.72611999511719,91.52359008789062,9.74637222290039,0.07576664537191,1.03856134414673,5.43519592285156,-2.25302815437317,-7.28624534606934
562,2639363981,-1.25757515430450,-83.80660247802734,90.52406311035156,9.73568820953369,0.08426523208618,0.98648923635483,7.05523920059204,-4.50829267501831,-7.92561769485474
563,2639380648,-0.02637891471386,-83.92091369628906,89.45034790039062,9.78586101531982,0.14541953802109,0.99737441539764,9.88969612121582,-6.65520143508911,-8.22646617889404
564,2639397315,1.22164738178253,-84.06079864501953,88.35604095458984,9.69368267059326,0.20479115843773,0.92502820491791,9.64884948730469,-8.34588623046875,-8.04964923858643
565,2639413982,2.45088100433350,-84.21656799316406,87.26831817626953,9.78354454040527,0.08318737894297,1.10937464237213,8.89629459381104,-9.43477058410645,-7.62602663040161
566,2639430649,2.74540233612061,-84.19715118408203,86.84181213378906,10.25789451599121,0.07315202802420,1.91547954082489,-7.74727201461792,1.15512013435364,-3.88987135887146
567,2639447316,2.53853726387024,-84.06800079345703,86.91371917724609,9.61548328399658,0.11705118417740,1.02425098419189,-8.12268066406250,7.83810424804688,-1.16820216178894
568,2639463983,2.56666541099548,-83.99887084960938,86.82682037353516,9.70543766021729,0.06050952523947,0.86500746011734,-3.46470093727112,4.22010278701782,-1.97753763198853
569,2639480650,2.83691215515137,-83.98536682128906,86.59144592285156,9.70082283020020,0.28465297818184,1.02927982807159,2.19970822334290,0.83535826206207,-2.76972532272339
570,2639497317,3.09243869781494,-83.98542785644531,86.33510589599609,9.72830963134766,0.22323900461197,1.00196671485901,0.06684914231300,0.01330579631031,-2.86271214485168
571,2639513984,3.51362943649292,-84.01506042480469,85.94780731201172,9.76089477539062,-0.01219835877419,0.96742498874664,2.20615029335022,-1.80486965179443,-3.57845973968506
572,2639530651,4.10062122344971,-84.06800079345703,85.49114990234375,9.75648975372314,0.15142205357552,0.94203853607178,8.00915718078613,-3.25348567962646,-3.88528752326965
573,2639547318,4.81091117858887,-84.14596557617188,84.89614105224609,9.74808692932129,0.31956139206886,0.90896481275558,7.16035318374634,-4.83010244369507,-4.54968118667603
574,2639563985,5.61381816864014,-84.24606323242188,84.17026519775391,9.77784252166748,0.14899539947510,0.99648302793503,4.90802145004272,-6.26365756988525,-5.10134029388428
575,2639580652,6.54844284057617,-84.35951995849609,83.36949157714844,9.72964191436768,0.13447082042694,0.99639356136322,8.32714176177979,-7.15539264678955,-5.28335905075073
576,2639597319,7.55281496047974,-84.48054504394531,82.53120422363281,9.77777099609375,0.19858239591122,0.86376440525055,10.26386070251465,-7.69483470916748,-5.22439861297607
577,2639613986,8.61129474639893,-84.60079956054688,81.65142822265625,9.81341266632080,0.36369886994362,0.88692450523376,11.02911853790283,-7.72450876235962,-5.22252941131592
578,2639630653,9.63614177703857,-84.70753479003906,80.79223632812500,9.85022640228271,0.11308805644512,0.84511011838913,10.23248386383057,-6.96720266342163,-4.99109172821045
579,2639647320,10.61843013763428,-84.79158020019531,79.99839782714844,9.86298370361328,0.34810546040535,1.06927108764648,11.56273078918457,-5.61638784408569,-4.66817951202393
580,2639663987,11.16654872894287,-84.81874084472656,79.48373413085938,9.84611034393311,0.26203435659409,0.89840376377106,2.19181990623474,-2.01403570175171,-3.69666242599487
581,2639680654,11.65361976623535,-84.82971954345703,79.03949737548828,9.82809352874756,0.23616182804108,0.77259898185730,2.71458792686462,-1.02114641666412,-3.48287272453308
582,2639697321,12.11767864227295,-84.83479309082031,78.59667205810547,9.80990886688232,0.29802113771439,0.83604687452316,1.41056847572327,-0.69348317384720,-3.53697991371155
583,2639713988,12.54455947875977,-84.83578491210938,78.18891906738281,9.78827953338623,0.31160369515419,0.82295989990234,1.28285050392151,-0.42849409580231,-3.39642977714539
584,2639730655,12.94910049438477,-84.83452606201172,77.78928375244141,9.77842903137207,0.29190182685852,0.78336614370346,0.43139466643333,-0.29922676086426,-3.37939715385437
585,2639747322,13.40159606933594,-84.82994842529297,77.34494781494141,9.78028869628906,0.25942319631577,0.83963412046432,0.64670777320862,-0.16733416914940,-3.65942072868347
586,2639763989,13.77816867828369,-84.82067108154297,76.94707489013672,9.88735008239746,0.32596877217293,1.17422997951508,-1.15075945854187,0.13097055256367,-3.47909474372864
587,2639780656,13.70940303802490,-84.75473022460938,76.91572570800781,9.76667022705078,0.21610268950462,0.84283018112183,-5.98604106903076,3.89077496528625,-2.35467219352722
588,2639797323,13.78172874450684,-84.70228576660156,76.75498962402344,9.78467845916748,0.25805994868279,0.78482526540756,-5.25459289550781,2.92899155616760,-2.85764122009277
589,2639813990,13.96528339385986,-84.66116333007812,76.53606414794922,9.75928401947021,0.30987235903740,0.88948827981949,-2.03692007064819,2.20279455184937,-3.02814459800720
590,2639830657,14.26649093627930,-84.63735961914062,76.24676513671875,9.74848270416260,0.29089057445526,0.92910927534103,0.82462650537491,1.09344458580017,-3.17289495468140
591,2639847324,14.59430789947510,-84.62888336181641,75.95448303222656,9.71454715728760,0.20238892734051,0.94571954011917,2.23524594306946,0.17934013903141,-2.96938920021057
592,2639863991,15.08792591094971,-84.60951232910156,75.66244506835938,9.76712226867676,0.14859525859356,0.95198428630829,12.20076847076416,0.79641449451447,-3.14116215705872
593,2639880658,15.63139057159424,-84.60239410400391,75.31141662597656,9.74950027465820,0.26921391487122,0.90307813882828,11.68017673492432,-0.00927820429206,-3.27788257598877
594,2639897325,16.22314262390137,-84.60995483398438,74.86412048339844,9.79575920104980,0.48607534170151,0.89466935396194,8.83161926269531,-1.02163326740265,-3.55939149856567
595,2639913992,16.78887557983398,-84.62465667724609,74.37319183349609,9.78242397308350,0.44217276573181,0.82198500633240,4.65841245651245,-1.52770149707794,-3.65641164779663
596,2639930659,17.30285644531250,-84.64517974853516,73.84535980224609,9.75091743469238,0.38730475306511,0.84341073036194,-0.64948040246964,-1.94015562534332,-3.72910022735596
597,2639947326,17.79259109497070,-84.67145538330078,73.30015563964844,9.79108238220215,0.28996038436890,0.98626923561096,-3.15314769744873,-2.32398796081543,-3.68618655204773
598,2639963993,18.29282188415527,-84.69651794433594,72.75817871093750,9.74925327301025,0.40546205639839,0.84471386671066,-2.31145024299622,-2.24789237976074,-3.66006159782410
599,2639980660,18.77250480651855,-84.72206878662109,72.19010162353516,9.80713748931885,0.37253034114838,0.73005646467209,-5.12456989288330,-2.35627245903015,-3.74971890449524
600,2639997327,19.19246482849121,-84.73560333251953,71.67444610595703,9.82014942169189,0.40117043256760,0.80869382619858,-5.57120513916016,-1.58940279483795,-3.68124413490295
601,2640013994,19.51915168762207,-84.73672485351562,71.26984405517578,9.83229637145996,0.34998640418053,0.81429743766785,-4.53397941589355,-0.69737619161606,-3.33609890937805
602,2640030661,19.79160118103027,-84.72694396972656,70.94274139404297,9.80131721496582,0.42861530184746,0.82691216468811,-3.17676210403442,0.03717682883143,-3.14657735824585
603,2640047328,20.03614234924316,-84.71187591552734,70.64187622070312,9.73131275177002,0.35531163215637,0.79954338073730,-3.26466536521912,0.39118278026581,-3.12692022323608
604,2640063995,20.25504684448242,-84.69525909423828,70.38166809082031,9.78315067291260,0.35159790515900,0.90187579393387,-2.37847900390625,0.53921145200729,-2.94996213912964
605,2640080662,20.49075126647949,-84.67681884765625,70.12487030029297,9.84393119812012,0.34730777144432,0.84300804138184,-1.18163549900055,0.62915033102036,-2.97184777259827
606,2640097329,20.72432708740234,-84.65921783447266,69.87092590332031,9.74620532989502,0.46564877033234,0.82681453227997,-1.12399411201477,0.59285712242126,-2.95070457458496
607,2640113996,20.94673538208008,-84.64306640625000,69.61837005615234,9.73628711700439,0.42003121972084,0.79657852649689,-1.71626210212708,0.50102281570435,-2.91744637489319
608,2640130663,21.18251991271973,-84.63129425048828,69.35924530029297,9.74422931671143,0.40189450979233,0.88976937532425,-1.30439734458923,0.23004047572613,-2.86099648475647
609,2640147330,21.43652534484863,-84.62903594970703,69.10632324218750,9.76380729675293,0.34057995676994,0.97952407598495,0.16722533106804,-0.28417930006981,-2.62694740295410
610,2640163997,21.73247337341309,-84.63487243652344,68.83129119873047,9.74926757812500,0.42708846926689,0.89269667863846,1.36437571048737,-0.78719991445541,-2.56043124198914
611,2640180664,22.07214546203613,-84.64591979980469,68.50909423828125,9.75544452667236,0.43186146020889,0.85558271408081,1.16130554676056,-1.19246971607208,-2.67986321449280
612,2640197331,22.39368247985840,-84.65793609619141,68.17279815673828,9.76334476470947,0.44466263055801,0.84529209136963,-0.75871866941452,-1.27379012107849,-2.72427582740784
613,2640213998,22.69543075561523,-84.67240905761719,67.85761260986328,9.77647876739502,0.40164461731911,0.89831584692001,-0.68951308727264,-1.37444794178009,-2.54539656639099
614,2640230665,22.99127960205078,-84.68710327148438,67.57269287109375,9.83483982086182,0.41169789433479,0.87256616353989,0.77022510766983,-1.32194197177887,-2.37356090545654
615,2640247332,23.22631072998047,-84.69577789306641,67.37629699707031,9.80332851409912,0.49728840589523,0.71604621410370,2.39070200920105,-0.80866330862045,-2.05022597312927
616,2640263999,23.40402603149414,-84.70043182373047,67.21076202392578,9.79325485229492,0.50786501169205,0.71091079711914,0.81783914566040,-0.50893080234528,-1.98838436603546
617,2640280666,23.50832366943359,-84.69718170166016,67.10464477539062,9.77131462097168,0.49753648042679,0.79622030258179,-0.04333028197289,0.04697368666530,-1.86653149127960
618,2640297333,23.55642700195312,-84.69120025634766,67.04734802246094,9.77359771728516,0.47848498821259,0.79166537523270,-0.51834344863892,0.29996311664581,-1.68368291854858
619,2640314000,23.53665924072266,-84.68197631835938,67.04835510253906,9.76199150085449,0.49594476819038,0.76453292369843,-1.09181165695190,0.61447417736053,-1.46587228775024
620,2640330667,23.49417114257812,-84.67115783691406,67.08128356933594,9.75689792633057,0.45709523558617,0.80634975433350,-0.55202406644821,0.76930302381516,-1.33981931209564
621,2640347334,23.42836189270020,-84.66219329833984,67.14316558837891,9.77601623535156,0.50107318162918,0.85431671142578,-0.22537252306938,0.73649311065674,-1.14497089385986
622,2640364001,23.35132026672363,-84.65192413330078,67.22191619873047,9.79427146911621,0.37462642788887,0.83636200428009,0.10174644738436,0.83626747131348,-1.08537006378174
623,2640380668,23.27813148498535,-84.64328765869141,67.29500579833984,9.77412796020508,0.46677929162979,0.85851132869720,0.01354911737144,0.74629002809525,-1.07780158519745
624,2640397335,23.19319152832031,-84.63663482666016,67.38887023925781,9.75346660614014,0.46458792686462,0.79546797275543,0.53658604621887,0.67813462018967,-0.92137205600739
625,2640414002,23.09153556823730,-84.62998962402344,67.47785949707031,9.75510406494141,0.49134695529938,0.83709537982941,-0.75106036663055,0.66947752237320,-0.94497418403625
626,2640430669,22.99945640563965,-84.62465667724609,67.55535125732422,9.77355194091797,0.40547022223473,0.89187854528427,-0.87222123146057,0.56335127353668,-0.96989530324936
627,2640447336,22.94038200378418,-84.62137603759766,67.60835266113281,9.78039360046387,0.41253998875618,0.87053310871124,-0.34632852673531,0.40159431099892,-1.04976844787598
628,2640464003,22.88751411437988,-84.62196350097656,67.65124511718750,9.77155780792236,0.40998655557632,0.87357652187347,-0.58629387617111,0.16075807809830,-1.00986373424530
629,2640480670,22.84078216552734,-84.62217712402344,67.69200134277344,9.76804637908936,0.43479445576668,0.86651653051376,-0.33153718709946,0.18240083754063,-1.03101992607117
630,2640497337,22.78826141357422,-84.62590026855469,67.75794982910156,9.76890277862549,0.46861425042152,0.87720268964767,0.82143771648407,0.04798539355397,-0.82134169340134
631,2640514004,22.69748306274414,-84.62969207763672,67.83940887451172,9.78465461730957,0.43510055541992,0.84474122524261,-0.54813092947006,0.07361088693142,-0.73752403259277
632,2640530671,22.61335945129395,-84.63626098632812,67.92350769042969,9.77568817138672,0.40807390213013,0.87645685672760,0.00532744079828,-0.08130110800266,-0.65774047374725
633,2640547338,22.57716751098633,-84.64492797851562,67.96814727783203,9.78506088256836,0.41709458827972,0.90401124954224,0.52790331840515,-0.27598321437836,-0.81894683837891
634,2640564005,22.56386756896973,-84.65580749511719,67.99024963378906,9.76623535156250,0.40581992268562,0.87882369756699,0.54597312211990,-0.45671921968460,-0.88078868389130
635,2640580672,22.54929542541504,-84.66677856445312,68.01770782470703,9.82309436798096,0.43239369988441,0.82087236642838,0.80332958698273,-0.44069853425026,-0.85349833965302
636,2640597339,22.54436111450195,-84.67543029785156,68.02127838134766,9.78524112701416,0.47653773427010,0.79512870311737,-0.05130864679813,-0.36783042550087,-1.03136587142944
637,2640614006,22.55803108215332,-84.68430328369141,68.00882720947266,9.73030471801758,0.40000605583191,0.87326186895370,0.10950709134340,-0.41347217559814,-1.10717928409576
638,2640630673,22.53714942932129,-84.69429779052734,68.03604888916016,9.79239273071289,0.44586932659149,0.80653434991837,0.40523132681847,-0.39181667566299,-0.87867563962936
639,2640647340,22.52936172485352,-84.70523834228516,68.03739166259766,9.73500347137451,0.46164882183075,0.79734629392624,-0.36183696985245,-0.50337278842926,-0.98788815736771
640,2640664007,22.51532936096191,-84.71880340576172,68.04330444335938,9.74051284790039,0.35938438773155,0.85261869430542,-0.45014965534210,-0.63116741180420,-0.90718263387680
641,2640680674,22.54744148254395,-84.73214721679688,68.03331756591797,9.77853012084961,0.43631422519684,0.87085634469986,1.36248016357422,-0.65430837869644,-0.99166601896286
642,2640697341,22.59010696411133,-84.75028228759766,67.99518585205078,9.77118015289307,0.45690295100212,0.83841747045517,0.31848111748695,-0.98008912801743,-1.02448880672455
643,2640714008,22.62275123596191,-84.77104187011719,67.97100067138672,9.75858211517334,0.41590282320976,0.87853705883026,0.55089080333710,-1.09117150306702,-0.89435058832169
644,2640730675,22.65640258789062,-84.79097747802734,67.95774841308594,9.79434108734131,0.37802883982658,0.80709409713745,1.26401221752167,-1.02391242980957,-0.85424107313156
645,2640747342,22.69436836242676,-84.81321716308594,67.92557525634766,9.76407527923584,0.42232629656792,0.79329109191895,0.38772505521774,-1.19540226459503,-0.89374870061874
646,2640764009,22.78848457336426,-84.83950042724609,67.84443664550781,9.70375251770020,0.38649749755859,0.86411374807358,0.84792131185532,-1.50915801525116,-1.04806530475616
647,2640780676,22.88611602783203,-84.86584472656250,67.77829742431641,9.83712577819824,0.42129835486412,0.84259843826294,1.92529380321503,-1.49727344512939,-0.96122533082962
648,2640797343,22.97577285766602,-84.88909912109375,67.69985961914062,9.78003025054932,0.46952208876610,0.72442895174026,0.73587846755981,-1.33747589588165,-1.09482133388519
649,2640814010,23.02465629577637,-84.90957641601562,67.64006042480469,9.74532032012939,0.42185977101326,0.72125357389450,-0.59813976287842,-1.14655900001526,-1.06219065189362
650,2640830677,23.11778640747070,-84.92962646484375,67.55233764648438,9.75973320007324,0.38477084040642,0.77721822261810,0.37635302543640,-1.18458104133606,-1.20749151706696
651,2640847344,23.19563674926758,-84.94964599609375,67.48679351806641,9.76331424713135,0.39123922586441,0.81219398975372,0.79390412569046,-1.13194704055786,-1.09503901004791
652,2640864011,23.31203842163086,-84.97200012207031,67.38904571533203,9.77288722991943,0.45118716359138,0.79832422733307,1.17895257472992,-1.32773053646088,-1.19416022300720
653,2640880678,23.42729759216309,-84.99625396728516,67.28155517578125,9.73163509368896,0.38384234905243,0.76063412427902,0.52573901414871,-1.45579373836517,-1.18979299068451
654,2640897345,23.59201622009277,-85.02310943603516,67.11669921875000,9.72625732421875,0.37448027729988,0.78285604715347,0.06574780493975,-1.71321439743042,-1.39783239364624
655,2640914012,23.78664207458496,-85.04924011230469,66.94573211669922,9.76900577545166,0.34964561462402,0.76749986410141,1.50679528713226,-1.68037891387939,-1.43598234653473
656,2640930679,23.96667861938477,-85.07391357421875,66.77785491943359,9.79448890686035,0.44216820597649,0.74522203207016,0.79705440998077,-1.60251617431641,-1.44351267814636
657,2640947346,24.11787033081055,-85.09507751464844,66.64420318603516,9.77770233154297,0.42443686723709,0.70480704307556,1.11620151996613,-1.33433854579926,-1.35940062999725
658,2640964013,24.24798583984375,-85.11224365234375,66.52624511718750,9.74850177764893,0.47959315776825,0.69855743646622,0.79791224002838,-1.07710981369019,-1.38027453422546
659,2640980680,24.34868812561035,-85.12600708007812,66.42472076416016,9.79619216918945,0.43694308400154,0.70358955860138,0.00641598086804,-0.86315435171127,-1.38170909881592
660,2640997347,24.43042182922363,-85.13610839843750,66.34421539306641,9.77785491943359,0.41061279177666,0.72248321771622,0.12249273061752,-0.61600464582443,-1.37104141712189
661,2641014014,24.50319862365723,-85.14473724365234,66.27552032470703,9.73114013671875,0.40587577223778,0.71797865629196,0.29522475600243,-0.50968629121780,-1.35204946994781
662,2641030681,24.58058357238770,-85.15354156494141,66.20771026611328,9.77738571166992,0.40608251094818,0.77698343992233,0.61849552392960,-0.52523314952850,-1.34040856361389
663,2641047348,24.66169548034668,-85.16130828857422,66.13765716552734,9.76974296569824,0.46673521399498,0.76519250869751,0.71728366613388,-0.46203386783600,-1.37817430496216
664,2641064015,24.76132583618164,-85.17091369628906,66.03807830810547,9.75813293457031,0.37787213921547,0.74166780710220,0.06282795965672,-0.62732547521591,-1.46597492694855
665,2641080682,24.88286018371582,-85.18171691894531,65.93415069580078,9.75351238250732,0.43032735586166,0.74556374549866,1.11936461925507,-0.69828540086746,-1.45393681526184
666,2641097349,25.01229286193848,-85.19226074218750,65.80773162841797,9.79107952117920,0.42955222725868,0.74261826276779,0.22805547714233,-0.74506705999374,-1.55604195594788
667,2641114016,25.12128448486328,-85.20130920410156,65.69457244873047,9.79211425781250,0.41914892196655,0.73644387722015,-0.18843905627728,-0.62658274173737,-1.53506529331207
668,2641130683,25.23818969726562,-85.20874786376953,65.57669067382812,9.77580928802490,0.43540963530540,0.71680074930191,-0.00544910179451,-0.55645513534546,-1.59233522415161
669,2641147350,25.33688354492188,-85.21422576904297,65.47667694091797,9.74521636962891,0.42026776075363,0.67755132913589,-0.02976835891604,-0.40719708800316,-1.56089556217194
670,2641164017,25.43379402160645,-85.21914672851562,65.36934661865234,9.75875854492188,0.43514427542686,0.69379657506943,-0.56010490655899,-0.38934507966042,-1.60879135131836
671,2641180684,25.53809928894043,-85.22004699707031,65.25994873046875,9.76607704162598,0.39400485157967,0.73439216613770,-0.25848978757858,-0.18484045565128,-1.71736371517181
672,2641197351,25.65104675292969,-85.22250366210938,65.13326263427734,9.76057720184326,0.43195390701294,0.73575246334076,-0.76076757907867,-0.30080196261406,-1.75565445423126
673,2641214018,25.77763938903809,-85.22685241699219,64.99737548828125,9.76924705505371,0.41932502388954,0.73692768812180,-0.49009254574776,-0.42178347706795,-1.74937915802002
674,2641230685,25.92478942871094,-85.23548126220703,64.84809112548828,9.75074291229248,0.43430870771408,0.76290285587311,-0.06845634430647,-0.68734884262085,-1.69326186180115
675,2641247352,26.12961578369141,-85.24700164794922,64.64934539794922,9.75341796875000,0.39731535315514,0.74886119365692,0.43772101402283,-0.95562893152237,-1.83442616462708
676,2641264019,26.37617683410645,-85.26364135742188,64.40919494628906,9.76709938049316,0.41699779033661,0.73390161991119,0.48440018296242,-1.30859756469727,-1.88183557987213
