sep=,
DeviceTag:,Xsens_DOT_2
FirmwareVersion:,3.0.0
AppVersion:,2023.6.0
StartTime: ,2025-04-09_11:06:15_000 CEST
© Movella Technologies B. V. 2005-2025

PacketCounter,SampleTimeFine,Euler_X,Euler_Y,Euler_Z,Acc_X,Acc_Y,Acc_Z,Gyr_X,Gyr_Y,Gyr_Z
0,2630047128,47.72894287109375,-87.26226806640625,-20.66966247558594,0.00000000000000,0.00000000000000,0.00000000000000,0.00000000000000,0.00000000000000,0.00000000000000
1,2630063795,48.06238937377930,-87.26040649414062,-20.94266510009766,9.81715202331543,0.37143972516060,0.34847244620323,3.43944597244263,-1.48903262615204,0.07224702090025
2,2630080462,48.30174255371094,-87.25698089599609,-21.14217185974121,9.77615642547607,0.39974787831306,0.32413980364799,2.98455810546875,-1.24941945075989,0.17754720151424
3,2630097129,48.47722625732422,-87.24992370605469,-21.28012466430664,9.77892589569092,0.37664914131165,0.29354742169380,2.84657001495361,-0.96600210666656,0.11877888441086
4,2630113796,48.55262374877930,-87.22745513916016,-21.32176780700684,9.82402610778809,0.36930584907532,0.35348051786423,2.62879133224487,-0.13253292441368,-0.41086614131927
5,2630130463,48.69265747070312,-87.20698547363281,-21.43252944946289,9.83602714538574,0.36981371045113,0.39705511927605,2.35308337211609,-0.37589198350906,-0.44292041659355
6,2630147130,48.96071243286133,-87.20642089843750,-21.66837501525879,9.85611629486084,0.42958137392998,0.32725685834885,2.53265428543091,-1.44656693935394,0.22310583293438
7,2630163797,49.00213241577148,-87.20908355712891,-21.69172096252441,9.82589912414551,0.43079823255539,0.23932018876076,1.66807198524475,-1.12100386619568,0.78771221637726
8,2630180464,48.83974075317383,-87.20040130615234,-21.51550102233887,9.78051090240479,0.38283875584602,0.28510832786560,1.70372462272644,-0.20727077126503,0.64462685585022
9,2630197131,48.63022994995117,-87.18589782714844,-21.28563308715820,9.76790523529053,0.37780055403709,0.30323871970177,1.50258827209473,0.12129533290863,0.46775835752487
10,2630213798,48.43045425415039,-87.17728424072266,-21.08130455017090,9.76068782806396,0.41381865739822,0.35411962866783,0.97593343257904,-0.16496500372887,0.72034436464310
11,2630230465,48.30176162719727,-87.17548370361328,-20.95082092285156,9.73030185699463,0.39739966392517,0.34442174434662,0.63222390413284,-0.59504061937332,0.86750209331512
12,2630247132,48.14781951904297,-87.16959381103516,-20.79955482482910,9.76480293273926,0.40484681725502,0.31644949316978,0.52570694684982,-0.37690365314484,0.72960972785950
13,2630263799,47.91531753540039,-87.15641784667969,-20.56002426147461,9.80484771728516,0.37599527835846,0.31724891066551,0.39407056570053,0.08155723661184,0.55567389726639
14,2630280466,47.62270355224609,-87.13967132568359,-20.27576446533203,9.81196117401123,0.39146238565445,0.31666243076324,0.40155589580536,0.36188182234764,0.53046464920044
15,2630297133,47.28131103515625,-87.12608337402344,-19.93564605712891,9.81114482879639,0.40305665135384,0.32605704665184,0.37265196442604,0.34151971340179,0.77813941240311
16,2630313800,46.88631820678711,-87.10856628417969,-19.54675102233887,9.81490421295166,0.36906912922859,0.32613363862038,0.29272753000259,0.62469369173050,0.72125357389450
17,2630330467,46.42957687377930,-87.08637237548828,-19.08830642700195,9.84538173675537,0.36318454146385,0.34964701533318,0.81793516874313,0.98933541774750,0.66804963350296
18,2630347134,45.89506149291992,-87.06495666503906,-18.55112838745117,9.83248996734619,0.41268610954285,0.38196215033531,0.88999015092850,1.11412692070007,0.91926544904709
19,2630363801,45.43004226684570,-87.05290985107422,-18.08965301513672,9.79502487182617,0.41608276963234,0.35938310623169,0.44608354568481,0.58144664764404,1.15482532978058
20,2630380468,44.81421661376953,-87.03311157226562,-17.47756958007812,9.85595226287842,0.41635698080063,0.33907458186150,0.56910133361816,1.22075247764587,1.20455241203308
21,2630397135,43.99228668212891,-87.00389099121094,-16.64517021179199,9.83019733428955,0.40253835916519,0.39654502272606,0.60954380035400,2.09297990798950,1.28300404548645
22,2630413802,43.25218582153320,-86.97702789306641,-15.91056060791016,9.76475906372070,0.43324258923531,0.40372914075851,0.49339663982391,1.81870031356812,1.25578439235687
23,2630430469,42.67416381835938,-86.95676422119141,-15.34097766876221,9.75304603576660,0.44046372175217,0.45046985149384,0.20740523934364,1.17916381359100,1.18154597282410
24,2630447136,42.20418167114258,-86.94341278076172,-14.89054203033447,9.78674602508545,0.44420993328094,0.49578660726547,-0.36307919025421,0.61209231615067,1.22449195384979
25,2630463803,41.83434295654297,-86.93695068359375,-14.53989982604980,9.74599742889404,0.44305032491684,0.43941447138786,-0.66035944223404,0.08528389036655,1.25972867012024
26,2630480470,41.56815719604492,-86.93420410156250,-14.30068111419678,9.77173614501953,0.40169987082481,0.42401373386383,-0.66878598928452,-0.31625279784203,1.18461930751801
27,2630497137,41.34854507446289,-86.93740081787109,-14.07426166534424,9.79736804962158,0.35621252655983,0.42508986592293,-0.44514235854149,-0.67520838975906,1.30504393577576
28,2630513804,41.20049285888672,-86.94027709960938,-13.94113731384277,9.75197315216064,0.32289010286331,0.43904808163643,-0.25581961870193,-0.80249702930450,1.13612163066864
29,2630530471,41.28185653686523,-86.94969940185547,-14.02682685852051,9.71034622192383,0.28569042682648,0.38742488622665,0.32134336233139,-1.55704736709595,0.86531871557236
30,2630547138,41.51324081420898,-86.96262359619141,-14.24350547790527,9.79810905456543,0.30579784512520,0.41269326210022,1.04943561553955,-2.00680637359619,0.67961388826370
31,2630563805,41.74208068847656,-86.97055816650391,-14.45126628875732,9.83360576629639,0.34622579813004,0.41691109538078,1.71508407592773,-1.75468778610229,0.52370929718018
32,2630580472,41.93468093872070,-86.97897338867188,-14.62424278259277,9.83672142028809,0.38728916645050,0.41022437810898,1.93463599681854,-1.68192183971405,0.63264006376266
33,2630597139,41.99077606201172,-86.98234558105469,-14.65795707702637,9.83398723602295,0.41261968016624,0.42351019382477,2.01939487457275,-1.17150568962097,0.76073563098907
34,2630613806,42.07048416137695,-86.97962188720703,-14.71132946014404,9.84559440612793,0.44083693623543,0.44982913136482,2.11523747444153,-0.93858379125595,0.45586758852005
35,2630630473,42.26570129394531,-86.97016906738281,-14.91062545776367,9.82651996612549,0.51662695407867,0.43458154797554,1.06993842124939,-0.93251997232437,-0.10831611603498
36,2630647140,42.56217575073242,-86.95849609375000,-15.20697212219238,9.78098583221436,0.49789848923683,0.38086923956871,0.70480388402939,-1.06698668003082,-0.45725074410439
37,2630663807,42.81846618652344,-86.94706726074219,-15.46259403228760,9.81031322479248,0.47089037299156,0.36242890357971,0.78490763902664,-0.98202937841415,-0.36486572027206
38,2630680474,43.05471801757812,-86.92993164062500,-15.68530082702637,9.84817695617676,0.41432335972786,0.40470781922340,0.89157801866531,-0.69795250892639,-0.54818224906921
39,2630697141,43.27684783935547,-86.91485595703125,-15.89433193206787,9.82205200195312,0.45351344347000,0.42046043276787,1.04425537586212,-0.75763005018234,-0.42842999100685
40,2630713808,43.38015747070312,-86.90863800048828,-15.98453617095947,9.79580688476562,0.46382522583008,0.37647747993469,1.06254923343658,-0.89234650135040,0.21830345690250
41,2630730475,43.36605453491211,-86.90250396728516,-15.97264194488525,9.80129814147949,0.43759125471115,0.32367604970932,0.54480773210526,-0.65815037488937,0.48302990198135
42,2630747142,43.28569793701172,-86.88857269287109,-15.90009975433350,9.81685352325439,0.40767350792885,0.37932091951370,0.64286589622498,-0.15559074282646,0.31233403086662
43,2630763809,43.17970657348633,-86.87194061279297,-15.80442237854004,9.78666305541992,0.42983865737915,0.36943653225899,0.50565236806870,0.01869086734951,0.25857940316200
44,2630780476,43.16482925415039,-86.86187744140625,-15.78940296173096,9.74373817443848,0.41131031513214,0.40856379270554,0.46452468633652,-0.48087200522423,0.31355065107346
45,2630797143,43.32804489135742,-86.86038208007812,-15.96134948730469,9.77058410644531,0.35874882340431,0.35745424032211,0.35890436172485,-1.26288545131683,0.24442841112614
46,2630813810,43.48886489868164,-86.85166931152344,-16.12750816345215,9.83717155456543,0.33648490905762,0.36644321680069,0.45398506522179,-0.94115781784058,-0.04299731925130
47,2630830477,43.64152526855469,-86.83869934082031,-16.27868652343750,9.81719493865967,0.33802291750908,0.32703825831413,0.89337736368179,-0.72204750776291,-0.18681901693344
48,2630847144,43.58738708496094,-86.82540893554688,-16.20603179931641,9.74809741973877,0.37354016304016,0.37089437246323,1.76556015014648,-0.20203937590122,0.32278400659561
49,2630863811,43.56974029541016,-86.82664489746094,-16.17119789123535,9.78045558929443,0.40847080945969,0.41730439662933,1.86970150470734,-0.91259974241257,0.84182536602020
50,2630880478,43.45578384399414,-86.82621002197266,-16.02217674255371,9.83275699615479,0.38270834088326,0.39833843708038,2.08612251281738,-0.60734117031097,1.00141179561615
51,2630897145,43.31814575195312,-86.82097625732422,-15.85815715789795,9.77837276458740,0.39726960659027,0.47447791695595,2.09497809410095,-0.36058199405670,0.88228070735931
52,2630913812,43.29621124267578,-86.82356262207031,-15.80787849426270,9.73731517791748,0.44325518608093,0.49290364980698,2.10182309150696,-0.95747953653336,0.91866993904114
53,2630930479,43.36759185791016,-86.83429718017578,-15.86155414581299,9.74374866485596,0.43978694081306,0.47434800863266,1.75611543655396,-1.54030930995941,1.01944303512573
54,2630947146,43.50792694091797,-86.84992980957031,-15.98294639587402,9.75514507293701,0.40040582418442,0.43691161274910,1.61949729919434,-1.91066884994507,1.04943549633026
55,2630963813,43.63247299194336,-86.86681365966797,-16.08145523071289,9.77502059936523,0.39521872997284,0.40024617314339,1.83776867389679,-1.91153991222382,1.14144909381866
56,2630980480,43.76158142089844,-86.88221740722656,-16.18376541137695,9.79360675811768,0.40511006116867,0.40993404388428,1.76297962665558,-1.87902438640594,1.08962190151215
57,2630997147,43.92855072021484,-86.89758300781250,-16.33693122863770,9.78847217559814,0.42993065714836,0.41750350594521,1.38194608688354,-1.97797286510468,0.99489974975586
58,2631013814,44.10721588134766,-86.91701507568359,-16.50690841674805,9.79488945007324,0.43938201665878,0.40277999639511,1.11900615692139,-2.17084932327271,1.11636793613434
59,2631030481,44.33177185058594,-86.93861389160156,-16.73042297363281,9.82815933227539,0.40430974960327,0.40574133396149,0.99598193168640,-2.36699771881104,1.10752522945404
60,2631047148,44.55471420288086,-86.96127319335938,-16.94182395935059,9.82689476013184,0.39227691292763,0.43198275566101,1.06131970882416,-2.40541625022888,1.16685688495636
61,2631063815,44.80755615234375,-86.98195648193359,-17.16347885131836,9.78997230529785,0.36801227927208,0.40559896826744,1.31482791900635,-2.37468791007996,1.02966880798340
62,2631080482,45.02622222900391,-87.00082397460938,-17.36216354370117,9.80782604217529,0.38330584764481,0.41552734375000,1.59406411647797,-2.20452356338501,1.05495512485504
63,2631097149,45.26593017578125,-87.01882934570312,-17.57728576660156,9.79592418670654,0.38519030809402,0.41019931435585,1.84967911243439,-2.20397305488586,0.99207603931427
64,2631113816,45.43945312500000,-87.03813171386719,-17.74072647094727,9.81631183624268,0.41310065984726,0.42090636491776,1.67608213424683,-2.10894966125488,1.19149005413055
65,2631130483,45.49859619140625,-87.05523681640625,-17.78890609741211,9.84247207641602,0.43590661883354,0.40562483668327,1.28144800662994,-1.78984093666077,1.34375095367432
66,2631147150,45.48164367675781,-87.06969451904297,-17.77258682250977,9.81746387481689,0.41555309295654,0.41896501183510,0.96609187126160,-1.50004625320435,1.36102700233459
67,2631163817,45.45566177368164,-87.08395385742188,-17.74127197265625,9.81732940673828,0.41929152607918,0.42102709412575,0.67438882589340,-1.48755991458893,1.36170554161072
68,2631180484,45.40148544311523,-87.09477996826172,-17.68641662597656,9.82314968109131,0.44943004846573,0.45426782965660,0.77676272392273,-1.30042076110840,1.30343663692474
69,2631197151,45.42164993286133,-87.11513519287109,-17.70905113220215,9.80309867858887,0.43369400501251,0.47640535235405,0.44291400909424,-1.85879027843475,1.52319371700287
70,2631213818,45.47949218750000,-87.13994598388672,-17.76544570922852,9.78491497039795,0.41322940587997,0.41899737715721,0.16196832060814,-2.13808417320251,1.62276303768158
71,2631230485,45.54951477050781,-87.15552520751953,-17.85708999633789,9.79473876953125,0.39767301082611,0.40052893757820,0.10506328940392,-1.77551734447479,1.21523308753967
72,2631247152,45.58091354370117,-87.16089630126953,-17.90107536315918,9.83380699157715,0.41993066668510,0.44737240672112,0.13303235173225,-1.26481258869171,0.85613006353378
73,2631263819,45.76605987548828,-87.17367553710938,-18.09535789489746,9.81326198577881,0.40513768792152,0.47166004776955,0.15794071555138,-1.88968563079834,0.85002142190933
74,2631280486,46.00992965698242,-87.19509124755859,-18.33828544616699,9.81272888183594,0.39915001392365,0.42095524072647,0.42855167388916,-2.37997698783875,1.13297784328461
75,2631297153,46.15763854980469,-87.21041870117188,-18.49219131469727,9.81087017059326,0.37994822859764,0.37270209193230,0.19664150476456,-1.92026734352112,1.05834245681763
76,2631313820,46.30450820922852,-87.22194671630859,-18.66475677490234,9.79033851623535,0.39113566279411,0.35808989405632,-0.05427971109748,-1.75465559959412,0.88562309741974
77,2631330487,46.39702987670898,-87.23225402832031,-18.76958465576172,9.78992748260498,0.42304399609566,0.39045423269272,0.14099149405956,-1.59471070766449,0.95811343193054
78,2631347154,46.50081634521484,-87.24906921386719,-18.88277244567871,9.84855842590332,0.38926601409912,0.40866464376450,0.10822006314993,-1.89052462577820,1.22260308265686
79,2631363821,46.53179550170898,-87.26462554931641,-18.91783905029297,9.82798862457275,0.35030701756477,0.40201732516289,0.34233295917511,-1.66394186019897,1.30357754230499
80,2631380488,46.63943862915039,-87.27847290039062,-19.02722930908203,9.78700923919678,0.33913591504097,0.44022938609123,0.50798958539963,-1.74971246719360,1.09343171119690
81,2631397155,46.82963562011719,-87.29260253906250,-19.22122764587402,9.79478359222412,0.33333697915077,0.42895171046257,0.50569719076157,-1.94281935691833,0.96440786123276
82,2631413822,47.02841186523438,-87.30754089355469,-19.41234588623047,9.79849624633789,0.33766505122185,0.42992743849754,0.78644436597824,-1.95956385135651,0.97044599056244
83,2631430489,47.23678970336914,-87.32022094726562,-19.61027908325195,9.79302692413330,0.29509755969048,0.38470715284348,0.88399666547775,-1.89373266696930,0.87751668691635
84,2631447156,47.25069427490234,-87.32277679443359,-19.61749458312988,9.85616016387939,0.30117255449295,0.38802862167358,1.01978242397308,-1.06737720966339,0.79594027996063
85,2631463823,47.18005752563477,-87.31336212158203,-19.53188896179199,9.88736343383789,0.33920523524284,0.42004296183586,1.18187260627747,-0.39939805865288,0.42939695715904
86,2631480490,47.11460494995117,-87.30413055419922,-19.44925689697266,9.85521316528320,0.36022344231606,0.43595626950264,1.23953938484192,-0.42130967974663,0.43696543574333
87,2631497157,47.10586929321289,-87.30078887939453,-19.43088912963867,9.82900905609131,0.35211357474327,0.43198320269585,1.06171047687531,-0.77960574626923,0.57971781492233
88,2631513824,47.15261077880859,-87.29795837402344,-19.47388267517090,9.80442523956299,0.33866938948631,0.40070429444313,1.10467576980591,-0.92101353406906,0.51029461622238
89,2631530491,47.16743087768555,-87.29325103759766,-19.48030662536621,9.81732273101807,0.33687224984169,0.39749619364738,1.09268271923065,-0.76707476377487,0.47119048237801
90,2631547158,47.11740493774414,-87.28660583496094,-19.42190551757812,9.81998634338379,0.34444400668144,0.41148224473000,1.10057127475739,-0.54996860027313,0.50724023580551
91,2631563825,47.02049636840820,-87.28105926513672,-19.31139373779297,9.78743934631348,0.33659210801125,0.44923886656761,0.85223060846329,-0.51705634593964,0.64570254087448
92,2631580492,46.97573471069336,-87.27717590332031,-19.25872230529785,9.80460643768311,0.33728510141373,0.41453966498375,0.82996666431427,-0.69402086734772,0.62024992704391
93,2631597159,46.91938400268555,-87.27214813232422,-19.20650672912598,9.80537128448486,0.31551373004913,0.36307784914970,0.94521749019623,-0.62178671360016,0.60837203264236
94,2631613826,46.81948471069336,-87.26369476318359,-19.09729385375977,9.81408309936523,0.30778223276138,0.36717358231544,1.28272891044617,-0.36773437261581,0.53787314891815
95,2631630493,46.63580322265625,-87.24757385253906,-18.90490531921387,9.81787204742432,0.30835810303688,0.34811443090439,1.57454705238342,0.13361506164074,0.38004761934280
96,2631647160,46.47254562377930,-87.23430633544922,-18.73261451721191,9.79013824462891,0.33434888720512,0.36842659115791,1.42144083976746,-0.03004369884729,0.46521624922752
97,2631663827,46.34117889404297,-87.22540283203125,-18.59696006774902,9.81171798706055,0.32984834909439,0.37746870517731,1.43353641033173,-0.27435046434402,0.59691041707993
98,2631680494,46.25009536743164,-87.21456146240234,-18.49704742431641,9.79959774017334,0.30697694420815,0.39063775539398,1.52715075016022,-0.27545177936554,0.43911048769951
99,2631697161,46.13687515258789,-87.20159149169922,-18.37454032897949,9.80038642883301,0.30436396598816,0.36603176593781,1.62377476692200,-0.13769386708736,0.39892417192459
100,2631713828,45.99582290649414,-87.18812561035156,-18.21622467041016,9.80862998962402,0.31562381982803,0.39526981115341,1.62531161308289,-0.05410683155060,0.42896792292595
101,2631730495,45.90967559814453,-87.18255615234375,-18.11019897460938,9.80385208129883,0.34066241979599,0.39665886759758,1.65728867053986,-0.50988471508026,0.67788481712341
102,2631747162,45.79528045654297,-87.17936706542969,-17.98135757446289,9.80254173278809,0.33137050271034,0.38858526945114,1.59343612194061,-0.54316842556000,0.82902532815933
103,2631763829,45.66783142089844,-87.17229461669922,-17.83288574218750,9.78977870941162,0.33726671338081,0.38638505339622,1.61509835720062,-0.34463804960251,0.67887735366821
104,2631780496,45.60145950317383,-87.16393280029297,-17.75917243957520,9.77233695983887,0.30733376741409,0.37833160161972,1.46796619892120,-0.42421671748161,0.50171434879303
105,2631797163,45.61864852905273,-87.15800476074219,-17.77319526672363,9.77800655364990,0.33114188909531,0.39758321642876,1.46853590011597,-0.71447902917862,0.44936838746071
106,2631813830,45.60405731201172,-87.15386962890625,-17.73245620727539,9.84504127502441,0.33667409420013,0.39136880636215,1.31229877471924,-0.72080540657043,0.56589347124100
107,2631830497,45.52536392211914,-87.14913177490234,-17.65518951416016,9.85246276855469,0.33697769045830,0.44113239645958,1.01251482963562,-0.56476002931595,0.66804963350296
108,2631847164,45.42554473876953,-87.14398956298828,-17.53981971740723,9.78675460815430,0.36168357729912,0.41702792048454,1.10552740097046,-0.50865542888641,0.70112842321396
109,2631863831,45.30662536621094,-87.14220428466797,-17.41898918151855,9.78071498870850,0.37212973833084,0.39816600084305,0.60564428567886,-0.62456566095352,0.86726528406143
110,2631880498,45.27270889282227,-87.14865112304688,-17.38380622863770,9.74918174743652,0.38260623812675,0.38505598902702,0.31823140382767,-1.17062842845917,1.03839659690857
111,2631897165,45.12782669067383,-87.15786743164062,-17.24790191650391,9.79965400695801,0.38543620705605,0.37313899397850,-0.03295714408159,-1.05577468872070,1.36442697048187
112,2631913832,44.84968566894531,-87.16710662841797,-16.97994995117188,9.82502937316895,0.34358951449394,0.38916167616844,-0.02859017811716,-0.78270494937897,1.64424574375153
113,2631930499,44.54433441162109,-87.17874145507812,-16.68500900268555,9.82438373565674,0.31165111064911,0.36627960205078,-0.10718914121389,-0.84783154726028,1.80739212036133
114,2631947166,44.19398498535156,-87.18345642089844,-16.34089660644531,9.84631443023682,0.31496363878250,0.38416418433189,0.05597014725208,-0.46118223667145,1.61601400375366
115,2631963833,43.76890563964844,-87.17471313476562,-15.93493556976318,9.85507774353027,0.31826847791672,0.38477218151093,-0.07274006307125,0.27646985650063,1.20125472545624
116,2631980500,43.18672180175781,-87.15174102783203,-15.38440895080566,9.82988739013672,0.30935773253441,0.42360252141953,-1.65792286396027,1.14467644691467,0.92124408483505
117,2631997167,42.73965835571289,-87.13420104980469,-14.97054576873779,9.82154178619385,0.29337105154991,0.45921027660370,-1.71647977828979,0.65653026103973,0.85324865579605
118,2632013834,42.35581207275391,-87.11697387695312,-14.59885692596436,9.81897735595703,0.29398387670517,0.42257329821587,-0.03270741552114,0.57339787483215,0.81246680021286
119,2632030501,42.01271438598633,-87.09653472900391,-14.24252700805664,9.83694076538086,0.32042926549911,0.45142841339111,0.73322123289108,0.66285026073456,0.63032221794128
120,2632047168,41.75975799560547,-87.07952880859375,-13.98434448242188,9.78135204315186,0.33199805021286,0.45764744281769,1.00732195377350,0.32675403356552,0.60810953378677
121,2632063835,41.66279220581055,-87.07330322265625,-13.86528968811035,9.78891754150391,0.31170129776001,0.44916605949402,1.30946850776672,-0.45629024505615,0.69266349077225
122,2632080502,41.56217956542969,-87.06508636474609,-13.74540710449219,9.82843589782715,0.32809001207352,0.44021731615067,1.50625085830688,-0.33738327026367,0.61888605356216
123,2632097169,41.47776412963867,-87.05410003662109,-13.64549446105957,9.84539794921875,0.34064054489136,0.42086073756218,1.54034137725830,-0.24510075151920,0.47902789711952
124,2632113836,41.34878921508789,-87.03569030761719,-13.50473594665527,9.87328433990479,0.38763177394867,0.39632815122604,1.30931472778320,0.15658964216709,0.29505187273026
125,2632130503,41.20402145385742,-87.01750946044922,-13.35493564605713,9.87053203582764,0.37966164946556,0.40604439377785,1.15028560161591,0.19333106279373,0.32710620760918
126,2632147170,40.99934387207031,-86.99547576904297,-13.14426803588867,9.84235000610352,0.36314913630486,0.41080585122108,1.24000692367554,0.49063047766685,0.32993641495705
127,2632163837,40.79581451416016,-86.96559143066406,-12.92743778228760,9.81974887847900,0.33614382147789,0.40956443548203,1.50436198711395,0.87448167800903,0.02341000922024
128,2632180504,40.64104080200195,-86.93318176269531,-12.74965381622314,9.79725456237793,0.33101141452789,0.41952288150787,1.86912500858307,0.87463521957397,-0.13931387662888
129,2632197171,40.61972808837891,-86.90744018554688,-12.69419765472412,9.82501983642578,0.34205409884453,0.43100020289421,2.53266716003418,0.34919717907906,-0.19534808397293
130,2632213838,40.63622283935547,-86.88385009765625,-12.66990852355957,9.80645561218262,0.39620491862297,0.44110330939293,2.96091127395630,0.17423678934574,-0.17360287904739
131,2632230505,40.69860076904297,-86.86175537109375,-12.69194316864014,9.76646518707275,0.37951260805130,0.45812463760376,3.10451579093933,0.02273127250373,-0.22924007475376
132,2632247172,40.72865676879883,-86.83820343017578,-12.67605304718018,9.74280548095703,0.38450127840042,0.43443137407303,3.11691188812256,0.14348234236240,-0.19744190573692
133,2632263839,40.67554855346680,-86.81034088134766,-12.58117485046387,9.78109931945801,0.38711217045784,0.43299779295921,2.89030385017395,0.52759605646133,-0.18034543097019
134,2632280506,40.68731307983398,-86.78381347656250,-12.56524944305420,9.77825164794922,0.39451071619987,0.46054670214653,2.65323233604431,0.30986243486404,-0.28570324182510
135,2632297173,40.70105743408203,-86.75592803955078,-12.54153823852539,9.79215335845947,0.39845922589302,0.44679936766624,3.03906869888306,0.38876876235008,-0.33678138256073
136,2632313840,40.77470016479492,-86.72805023193359,-12.57308864593506,9.82703685760498,0.37415692210197,0.42393502593040,3.07734656333923,0.24117557704449,-0.47599923610687
137,2632330507,40.95060348510742,-86.70170593261719,-12.69271564483643,9.87303638458252,0.36123171448708,0.36513420939445,3.40986371040344,-0.03940514102578,-0.68334686756134
138,2632347174,40.98304367065430,-86.66082763671875,-12.66792678833008,9.85149097442627,0.34473314881325,0.39281886816025,4.07008218765259,0.97049713134766,-0.85534888505936
139,2632363841,40.94805145263672,-86.61273956298828,-12.55696392059326,9.80589103698730,0.34494802355766,0.42144778370857,4.64166831970215,1.47620725631714,-0.94069045782089
140,2632380508,40.92264175415039,-86.56772613525391,-12.46284961700439,9.77876091003418,0.43608257174492,0.49374234676361,4.74427270889282,1.31284940242767,-0.82302576303482
141,2632397175,40.98811721801758,-86.53395080566406,-12.46117305755615,9.75109291076660,0.51122146844864,0.52836763858795,4.49243593215942,0.59345275163651,-0.64869296550751
142,2632413842,41.04014968872070,-86.51187133789062,-12.46360778808594,9.72893238067627,0.51980900764465,0.49798622727394,3.74882888793945,0.05309512838721,-0.17455697059631
143,2632430509,41.06834411621094,-86.49200439453125,-12.44418430328369,9.73975467681885,0.50648874044418,0.47919240593910,3.18488788604736,-0.01737181283534,-0.04672396555543
144,2632447176,41.17341613769531,-86.47213745117188,-12.50579643249512,9.72978019714355,0.49103042483330,0.49684265255928,3.15415263175964,-0.20421643555164,-0.26107665896416
145,2632463843,41.32005310058594,-86.45226287841797,-12.62246513366699,9.73201465606689,0.46662977337837,0.52890646457672,2.62020516395569,-0.31757828593254,-0.41224279999733
146,2632480510,41.45160293579102,-86.43344116210938,-12.72912883758545,9.77052116394043,0.47100067138672,0.55376762151718,2.01078248023987,-0.35979437828064,-0.35971754789352
147,2632497177,41.66294860839844,-86.41931152343750,-12.91163730621338,9.76696205139160,0.48418611288071,0.54313248395920,1.70996141433716,-0.80183118581772,-0.40199130773544
148,2632513844,42.00091552734375,-86.41073608398438,-13.24048328399658,9.77746963500977,0.47711944580078,0.51386833190918,1.24202358722687,-1.37925004959106,-0.56322950124741
149,2632530511,42.34989166259766,-86.40414428710938,-13.58052444458008,9.80520057678223,0.48444169759750,0.53340756893158,0.89622670412064,-1.51918518543243,-0.53263527154922
150,2632547178,42.68181991577148,-86.40147399902344,-13.90909004211426,9.77100658416748,0.46359091997147,0.51557302474976,0.70809507369995,-1.67014002799988,-0.32679241895676
151,2632563845,42.96597671508789,-86.40060424804688,-14.18807506561279,9.78810882568359,0.46086189150810,0.51622694730759,0.37049415707588,-1.64405369758606,-0.14083142578602
152,2632580512,43.31195831298828,-86.40114593505859,-14.54223632812500,9.79980373382568,0.47087204456329,0.52554816007614,-0.05018807947636,-1.90421450138092,-0.24800774455070
153,2632597179,43.71023941040039,-86.40414428710938,-14.95036602020264,9.82802581787109,0.46755382418633,0.49437719583511,-0.08653251081705,-2.13731575012207,-0.30023208260536
154,2632613846,44.05941009521484,-86.40495300292969,-15.31093502044678,9.84515666961670,0.44177868962288,0.50234717130661,-0.27775692939758,-1.93715250492096,-0.25056904554367
155,2632630513,44.40752792358398,-86.40370178222656,-15.67138767242432,9.82233238220215,0.43771165609360,0.52262425422668,-0.12565590441227,-1.83445823192596,-0.33073678612709
156,2632647180,44.74755859375000,-86.40256500244141,-16.02795600891113,9.80257987976074,0.42807424068451,0.47698596119881,0.24330779910088,-1.81517827510834,-0.27083507180214
157,2632663847,45.04604339599609,-86.40076446533203,-16.34293174743652,9.80175304412842,0.45555320382118,0.52169162034988,0.51300960779190,-1.66154086589813,-0.17797626554966
158,2632680514,45.38185501098633,-86.40414428710938,-16.68756866455078,9.79376506805420,0.45016175508499,0.48747622966766,0.48328593373299,-1.99614453315735,-0.04818388819695
159,2632697181,45.68681716918945,-86.41160583496094,-16.98960304260254,9.80329036712646,0.44423544406891,0.51107996702194,0.44601318240166,-2.09373593330383,0.21088854968548
160,2632713848,45.88504409790039,-86.41893005371094,-17.18535232543945,9.82192134857178,0.44895899295807,0.49802613258362,0.47610804438591,-1.79893350601196,0.49039995670319
161,2632730515,46.02847290039062,-86.42521667480469,-17.32817649841309,9.82370471954346,0.43942007422447,0.47968387603760,0.63591206073761,-1.60103058815002,0.60118126869202
162,2632747182,46.07055664062500,-86.42762756347656,-17.36825180053711,9.83310508728027,0.43062487244606,0.48273557424545,0.70962542295456,-1.15470373630524,0.68998050689697
163,2632763849,46.07711791992188,-86.42927551269531,-17.37130165100098,9.82975482940674,0.42684206366539,0.46060952544212,0.79172050952911,-1.03526520729065,0.76467353105545
164,2632780516,46.04064941406250,-86.42138671875000,-17.32925415039062,9.83566474914551,0.44011414051056,0.50182151794434,0.91664648056030,-0.50197052955627,0.45417082309723
165,2632797183,46.00835800170898,-86.41226196289062,-17.28109931945801,9.80904197692871,0.44848421216011,0.51275914907455,1.02843308448792,-0.46845626831055,0.40259960293770
166,2632813850,46.03910064697266,-86.40795135498047,-17.31232643127441,9.78217697143555,0.46913734078407,0.52337813377380,0.67192995548248,-0.84099292755127,0.42269277572632
167,2632830517,46.11242294311523,-86.40489959716797,-17.38596343994141,9.76817512512207,0.49111428856850,0.49324873089790,0.50239312648773,-1.03691101074219,0.37973392009735
168,2632847184,46.14868927001953,-86.40740966796875,-17.41760826110840,9.76054000854492,0.48568075895309,0.51200360059738,0.45358172059059,-1.15908992290497,0.69772201776505
169,2632863851,46.20492553710938,-86.41499328613281,-17.47181510925293,9.76143741607666,0.48337540030479,0.50929707288742,0.33122983574867,-1.43356847763062,0.86617672443390
170,2632880518,46.28690338134766,-86.43173980712891,-17.56196784973145,9.74180412292480,0.46972629427910,0.50871902704239,-0.25759974122047,-1.90503430366516,1.16822719573975
171,2632897185,46.37610244750977,-86.45481109619141,-17.67661666870117,9.74877166748047,0.46141457557678,0.44099417328835,-0.58869504928589,-2.20275616645813,1.42367541790009
172,2632913852,46.34005737304688,-86.46808624267578,-17.65585136413574,9.85941791534424,0.42938801646233,0.45600220561028,-0.39368000626564,-1.45308518409729,1.32507944107056
173,2632930519,46.27621841430664,-86.47364044189453,-17.60650062561035,9.87965488433838,0.41057822108269,0.49971199035645,-0.43972522020340,-1.05326461791992,1.04886567592621
174,2632947186,46.27588272094727,-86.48342132568359,-17.61716461181641,9.84056663513184,0.42107835412025,0.48260831832886,-0.35647755861282,-1.40750765800476,1.08679175376892
175,2632963853,46.14670562744141,-86.49485015869141,-17.50412559509277,9.84512805938721,0.40225368738174,0.44842901825905,-0.18205507099628,-1.11898040771484,1.48699009418488
176,2632980520,45.97396850585938,-86.50688934326172,-17.34693527221680,9.80822563171387,0.39503097534180,0.47776493430138,-0.53787940740585,-1.05197739601135,1.60699820518494
177,2632997187,45.85095214843750,-86.51923370361328,-17.25295257568359,9.77278518676758,0.44939765334129,0.47169491648674,-0.64632362127304,-1.19966053962708,1.49029409885406
178,2633013854,45.71402359008789,-86.53332519531250,-17.13987922668457,9.79454612731934,0.45149815082550,0.49845281243324,-0.85490071773529,-1.25319111347198,1.59123384952545
179,2633030521,45.56678771972656,-86.54928588867188,-17.03153419494629,9.79000377655029,0.41758406162262,0.48669725656509,-0.86123979091644,-1.31112694740295,1.70398080348969
180,2633047188,45.41307449340820,-86.56743621826172,-16.89279365539551,9.76272010803223,0.40706431865692,0.49370044469833,-0.76868832111359,-1.38071680068970,1.79785156250000
181,2633063855,45.33251953125000,-86.58310699462891,-16.81771278381348,9.76263427734375,0.39624491333961,0.51329416036606,-0.52280002832413,-1.46018660068512,1.51797509193420
182,2633080522,45.32841873168945,-86.59745788574219,-16.83007431030273,9.77848625183105,0.40364784002304,0.49566206336021,-0.19230012595654,-1.58126378059387,1.28571259975433
183,2633097189,45.38942337036133,-86.61447906494141,-16.90077590942383,9.79258251190186,0.39677289128304,0.48592260479927,0.07365571707487,-1.85496139526367,1.25962626934052
184,2633113856,45.46660232543945,-86.63338470458984,-16.98410606384277,9.81616306304932,0.40555945038795,0.48216587305069,0.22710782289505,-1.95577943325043,1.29525995254517
185,2633130523,45.53137207031250,-86.65297698974609,-17.05097961425781,9.83612155914307,0.40170580148697,0.49758571386337,0.61298877000809,-1.94091117382050,1.37915432453156
186,2633147190,45.60970306396484,-86.67362976074219,-17.12226295471191,9.85199356079102,0.42342013120651,0.50475615262985,0.96107804775238,-2.00408482551575,1.40752041339874
187,2633163857,45.67961120605469,-86.69068908691406,-17.18820953369141,9.83114242553711,0.42187497019768,0.49651673436165,0.67201966047287,-1.83731424808502,1.25837123394012
188,2633180524,45.78798294067383,-86.70729064941406,-17.29463005065918,9.79258060455322,0.41538408398628,0.50096350908279,0.58226627111435,-1.93038439750671,1.16076755523682
189,2633197191,45.85392761230469,-86.72344207763672,-17.36242866516113,9.81586933135986,0.40743032097816,0.48459014296532,0.82635539770126,-1.77372431755066,1.23690140247345
190,2633213858,45.89828491210938,-86.73481750488281,-17.42375755310059,9.81188106536865,0.42710638046265,0.47425875067711,0.78635466098785,-1.53105020523071,1.09930324554443
191,2633230525,45.94902038574219,-86.74688720703125,-17.47287368774414,9.81976413726807,0.40661263465881,0.47212627530098,0.83756089210510,-1.57992577552795,1.11649608612061
192,2633247192,46.02370071411133,-86.75894927978516,-17.52728080749512,9.83813476562500,0.42723533511162,0.48653131723404,0.87417417764664,-1.61885714530945,1.03331887722015
193,2633263859,46.13064193725586,-86.77032470703125,-17.62759399414062,9.81088638305664,0.42801338434219,0.45777153968811,0.98177319765091,-1.67675471305847,0.95669841766357
194,2633280526,46.19987106323242,-86.77888488769531,-17.68689155578613,9.82113265991211,0.39686203002930,0.48461353778839,1.04118812084198,-1.46443164348602,0.92576462030411
195,2633297193,46.19573211669922,-86.78502655029297,-17.66985130310059,9.79380226135254,0.38731515407562,0.46471720933914,1.06681382656097,-1.18244862556458,0.98907917737961
196,2633313860,46.22993087768555,-86.79179382324219,-17.70306777954102,9.80909252166748,0.37088185548782,0.45763266086578,0.99741607904434,-1.29569518566132,0.92180746793747
197,2633330527,46.27960968017578,-86.79796600341797,-17.74196052551270,9.82793903350830,0.36480575799942,0.44058454036713,1.19013881683350,-1.30902659893036,0.87377077341080
198,2633347194,46.25697326660156,-86.79900360107422,-17.69088935852051,9.84079837799072,0.36920931935310,0.44570863246918,1.24794030189514,-0.91429018974304,0.80505847930908
199,2633363861,46.24368667602539,-86.79667663574219,-17.66543769836426,9.80617523193359,0.38152900338173,0.48546805977821,1.24047434329987,-0.79303961992264,0.64118832349777
200,2633380528,46.30224609375000,-86.79484558105469,-17.72112464904785,9.79972553253174,0.39573252201080,0.47771933674812,1.39576399326324,-0.99110263586044,0.52180749177933
201,2633397195,46.32250595092773,-86.79637145996094,-17.72875022888184,9.80406188964844,0.39250820875168,0.44950586557388,1.57209467887878,-1.02164578437805,0.74827498197556
202,2633413862,46.27414703369141,-86.79845428466797,-17.66315460205078,9.80413913726807,0.38593655824661,0.44502741098404,1.34763133525848,-0.89095056056976,0.92005294561386
203,2633430529,46.25566864013672,-86.79692840576172,-17.62883186340332,9.78944778442383,0.39443960785866,0.43735992908478,1.06327915191650,-0.83490997552872,0.69215118885040
204,2633447196,46.23193359375000,-86.79258728027344,-17.59690475463867,9.78807640075684,0.38494935631752,0.43257564306259,0.77991312742233,-0.71090614795685,0.56750702857971
205,2633463863,46.16147232055664,-86.78844451904297,-17.52452468872070,9.81964492797852,0.38769382238388,0.43974092602730,0.62274712324142,-0.59806293249130,0.66435497999191
206,2633480530,46.12139511108398,-86.78788757324219,-17.48577117919922,9.82229900360107,0.35337486863136,0.47463503479958,0.32483944296837,-0.84437382221222,0.75021511316299
207,2633497197,46.04257965087891,-86.78941345214844,-17.40199089050293,9.80428504943848,0.36981686949730,0.43510857224464,0.65149104595184,-0.82988995313644,0.94880324602127
208,2633513864,45.85457229614258,-86.78941345214844,-17.22938346862793,9.80758476257324,0.38729164004326,0.45286807417870,0.01229409594089,-0.52464419603348,1.11127102375031
209,2633530531,45.74168014526367,-86.79325866699219,-17.12980651855469,9.78605747222900,0.38374164700508,0.43945720791817,-0.27750718593597,-0.87439829111099,1.08278954029083
210,2633547198,45.54346847534180,-86.79362487792969,-16.94741058349609,9.80043888092041,0.38073733448982,0.39666667580605,-0.41205716133118,-0.53807163238525,1.13523817062378
211,2633563865,45.26956558227539,-86.79167175292969,-16.68739128112793,9.82135009765625,0.37045338749886,0.45052832365036,-0.60276919603348,-0.26473286747932,1.20056319236755
212,2633580532,45.03713226318359,-86.79240417480469,-16.48227882385254,9.82534122467041,0.37933683395386,0.42052376270294,-0.80955344438553,-0.49222490191460,1.22326898574829
213,2633597199,44.78851699829102,-86.79277038574219,-16.26482772827148,9.77787113189697,0.35512763261795,0.44060298800468,-0.70080184936523,-0.42976826429367,1.24720394611359
214,2633613866,44.60382080078125,-86.78996276855469,-16.09017372131348,9.78259563446045,0.33409458398819,0.41399571299553,-0.66587901115417,-0.44987431168556,0.95812636613846
215,2633630533,44.47039794921875,-86.78709411621094,-15.96510601043701,9.79857349395752,0.34216293692589,0.42167165875435,-0.16175059974194,-0.54834866523743,0.85998475551605
216,2633647200,44.28313827514648,-86.78765106201172,-15.78001499176025,9.76532173156738,0.34910127520561,0.41498184204102,0.01808256655931,-0.56116783618927,1.13747274875641
217,2633663867,44.00908279418945,-86.78520965576172,-15.51340007781982,9.81084156036377,0.36921986937523,0.46231028437614,0.20540104806423,-0.21143925189972,1.22094464302063
218,2633680534,43.73187255859375,-86.78381347656250,-15.23453521728516,9.82488918304443,0.35342663526535,0.45069527626038,0.46321853995323,-0.26180663704872,1.30526161193848
219,2633697201,43.45265579223633,-86.78369140625000,-14.95927524566650,9.82275199890137,0.37749671936035,0.44613599777222,0.48123699426651,-0.30612936615944,1.36107158660889
220,2633713868,43.22463226318359,-86.78283691406250,-14.73353099822998,9.81065368652344,0.39328527450562,0.44317999482155,0.23357500135899,-0.40888750553131,1.20030069351196
221,2633730535,42.98204421997070,-86.78179931640625,-14.50026798248291,9.79621315002441,0.39733615517616,0.44170111417770,0.15790870785713,-0.37423998117447,1.23201560974121
222,2633747202,42.79334259033203,-86.78308105468750,-14.32530212402344,9.77984142303467,0.38732624053955,0.43272826075554,-0.14528805017471,-0.59723693132401,1.16903400421143
223,2633763869,42.60639190673828,-86.78040313720703,-14.15586090087891,9.80219459533691,0.39367938041687,0.43388855457306,0.01565576344728,-0.43362298607826,1.02594864368439
224,2633780536,42.42997360229492,-86.77857971191406,-13.99405670166016,9.82450199127197,0.39190375804901,0.43841704726219,-0.18940590322018,-0.49878168106079,1.02129995822906
225,2633797203,42.32600784301758,-86.77954864501953,-13.91024875640869,9.79881954193115,0.37467667460442,0.43526342511177,-0.42747598886490,-0.80198484659195,0.95050650835037
226,2633813870,42.19007492065430,-86.78058624267578,-13.79101943969727,9.81237220764160,0.38794240355492,0.45175582170486,-0.57592713832855,-0.73263841867447,1.01855933666229
227,2633830537,42.08398056030273,-86.78143310546875,-13.70628738403320,9.79439067840576,0.41177582740784,0.42137914896011,-0.86249488592148,-0.81625115871429,0.93727761507034
228,2633847204,41.97378158569336,-86.78186798095703,-13.62482452392578,9.82252693176270,0.39875388145447,0.42796382308006,-0.83877742290497,-0.77500182390213,0.92443269491196
229,2633863871,41.83986282348633,-86.77882385253906,-13.51459693908691,9.82181835174561,0.37462621927261,0.45372325181961,-0.87736308574677,-0.56595104932785,0.83760577440262
230,2633880538,41.80210113525391,-86.77973175048828,-13.48955726623535,9.80072689056396,0.36181661486626,0.46501627564430,-0.80077463388443,-0.96257013082504,0.75995445251465
231,2633897205,41.81401443481445,-86.78107452392578,-13.52670001983643,9.78829956054688,0.35859775543213,0.45681849122047,-0.58444982767105,-1.07348585128784,0.66020584106445
232,2633913872,41.90131759643555,-86.78095245361328,-13.61873245239258,9.78059482574463,0.35514864325523,0.45575773715973,-0.37340757250786,-1.18205177783966,0.42476743459702
233,2633930539,42.04583740234375,-86.78131866455078,-13.76910877227783,9.79649257659912,0.33359235525131,0.45197343826294,0.05876193940639,-1.32176911830902,0.33053830265999
234,2633947206,42.19247817993164,-86.78034210205078,-13.91711997985840,9.78614044189453,0.30037608742714,0.45444858074188,0.73262572288513,-1.22871172428131,0.29071694612503
235,2633963873,42.32103347778320,-86.78362274169922,-14.04144287109375,9.78904151916504,0.32781419157982,0.41386511921883,0.88075673580170,-1.38071036338806,0.52084714174271
236,2633980540,42.40549087524414,-86.78331756591797,-14.11328506469727,9.80660057067871,0.36253777146339,0.42177861928940,1.27292573451996,-1.09366869926453,0.48701271414757
237,2633997207,42.45862960815430,-86.77954864501953,-14.14901924133301,9.79158973693848,0.36021333932877,0.42801117897034,1.47981202602386,-0.87850910425186,0.44811975955963
238,2634013874,42.46405029296875,-86.77195739746094,-14.14483642578125,9.82539367675781,0.35556331276894,0.45684349536896,1.65468907356262,-0.59262657165527,0.42294889688492
239,2634030541,42.48033523559570,-86.76662445068359,-14.14640903472900,9.84539413452148,0.38124096393585,0.49977812170982,1.65525257587433,-0.70724344253540,0.47462248802185
240,2634047208,42.49556350708008,-86.76372528076172,-14.13857269287109,9.81857299804688,0.38840565085411,0.46428829431534,1.92880940437317,-0.80664640665054,0.58843261003494
241,2634063875,42.45338439941406,-86.75586700439453,-14.07233238220215,9.82993316650391,0.39731064438820,0.40523445606232,1.55358326435089,-0.47275927662849,0.51418137550354
242,2634080542,42.37809371948242,-86.74364471435547,-13.98607921600342,9.78465175628662,0.34957596659660,0.43657055497169,1.25223696231842,-0.20738601684570,0.40603172779083
243,2634097209,42.23340225219727,-86.72685241699219,-13.82942199707031,9.78971767425537,0.38248208165169,0.44485992193222,1.36018157005310,0.15990649163723,0.40386745333672
244,2634113876,42.05424118041992,-86.71020507812500,-13.64109802246094,9.78819656372070,0.41433402895927,0.44576001167297,1.14738488197327,0.22382938861847,0.49684798717499
245,2634130543,41.93540191650391,-86.69767761230469,-13.51902866363525,9.80593395233154,0.40109005570412,0.46287345886230,0.93091917037964,-0.10177845507860,0.50167590379715
246,2634147210,41.85691070556641,-86.68530273437500,-13.44392681121826,9.80380630493164,0.39753177762032,0.49766409397125,0.85084748268127,-0.20757810771465,0.41124388575554
247,2634163877,41.79008483886719,-86.67410278320312,-13.38107299804688,9.79746341705322,0.37455406785011,0.46628379821777,0.65798383951187,-0.28401920199394,0.41088533401489
248,2634180544,41.73017501831055,-86.66481781005859,-13.32441806793213,9.77653312683105,0.38835182785988,0.47350716590881,0.61056190729141,-0.39913544058800,0.47966822981834
249,2634197211,41.70306777954102,-86.65778350830078,-13.29628944396973,9.76675987243652,0.38278079032898,0.48403531312943,0.64033663272858,-0.57034361362457,0.47929683327675
250,2634213878,41.81127548217773,-86.65444183349609,-13.40513134002686,9.80859184265137,0.38406199216843,0.48420748114586,0.48254960775375,-1.05638289451599,0.26977214217186
251,2634230545,41.90012359619141,-86.65046691894531,-13.47889995574951,9.80535221099854,0.36632558703423,0.45607110857964,0.80505198240280,-0.97525489330292,0.30520734190941
252,2634247212,41.93606948852539,-86.64369201660156,-13.50915241241455,9.80224037170410,0.36877852678299,0.45846956968307,0.90960299968719,-0.72144573926926,0.33952835202217
253,2634263879,41.95050048828125,-86.63739776611328,-13.51641845703125,9.82865715026855,0.38643062114716,0.47162955999374,0.92294716835022,-0.68918645381927,0.41034746170044
254,2634280546,41.93994903564453,-86.63297271728516,-13.51772689819336,9.81045341491699,0.38411340117455,0.47187936306000,0.69540405273438,-0.71655374765396,0.54404574632645
255,2634297213,41.94290924072266,-86.63355255126953,-13.53112888336182,9.79132080078125,0.40756440162659,0.47232118248940,0.37285688519478,-1.00262832641602,0.70895957946777
256,2634313880,41.96041107177734,-86.63291931152344,-13.55517101287842,9.79596424102783,0.40916344523430,0.43167135119438,0.42502993345261,-0.96435028314590,0.60746920108795
257,2634330547,41.95212554931641,-86.62728118896484,-13.55684089660645,9.79846382141113,0.38393023610115,0.44242262840271,0.27321705222130,-0.69757461547852,0.47850283980370
258,2634347214,41.93231964111328,-86.61887359619141,-13.54288101196289,9.77620315551758,0.38923439383507,0.46019351482391,0.15669208765030,-0.54072248935699,0.37977868318558
259,2634363881,41.88377761840820,-86.61354827880859,-13.50486660003662,9.79393196105957,0.39088764786720,0.49523892998695,-0.04197921603918,-0.62543654441833,0.57676601409912
260,2634380548,41.84197998046875,-86.60985565185547,-13.46988773345947,9.80566978454590,0.37646943330765,0.50473988056183,-0.19295966625214,-0.71919816732407,0.61522984504700
261,2634397215,41.79496002197266,-86.60633087158203,-13.44019031524658,9.79428195953369,0.37059360742569,0.46306532621384,-0.05139187350869,-0.70742267370224,0.64791804552078
262,2634413882,41.74089050292969,-86.60315704345703,-13.39437866210938,9.79614925384521,0.36141145229340,0.46841210126877,-0.07567272335291,-0.70199280977249,0.66890764236450
263,2634430549,41.77324295043945,-86.60097503662109,-13.43536567687988,9.78366088867188,0.38074082136154,0.47855418920517,0.06957049667835,-0.95622444152832,0.49969732761383
264,2634447216,41.85269165039062,-86.60304260253906,-13.53056049346924,9.79957294464111,0.38588440418243,0.47943004965782,-0.06704764813185,-1.25769245624542,0.53667569160461
265,2634463883,41.92921447753906,-86.60517883300781,-13.61553478240967,9.81725692749023,0.39052999019623,0.45032167434692,-0.02832124009728,-1.25376081466675,0.54689514636993
266,2634480550,41.98384857177734,-86.60540771484375,-13.67924213409424,9.79722976684570,0.37292400002480,0.47522157430649,-0.08153162896633,-1.11563146114349,0.52219176292419
267,2634497217,42.09400558471680,-86.60587310791016,-13.79824542999268,9.77856826782227,0.37956517934799,0.49542465806007,0.13568328320980,-1.24752426147461,0.39540886878967
268,2634513884,42.22793197631836,-86.61187744140625,-13.93792533874512,9.80504035949707,0.39710152149200,0.51541364192963,0.01342105399817,-1.56848967075348,0.56196820735931
269,2634530551,42.39193725585938,-86.61979675292969,-14.11759281158447,9.81385803222656,0.42802035808563,0.44942289590836,-0.27238464355469,-1.73221886157990,0.55053216218948
270,2634547218,42.46049118041992,-86.62159729003906,-14.19926834106445,9.81175518035889,0.40959736704826,0.42277029156685,-0.11907985061407,-1.22171938419342,0.55242753028870
271,2634563885,42.51607894897461,-86.61754608154297,-14.26707744598389,9.81727409362793,0.38000801205635,0.50197350978851,-0.10401316732168,-0.92697483301163,0.34668067097664
272,2634580552,42.58763885498047,-86.61748504638672,-14.33895111083984,9.86120605468750,0.36633741855621,0.53114640712738,-0.08659654855728,-1.14874243736267,0.46741259098053
273,2634597219,42.69799041748047,-86.62339019775391,-14.45670890808105,9.84554672241211,0.39037454128265,0.51459306478500,0.10810481011868,-1.49939298629761,0.62691563367844
274,2634613886,42.70920181274414,-86.63076782226562,-14.47088146209717,9.81054782867432,0.41992694139481,0.47303986549377,0.26204991340637,-1.31732511520386,0.94488441944122
275,2634630553,42.72692871093750,-86.63535308837891,-14.50114440917969,9.79010581970215,0.39712247252464,0.45505005121231,0.10672171413898,-1.20445013046265,0.80128693580627
276,2634647220,42.79164123535156,-86.63495635986328,-14.57720851898193,9.76852989196777,0.39958480000496,0.45099425315857,0.31865403056145,-1.10389459133148,0.50314229726791
277,2634663887,42.82363891601562,-86.63308715820312,-14.62302207946777,9.78741931915283,0.41184672713280,0.46976980566978,-0.00386751745827,-0.97533160448074,0.51318240165710
278,2634680554,42.79640960693359,-86.63553619384766,-14.59612941741943,9.82674217224121,0.39823994040489,0.48112156987190,-0.00274055893533,-1.02202367782593,0.83298259973526
279,2634697221,42.81554031372070,-86.63925933837891,-14.62605667114258,9.80444622039795,0.39760333299637,0.49507796764374,0.06603594124317,-1.18278157711029,0.77074378728867
280,2634713888,42.87881088256836,-86.64462280273438,-14.69541168212891,9.77683448791504,0.36864235997200,0.46300733089447,0.23953635990620,-1.35351586341858,0.73270887136459
281,2634730555,42.96876144409180,-86.64807128906250,-14.80602169036865,9.80304145812988,0.37173101305962,0.47649419307709,0.50019687414169,-1.30886018276215,0.59429788589478
282,2634747222,43.06916046142578,-86.65192413330078,-14.90817356109619,9.77820110321045,0.39799001812935,0.48481202125549,0.55973351001740,-1.36254429817200,0.59153169393539
283,2634763889,43.17209625244141,-86.65806579589844,-15.01228618621826,9.80235862731934,0.38309109210968,0.48738503456116,0.51060843467712,-1.47193646430969,0.67768001556396
284,2634780556,43.30351638793945,-86.66822052001953,-15.14641952514648,9.81759166717529,0.36985057592392,0.49070903658867,0.44680073857307,-1.70868074893951,0.76192653179169
285,2634797223,43.41459655761719,-86.67628479003906,-15.25071620941162,9.82098865509033,0.36894929409027,0.48000270128250,0.84311872720718,-1.56632518768311,0.75698322057724
286,2634813890,43.55267333984375,-86.68070220947266,-15.37668895721436,9.80165290832520,0.39368534088135,0.50259959697723,0.79030549526215,-1.47952425479889,0.54247701168060
287,2634830557,43.72818756103516,-86.68542480468750,-15.54753398895264,9.80963420867920,0.39369174838066,0.45281764864922,0.77044290304184,-1.56412267684937,0.44654464721680
288,2634847224,43.82488632202148,-86.68814086914062,-15.64518070220947,9.82085609436035,0.40874800086021,0.45749080181122,0.47967463731766,-1.30237376689911,0.55287575721741
289,2634863891,43.87089157104492,-86.69091796875000,-15.69791412353516,9.82247352600098,0.37188827991486,0.45468661189079,0.38028451800346,-1.19673395156860,0.69085127115250
290,2634880558,43.88726806640625,-86.68991851806641,-15.71417903900146,9.81880378723145,0.36851060390472,0.46566972136497,0.60138618946075,-0.94909781217575,0.60887789726257
291,2634897225,43.95795440673828,-86.68394470214844,-15.78611755371094,9.84378719329834,0.38805612921715,0.46317252516747,0.69341266155243,-0.84623724222183,0.25770217180252
292,2634913892,43.98802947998047,-86.67292022705078,-15.81068611145020,9.81689548492432,0.39887812733650,0.46994197368622,0.84532791376114,-0.53796911239624,0.16584864258766
293,2634930559,43.94976425170898,-86.66246795654297,-15.78082466125488,9.80402374267578,0.39812541007996,0.48538520932198,0.68947476148605,-0.39813664555550,0.35243716835976
294,2634947226,43.90487289428711,-86.65355682373047,-15.73282146453857,9.80129432678223,0.36734342575073,0.46242472529411,0.75514554977417,-0.44977179169655,0.43542227149010
295,2634963893,43.86249923706055,-86.64258575439453,-15.68491458892822,9.82514190673828,0.41395777463913,0.42729136347771,0.91032016277313,-0.35570913553238,0.34657183289528
296,2634980560,43.73623657226562,-86.62628936767578,-15.55184268951416,9.83014011383057,0.42448899149895,0.45338475704193,0.94659423828125,0.07551905512810,0.34645020961761
297,2634997227,43.64157104492188,-86.61881256103516,-15.44799995422363,9.78748703002930,0.45384588837624,0.48594465851784,0.76137584447861,-0.39373758435249,0.62704998254776
298,2635013894,43.54193878173828,-86.62014770507812,-15.34072494506836,9.81578731536865,0.46160009503365,0.41473859548569,0.60857057571411,-0.76248377561569,0.98995655775070
299,2635030561,43.31395721435547,-86.61922454833984,-15.11811351776123,9.83471584320068,0.42849725484848,0.47578337788582,0.37464979290962,-0.36888051033020,1.22784721851349
300,2635047228,43.14311218261719,-86.62339019775391,-14.95004081726074,9.76428318023682,0.41912367939949,0.43714776635170,0.37659630179405,-0.72517871856689,1.28369569778442
301,2635063895,42.93153381347656,-86.62449645996094,-14.73864841461182,9.78401660919189,0.41746416687965,0.45847812294960,0.42854526638985,-0.50555622577667,1.27811849117279
302,2635080562,42.76266098022461,-86.62728118896484,-14.57123184204102,9.77303314208984,0.44412878155708,0.47428730130196,0.19422751665115,-0.68745768070221,1.22022104263306
303,2635097229,42.63296890258789,-86.63471984863281,-14.44885253906250,9.75249004364014,0.44629991054535,0.45290625095367,-0.03432101756334,-0.99655181169510,1.29882645606995
304,2635113896,42.44636154174805,-86.64234924316406,-14.26514720916748,9.78473854064941,0.41519609093666,0.43117460608482,0.08867757767439,-0.86294311285019,1.45272040367126
305,2635130563,42.22620773315430,-86.64456176757812,-14.05607986450195,9.83772277832031,0.39946502447128,0.42719233036041,0.14730504155159,-0.54866242408752,1.33249425888062
306,2635147230,41.98172760009766,-86.64141845703125,-13.81027507781982,9.89026927947998,0.38882133364677,0.44641736149788,0.30217221379280,-0.25800952315331,1.19001078605652
307,2635163897,41.62369155883789,-86.63198089599609,-13.44660091400146,9.87258338928223,0.40377908945084,0.39618578553200,0.74372881650925,0.31285914778709,1.25354957580566
308,2635180564,41.17150878906250,-86.61956787109375,-12.99845123291016,9.82462596893311,0.44919559359550,0.44276711344719,0.51251012086868,0.67315298318863,1.37312257289886
309,2635197231,40.74940490722656,-86.61424255371094,-12.58101654052734,9.75031089782715,0.39358660578728,0.40273734927177,0.15492479503155,0.25122854113579,1.58133435249329
310,2635213898,40.26642990112305,-86.60719299316406,-12.09925365447998,9.80630970001221,0.39458563923836,0.39931493997574,0.39757952094078,0.47108796238899,1.70378863811493
311,2635230565,39.78801727294922,-86.59498596191406,-11.62760829925537,9.77128410339355,0.41536173224449,0.42281204462051,0.52642428874969,0.70347201824188,1.51279509067535
312,2635247232,39.38728332519531,-86.57926940917969,-11.23175525665283,9.78822040557861,0.43491902947426,0.40456092357635,0.27908235788345,0.67449122667313,1.17215871810913
313,2635263899,38.98649597167969,-86.55912780761719,-10.83122730255127,9.78571224212646,0.43604248762131,0.44892451167107,0.45867219567299,0.89367830753326,1.02446949481964
314,2635280566,38.57533645629883,-86.54101562500000,-10.42739391326904,9.81542873382568,0.42879474163055,0.48965492844582,0.22386139631271,0.81062275171280,1.14507341384888
315,2635297233,38.13187789916992,-86.52825164794922,-9.98555183410645,9.78329372406006,0.42489925026894,0.47137153148651,-0.14778529107571,0.61581254005432,1.43162822723389
316,2635313900,37.70148086547852,-86.52053070068359,-9.56469154357910,9.78534603118896,0.39478668570518,0.41265147924423,-0.13714319467545,0.35001674294472,1.59764969348907
317,2635330567,37.30137634277344,-86.51052856445312,-9.17164802551270,9.81524658203125,0.37919235229492,0.46241307258606,0.05227551981807,0.39429467916489,1.44803965091705
318,2635347234,36.88660812377930,-86.49340820312500,-8.76057243347168,9.83394050598145,0.39417377114296,0.48186784982681,0.31664979457855,0.78169953823090,1.25564968585968
319,2635363901,36.49706268310547,-86.47702789306641,-8.37848472595215,9.81279850006104,0.40939506888390,0.49049672484398,0.37310659885406,0.68011319637299,1.24181246757507
320,2635380568,36.12006759643555,-86.47230529785156,-8.00668048858643,9.79902267456055,0.42529994249344,0.48074895143509,0.13846224546432,0.07864379882812,1.61873543262482
321,2635397235,35.70994949340820,-86.46282958984375,-7.61925554275513,9.81118774414062,0.39657196402550,0.47981861233711,0.20474793016911,0.38667494058609,1.56726670265198
322,2635413902,35.24017333984375,-86.44460296630859,-7.15853023529053,9.81966876983643,0.39324605464935,0.48594498634338,0.31782159209251,0.94544804096222,1.45654952526093
323,2635430569,34.77907943725586,-86.42833709716797,-6.70244216918945,9.76235961914062,0.43332135677338,0.49992468953133,0.39974382519722,0.82707893848419,1.52426958084106
324,2635447236,34.39489364624023,-86.41483306884766,-6.32240772247314,9.78027343750000,0.44023096561432,0.47687348723412,0.30126297473907,0.53582406044006,1.38439834117889
325,2635463903,34.01324081420898,-86.39332580566406,-5.94401502609253,9.85199356079102,0.41996476054192,0.50780886411667,0.32706776261330,0.90905231237411,1.13799154758453
326,2635480570,33.66178512573242,-86.36643981933594,-5.58837270736694,9.84384632110596,0.43310105800629,0.52292954921722,0.34199997782707,1.12813067436218,0.87069737911224
327,2635497237,33.27986907958984,-86.34323883056641,-5.21484375000000,9.82813930511475,0.41492286324501,0.54178512096405,-0.05693062767386,0.99762737751007,1.09379029273987
328,2635513904,32.88000106811523,-86.32464599609375,-4.83456563949585,9.80935955047607,0.45930799841881,0.54113674163818,0.03923225030303,0.80941891670227,1.33348035812378
329,2635530571,32.46352386474609,-86.30901336669922,-4.42510938644409,9.83985996246338,0.46510314941406,0.55180817842484,0.22313782572746,0.68072146177292,1.51940929889679
330,2635547238,32.03703689575195,-86.28775787353516,-4.01181459426880,9.80528736114502,0.48193317651749,0.59276694059372,0.03884165734053,0.99988144636154,1.36902451515198
331,2635563905,31.67200851440430,-86.27469635009766,-3.66282987594604,9.76996517181396,0.50538253784180,0.59593951702118,-0.47685730457306,0.43423134088516,1.41677308082581
332,2635580572,31.35779762268066,-86.27543640136719,-3.37130832672119,9.73088836669922,0.48204264044762,0.58704411983490,-0.96773725748062,-0.40115886926651,1.66736733913422
333,2635597239,31.13146972656250,-86.28865051269531,-3.17152357101440,9.77206707000732,0.40341424942017,0.54753190279007,-1.00683534145355,-1.22994744777679,1.76750051975250
334,2635613906,30.88043975830078,-86.29884338378906,-2.94496297836304,9.77381610870361,0.43375679850578,0.51206171512604,-0.79379522800446,-1.02313137054443,1.76483035087585
335,2635630573,30.59254837036133,-86.30663299560547,-2.68507671356201,9.79138183593750,0.45771086215973,0.54940772056580,-0.35636866092682,-0.81140387058258,1.83731412887573
336,2635647240,30.33894920349121,-86.32092285156250,-2.44930458068848,9.78471660614014,0.46040326356888,0.56913477182388,-0.55395793914795,-1.23976349830627,1.90800523757935
337,2635663907,30.07026672363281,-86.34494018554688,-2.20227861404419,9.77262306213379,0.42239934206009,0.53465574979782,-0.53851979970932,-1.71188890933990,2.24315381050110
338,2635680574,29.79128837585449,-86.37717437744141,-1.94139361381531,9.78551006317139,0.40408459305763,0.53576332330704,-0.45397230982780,-2.14767622947693,2.52815914154053
339,2635697241,29.55191421508789,-86.41362762451172,-1.69652080535889,9.82530879974365,0.38650330901146,0.54129427671432,-0.16834586858749,-2.43409633636475,2.50887894630432
340,2635713908,29.31687927246094,-86.46199035644531,-1.47414636611938,9.84033489227295,0.39353245496750,0.60960400104523,-0.20407558977604,-3.07683420181274,2.83832240104675
341,2635730575,29.08643913269043,-86.52830505371094,-1.26118803024292,9.80614948272705,0.36229699850082,0.58421206474304,-0.49985107779503,-4.06189966201782,3.31935501098633
342,2635747242,28.90222167968750,-86.61331939697266,-1.09364497661591,9.80491638183594,0.34226810932159,0.52143985033035,-0.44712737202644,-5.14170551300049,3.69684815406799
343,2635763909,28.82736778259277,-86.71509552001953,-1.03881537914276,9.79335880279541,0.34809732437134,0.51854890584946,-0.64545285701752,-6.24423599243164,3.82577562332153
344,2635780576,28.55698013305664,-86.80715179443359,-0.79224538803101,9.78286647796631,0.34263309836388,0.43904855847359,-0.87248378992081,-5.40495872497559,4.07579374313354
345,2635797243,27.90137672424316,-86.86618804931641,-0.16172118484974,9.78547191619873,0.36515870690346,0.40257611870766,-0.99091702699661,-3.11467099189758,4.20819854736328
346,2635813910,27.22406196594238,-86.92343139648438,0.49289047718048,9.71080017089844,0.33760786056519,0.40979555249214,-0.85275566577911,-3.03910732269287,4.16548347473145
347,2635830577,26.55946350097656,-86.98741149902344,1.14021992683411,9.73114013671875,0.33955577015877,0.35155168175697,-0.52486187219620,-3.47917151451111,4.27139186859131
348,2635847244,25.89663696289062,-87.04905700683594,1.79096651077271,9.73334217071533,0.34528386592865,0.34080117940903,-0.20803917944431,-3.39790892601013,4.14551162719727
349,2635863911,25.20468711853027,-87.11337280273438,2.46802043914795,9.76387023925781,0.34836465120316,0.33338630199432,-0.36682507395744,-3.55186700820923,4.21124649047852
350,2635880578,24.35231971740723,-87.17638397216797,3.30836081504822,9.73666286468506,0.36151519417763,0.34259083867073,-0.20477993786335,-3.34492254257202,4.54255342483521
351,2635897245,23.39718627929688,-87.24224853515625,4.25155925750732,9.76879596710205,0.32793039083481,0.32436728477478,-0.22961148619652,-3.51184105873108,4.81463766098022
352,2635913912,22.13134574890137,-87.28682708740234,5.51339054107666,9.84069728851318,0.27776160836220,0.34013262391090,0.24620212614536,-2.04934287071228,5.03900432586670
353,2635930579,20.48245429992676,-87.30499267578125,7.16699028015137,9.87817859649658,0.25865340232849,0.42548370361328,0.75828957557678,-0.26846593618393,5.40891551971436
354,2635947246,18.46203994750977,-87.31867980957031,9.18120956420898,9.90118026733398,0.23455546796322,0.46373897790909,0.06894940137863,0.13634923100471,6.26829957962036
355,2635963913,16.20632171630859,-87.31343841552734,11.42128467559814,9.86282539367676,0.25134810805321,0.52040541172028,-0.50477510690689,1.20697939395905,6.55538511276245
356,2635980580,14.02534961700439,-87.30143737792969,13.57028675079346,9.76299953460693,0.24973823130131,0.61386001110077,-1.46892690658569,1.31936776638031,6.30067968368530
357,2635997247,11.82910919189453,-87.27861785888672,15.71478366851807,9.76322841644287,0.22419603168964,0.61410212516785,-2.65754246711731,1.74348258972168,6.26315212249756
358,2636013914,9.44217967987061,-87.25334167480469,18.01722908020020,9.79053211212158,0.18803553283215,0.71536970138550,-4.63488149642944,1.75266456604004,6.83359766006470
359,2636030581,7.09627056121826,-87.22928619384766,20.25264739990234,9.76291656494141,0.17447894811630,0.77448064088821,-6.18163347244263,1.42529594898224,6.81721925735474
360,2636047248,5.01582002639771,-87.22618103027344,22.20409584045410,9.69410324096680,0.17175494134426,0.77002161741257,-7.28872299194336,-0.17433288693428,6.25894498825073
361,2636063915,3.12911128997803,-87.24629974365234,23.95404052734375,9.70162773132324,0.14269036054611,0.69479012489319,-7.73972368240356,-1.80383872985840,5.78778600692749
362,2636080582,1.44045209884644,-87.26892852783203,25.50516319274902,9.74933338165283,0.10416787862778,0.63633304834366,-7.77481985092163,-2.14746499061584,5.15992259979248
363,2636097249,-0.10286320745945,-87.29441833496094,26.91716003417969,9.77645111083984,0.00660284608603,0.58439409732819,-7.39905023574829,-2.46893668174744,4.69286870956421
364,2636113916,-1.85947275161743,-87.31554412841797,28.53990554809570,9.85261631011963,-0.00906068179756,0.50009161233902,-7.53802490234375,-2.26804399490356,5.20969581604004
365,2636130583,-4.15101623535156,-87.30339813232422,30.69025421142578,10.02103710174561,-0.05628184974194,0.47113412618637,-8.01123237609863,-0.53302603960037,6.72836303710938
366,2636147250,-6.60431814193726,-87.26126098632812,32.99279403686523,10.03347396850586,-0.01930699497461,0.59742194414139,-8.59962081909180,0.97716969251633,7.39774990081787
367,2636163917,-8.96489906311035,-87.22019195556641,35.18582916259766,9.82838344573975,-0.03123730234802,0.60758250951767,-9.60106563568115,0.65854763984680,7.25323247909546
368,2636180584,-11.17030906677246,-87.19111633300781,37.21305847167969,9.72840309143066,-0.09012041240931,0.55538254976273,-10.23369979858398,-0.25081250071526,6.79139614105225
369,2636197251,-13.08703994750977,-87.14858245849609,38.93694686889648,9.66735744476318,-0.14252984523773,0.43623790144920,-11.09300804138184,0.49745655059814,6.18581008911133
370,2636213918,-14.44872379302979,-87.10193634033203,40.07596969604492,9.62081623077393,-0.22002191841602,0.33326187729836,-12.84412479400635,0.98551970720291,4.66946125030518
371,2636230585,-15.11021423339844,-87.06381988525391,40.50754165649414,9.55581188201904,-0.29192924499512,0.27686488628387,-13.23669815063477,0.93298178911209,2.54065394401550
372,2636247252,-15.44239330291748,-87.04196166992188,40.62815093994141,9.58422279357910,-0.45826208591461,0.04227450489998,-12.11268806457520,0.23008541762829,1.39717996120453
373,2636263919,-15.65532302856445,-87.00892639160156,40.65682983398438,9.72932720184326,-0.50116193294525,-0.14895674586296,-10.46300983428955,0.94963598251343,1.31137704849243
374,2636280586,-15.84716415405273,-86.96578216552734,40.68547058105469,9.96950626373291,-0.50417441129684,-0.24953263998032,-9.19734477996826,1.53994488716125,1.48545384407043
375,2636297253,-15.91954231262207,-86.90940093994141,40.63623046875000,10.10679817199707,-0.53111958503723,-0.24752998352051,-6.69939947128296,2.36631274223328,1.46953523159027
376,2636313920,-16.26282119750977,-86.85969543457031,40.89696884155273,10.14721775054932,-0.49488598108292,-0.13311301171780,-4.81453514099121,1.71425187587738,2.30828714370728
377,2636330587,-16.97857666015625,-86.80873870849609,41.54652786254883,10.19394302368164,-0.45879709720612,-0.09498149156570,-3.42421364784241,1.39774286746979,3.62128400802612
378,2636347254,-18.06660270690918,-86.73217773437500,42.56587982177734,10.17479324340820,-0.45851588249207,-0.00908937957138,-3.70661950111389,2.43107485771179,5.34046077728271
379,2636363921,-19.36988067626953,-86.63495635986328,43.79663467407227,9.96272563934326,-0.40561452507973,0.15645658969879,-3.80594611167908,3.24135851860046,6.59637975692749
380,2636380588,-20.76916694641113,-86.54351043701172,45.13132476806641,9.79232978820801,-0.43116819858551,0.19400039315224,-3.53431057929993,2.61498737335205,7.02508592605591
381,2636397255,-22.02321243286133,-86.45613098144531,46.32013702392578,9.62861824035645,-0.52744007110596,0.23952838778496,-3.37771391868591,2.37064170837402,6.64446735382080
382,2636413922,-23.18597412109375,-86.39521789550781,47.43425750732422,9.49849510192871,-0.54037129878998,0.23549333214760,-2.46330785751343,0.86413419246674,5.93103122711182
383,2636430589,-24.18463134765625,-86.36665344238281,48.40247726440430,9.40623092651367,-0.50167787075043,0.16712632775307,-1.32906222343445,-0.83769541978836,4.71853828430176
384,2636447256,-24.94224548339844,-86.37031555175781,49.15236282348633,9.34025192260742,-0.49227726459503,0.08218355476856,0.04066656529903,-2.32337951660156,3.17322802543640
385,2636463923,-25.47331047058105,-86.39869689941406,49.70106887817383,9.37113571166992,-0.47443723678589,0.00621851254255,1.59175872802734,-3.36700677871704,1.82876586914062
386,2636480590,-25.83725738525391,-86.43525695800781,50.10075759887695,9.40998363494873,-0.47424259781837,-0.06262216717005,2.67123174667358,-3.57490563392639,1.07314014434814
387,2636497257,-26.04124450683594,-86.46598052978516,50.34889984130859,9.50952720642090,-0.40435844659805,-0.10724768042564,3.20076799392700,-3.00486278533936,0.70082753896713
388,2636513924,-25.79727172851562,-86.47713470458984,50.16137695312500,9.58535861968994,-0.38328003883362,-0.04965971410275,3.97467446327209,-1.24777388572693,-0.23399761319160
389,2636530591,-25.23941802978516,-86.47586059570312,49.66500473022461,9.70237445831299,-0.41273817420006,-0.00474227126688,4.32300758361816,-0.07904079556465,-0.92326098680496
390,2636547258,-24.29304695129395,-86.44967651367188,48.77365875244141,9.78330898284912,-0.39758187532425,0.03992920741439,3.97157621383667,1.86368906497955,-1.64022469520569
391,2636563925,-22.97948074340820,-86.41177368164062,47.50237655639648,9.87744140625000,-0.40632745623589,0.16511376202106,3.26786684989929,3.06204342842102,-2.72426939010620
392,2636580592,-21.37343215942383,-86.36062622070312,45.92091751098633,10.00521469116211,-0.42706531286240,0.31878262758255,2.25106859207153,4.16236495971680,-3.66499853134155
393,2636597259,-19.75689125061035,-86.30075073242188,44.31071090698242,10.01046752929688,-0.39234992861748,0.42501893639565,1.15443480014801,4.60268545150757,-3.81140017509460
394,2636613926,-18.11381149291992,-86.22021484375000,42.64785003662109,9.99263668060303,-0.30073690414429,0.62867271900177,-0.38974216580391,5.76289796829224,-3.86685919761658
395,2636630593,-16.48510551452637,-86.12778472900391,40.94469451904297,9.92774200439453,-0.24126487970352,0.80523186922073,-3.65756464004517,6.39586305618286,-4.14530706405640
396,2636647260,-14.86761951446533,-86.04740142822266,39.21188354492188,9.67564487457275,-0.23451405763626,0.84197950363159,-6.08926725387573,5.64133310317993,-4.80842685699463
397,2636663927,-13.39375495910645,-86.01502990722656,37.60609817504883,9.45744132995605,-0.29286456108093,0.73176091909409,-7.10536098480225,2.56064915657043,-5.28571939468384
398,2636680594,-11.99890518188477,-86.03434753417969,36.10974884033203,9.37037467956543,-0.23004539310932,0.47822269797325,-5.29999828338623,-0.70262050628662,-5.61981153488159
399,2636697261,-10.28759479522705,-86.08928680419922,34.33684539794922,9.37638759613037,-0.27896252274513,0.21133188903332,-2.87541031837463,-2.78111743927002,-7.09748601913452
400,2636713928,-8.09934234619141,-86.16472625732422,32.14844512939453,9.48952579498291,-0.40619468688965,0.00446888711303,0.86074703931808,-4.00717163085938,-8.76178741455078
401,2636730595,-5.63233947753906,-86.23719787597656,29.76108741760254,9.58287239074707,-0.46322485804558,-0.08327454328537,5.65772628784180,-4.14303541183472,-9.22256088256836
402,2636747262,-3.21351933479309,-86.30986022949219,27.49432945251465,9.62741756439209,-0.47031727433205,-0.14895792305470,9.97881031036377,-4.61244058609009,-8.42806816101074
403,2636763929,-0.90098410844803,-86.35745239257812,25.38694572448730,9.70159530639648,-0.51137864589691,-0.20441558957100,13.13109493255615,-3.51461529731750,-7.46519804000854
404,2636780596,1.26199436187744,-86.35675048828125,23.43578338623047,9.82785224914551,-0.46055412292480,-0.07017306983471,13.52218627929688,-0.90405857563019,-6.72265481948853
405,2636797263,3.40744924545288,-86.32257080078125,21.49630737304688,9.85546207427979,-0.21551716327667,0.10039900243282,13.17202091217041,0.82393562793732,-6.79235935211182
406,2636813930,5.60618162155151,-86.28459167480469,19.46860885620117,9.87183380126953,-0.09366068989038,0.16640193760395,11.09424972534180,0.73435497283936,-7.28229045867920
407,2636830597,7.69869899749756,-86.23371124267578,17.51580047607422,9.92879867553711,-0.09116224199533,0.23082245886326,9.20622634887695,1.22342312335968,-7.23292779922485
408,2636847264,9.78434848785400,-86.15876007080078,15.53014945983887,9.94505310058594,-0.09346543252468,0.36016574501991,6.85011196136475,2.34122562408447,-7.78394508361816
409,2636863931,11.97160339355469,-86.08119201660156,13.40600776672363,9.84312057495117,-0.10278023034334,0.42395827174187,4.66706466674805,2.04336285591125,-8.63705348968506
410,2636880598,14.31024932861328,-86.01194000244141,11.09674453735352,9.77829647064209,-0.12853965163231,0.48900160193443,2.67740488052368,0.97348135709763,-9.53457355499268
411,2636897265,16.97508049011230,-85.96444702148438,8.45503997802734,9.73765277862549,-0.18433302640915,0.44468182325363,2.35750246047974,-1.15659296512604,-10.72779273986816
412,2636913932,20.07806205749512,-85.92167663574219,5.38558053970337,9.84336853027344,-0.23836243152618,0.44225868582726,3.05299067497253,-2.61377739906311,-12.44421768188477
413,2636930599,23.45244598388672,-85.87470245361328,2.04733848571777,9.84080982208252,-0.20958404242992,0.48584946990013,3.27318382263184,-3.58186173439026,-13.62887382507324
414,2636947266,26.93473052978516,-85.81966400146484,-1.38893675804138,9.76983356475830,-0.09643530845642,0.30801963806152,3.88480281829834,-4.26782178878784,-14.18968868255615
415,2636963933,30.21832466125488,-85.73966217041016,-4.63576602935791,9.74100208282471,0.00269548036158,0.26670411229134,3.32621479034424,-3.52308082580566,-14.17546176910400
416,2636980600,33.43545913696289,-85.66184997558594,-7.82744312286377,9.54742240905762,0.19349002838135,0.21067090332508,2.65569972991943,-4.48956346511841,-13.94912242889404
417,2636997267,36.52365875244141,-85.58234405517578,-10.90976333618164,9.44845581054688,0.18663549423218,0.03292430937290,1.47843658924103,-5.08034658432007,-13.58854579925537
418,2637013934,38.98478698730469,-85.44930267333984,-13.37155532836914,9.56766700744629,0.09791201353073,0.21236786246300,1.00520312786102,-1.63893222808838,-13.33003616333008
419,2637030601,41.02870559692383,-85.25769042968750,-15.38622570037842,9.56960296630859,-0.09923974424601,0.73137021064758,2.74734139442444,1.62264871597290,-14.20864105224609
420,2637047268,42.69940567016602,-84.97656250000000,-17.00008583068848,9.57360076904297,-0.42739444971085,1.17717230319977,4.35956811904907,6.18571758270264,-16.73362159729004
421,2637063935,43.26118850708008,-84.50260162353516,-17.45460700988770,9.80776977539062,-0.92657470703125,1.75172901153564,7.15699052810669,18.22377014160156,-20.57920265197754
422,2637080602,41.78801345825195,-83.73553466796875,-15.60157108306885,9.39432716369629,-1.17112517356873,2.58717584609985,22.81562232971191,40.73337936401367,-22.10591697692871
423,2637097269,37.79889678955078,-82.69223022460938,-10.82150363922119,7.91610622406006,-1.66302657127380,3.43276643753052,46.06075668334961,68.83948516845703,-13.41103267669678
424,2637113936,32.16353988647461,-81.45774078369141,-3.87568593025208,5.06493330001831,-1.70529997348785,3.71073579788208,75.27628326416016,92.59011840820312,5.24582767486572
425,2637130603,26.46511459350586,-80.38264465332031,3.04790544509888,0.55381703376770,-0.33136361837387,3.66731047630310,68.92382812500000,87.29171752929688,26.20547485351562
426,2637147270,20.40974617004395,-79.39425659179688,9.70608615875244,-2.77500915527344,-0.07826394587755,0.41974478960037,30.58775901794434,81.26898956298828,41.37725067138672
427,2637163937,15.01033592224121,-78.39450836181641,15.41482734680176,-4.23161983489990,-0.57608079910278,-0.77194714546204,12.76809883117676,76.20594024658203,45.22224807739258
428,2637180604,11.65801334381104,-77.51400756835938,19.12102508544922,-3.10087728500366,0.05286229401827,-1.37062418460846,16.93920326232910,61.14951705932617,33.60970687866211
429,2637197271,10.27695560455322,-76.37664794921875,20.80271148681641,-0.18980252742767,0.20489007234573,-3.43756890296936,16.02807235717773,70.40181732177734,10.04591083526611
430,2637213938,10.40268421173096,-74.92922210693359,20.82754135131836,0.85284334421158,1.07091856002808,0.30874225497246,9.58127689361572,84.58933258056641,-14.56285285949707
431,2637230605,11.40274333953857,-73.84356689453125,20.01729011535645,2.20983719825745,2.02009916305542,-1.26375603675842,13.76843166351318,60.56238555908203,-24.50023651123047
432,2637247272,12.03940582275391,-72.67126464843750,19.33260154724121,2.82825422286987,1.91184377670288,-0.66196072101593,-0.55631750822067,65.53937530517578,-25.20512580871582
433,2637263939,13.26777362823486,-71.84841156005859,18.09659576416016,3.88320326805115,2.37324094772339,-0.79362308979034,3.65610885620117,42.30054473876953,-32.18790054321289
434,2637280606,14.30102729797363,-70.95726776123047,16.75500488281250,3.47052526473999,1.78053557872772,-0.17726171016693,-13.71439456939697,44.88362121582031,-36.99174499511719
435,2637297273,15.18682003021240,-70.18809509277344,15.52430343627930,1.83494138717651,1.74045288562775,-0.41268184781075,-15.90692329406738,37.45642089843750,-34.81787109375000
436,2637313940,15.33115863800049,-69.20996856689453,14.75618457794189,0.92262774705887,2.15334701538086,1.02594196796417,-33.97596740722656,51.48948287963867,-30.19317626953125
437,2637330607,15.24945068359375,-68.36872100830078,13.97707176208496,-0.70793896913528,1.69152009487152,1.85902667045593,-47.89566421508789,43.30345153808594,-28.94273948669434
438,2637347274,15.14973354339600,-67.59438323974609,13.04173469543457,-1.57793915271759,0.43257430195808,0.38085189461708,-57.42407226562500,38.38984680175781,-31.80018615722656
439,2637363941,14.80846023559570,-66.76116180419922,12.44356536865234,-1.82922494411469,-2.04984116554260,1.62402164936066,-52.97056198120117,43.76723861694336,-25.68575286865234
440,2637380608,13.22198390960693,-65.75099182128906,13.25311470031738,1.31738030910492,0.45847707986832,9.80796051025391,-50.13574218750000,62.61001586914062,4.97375392913818
441,2637397275,11.53281116485596,-65.00701904296875,14.27842140197754,11.63447952270508,6.18053531646729,12.63775444030762,-44.83508300781250,48.15098953247070,16.14123153686523
442,2637413942,9.12118911743164,-62.82881927490234,15.34224128723145,43.90777587890625,11.96958255767822,24.70521354675293,-86.75585174560547,132.65592956542969,4.86451387405396
443,2637430609,6.96280908584595,-61.16468811035156,15.61951446533203,5.71943473815918,0.73475235700607,7.60836791992188,-114.21538543701172,99.01151275634766,-5.54019737243652
444,2637447276,7.25610876083374,-59.93836593627930,15.34065246582031,36.01003265380859,-4.52604484558105,8.83462905883789,3.60832118988037,71.03716278076172,-16.57357978820801
445,2637463943,6.25541400909424,-58.73267364501953,16.90896987915039,25.20610618591309,-1.48026895523071,16.84260559082031,21.48527336120605,76.52796936035156,39.82886886596680
446,2637480610,4.39769363403320,-57.84453964233398,18.27187728881836,26.56426620483398,4.35491800308228,12.79424858093262,-41.30703735351562,56.09457015991211,38.53005218505859
447,2637497277,3.12982225418091,-57.14751434326172,18.68096542358398,27.00924682617188,2.48294663429260,10.63225173950195,-54.78727722167969,41.64756774902344,11.09989356994629
448,2637513944,2.57575583457947,-56.68285369873047,18.66125679016113,26.63591575622559,-0.95697480440140,11.88684463500977,-33.65230560302734,26.87104988098145,-1.34519422054291
449,2637530611,2.65370774269104,-56.54507446289062,18.40703582763672,27.41791343688965,-0.61234241724014,9.83221721649170,-7.47940635681152,6.93708896636963,-8.07796192169189
450,2637547278,2.62192988395691,-56.57892608642578,18.35027694702148,26.73090934753418,-0.07179233431816,10.16481018066406,-4.16869783401489,-3.04737377166748,-1.09874653816223
451,2637563945,2.83548235893250,-56.97315597534180,18.23112869262695,26.10059165954590,-0.85078567266464,10.71811485290527,7.41328001022339,-24.73632431030273,-2.10454320907593
452,2637580612,3.35487842559814,-57.52435302734375,17.82959747314453,25.07946968078613,0.58386200666428,12.07362174987793,11.48171901702881,-34.64573669433594,-10.54774188995361
453,2637597279,3.96443557739258,-58.43626403808594,17.23582839965820,24.53984832763672,2.54153966903687,10.92776489257812,6.94504404067993,-56.72339248657227,-14.67797565460205
454,2637613946,4.64471960067749,-59.76458740234375,16.38068962097168,25.14540100097656,2.70580363273621,8.02178192138672,-2.63322520256042,-82.36094665527344,-19.61013793945312
455,2637630613,5.40566539764404,-61.58890151977539,15.54610824584961,26.11919403076172,1.37950694561005,5.23614168167114,2.56781411170959,-112.09162902832031,-14.15738391876221
456,2637647280,6.06263780593872,-63.86768722534180,15.13193416595459,25.47741317749023,-0.72491014003754,3.16996502876282,17.89855766296387,-138.07963562011719,3.01470541954041
457,2637663947,7.01127243041992,-67.10451507568359,14.62225723266602,24.29706382751465,-2.36853098869324,1.04018700122833,29.64609527587891,-195.28948974609375,10.18399620056152
458,2637680614,10.21958827972412,-72.35215759277344,12.09229278564453,20.80387306213379,-0.81507581472397,-0.21398258209229,50.47321319580078,-320.02539062500000,-4.17308425903320
459,2637697281,19.58809471130371,-78.91739654541016,3.34582948684692,14.52865886688232,-1.24522662162781,-2.75413846969604,53.28881835937500,-414.02066040039062,-24.01015663146973
460,2637713948,48.63449478149414,-84.02040863037109,-23.99672317504883,11.82173156738281,-1.81964170932770,-5.90531826019287,118.50435638427734,-382.56689453125000,-31.82892417907715
461,2637730615,63.95137023925781,-84.34649658203125,-37.89675903320312,12.50563430786133,1.93217301368713,-1.08222115039825,89.83772277832031,-81.64598846435547,-29.86576080322266
462,2637747282,21.65803337097168,-76.10129547119141,2.88584423065186,15.67796134948730,0.72609013319016,24.28095436096191,-116.52336883544922,616.34350585937500,-16.19429016113281
463,2637763949,26.72389602661133,-76.16763305664062,0.69098544120789,-22.71083831787109,5.17928981781006,35.38315200805664,176.65493774414062,-17.43107414245605,-26.48539543151855
464,2637780616,31.71492576599121,-78.12340545654297,-5.63705062866211,-12.60768413543701,9.74687194824219,16.39603996276855,-70.20219421386719,-144.41537475585938,-15.77428245544434
465,2637797283,34.99026107788086,-79.21424102783203,-10.33834838867188,-4.22955846786499,-0.95356476306915,3.34194612503052,-79.49697875976562,-86.03749084472656,-9.60715103149414
466,2637813950,38.78926849365234,-79.95117950439453,-13.91277980804443,-5.96033906936646,-6.80505132675171,-6.17677879333496,17.57425880432129,-59.57069015502930,-3.76536178588867
467,2637830617,42.22573471069336,-81.37934875488281,-16.81125068664551,2.47051620483398,-2.65232610702515,-4.02654695510864,35.12317276000977,-84.41962432861328,34.91996383666992
468,2637847284,45.43981552124023,-82.22602844238281,-18.76287269592285,7.45407533645630,1.18591725826263,-2.75716233253479,77.49410247802734,-49.15892410278320,23.84582519531250
469,2637863951,44.79621887207031,-82.28210449218750,-17.79487228393555,7.29052305221558,3.14315128326416,-0.57523745298386,19.51279258728027,2.23264336585999,8.57620239257812
470,2637880618,39.90951919555664,-81.99735260009766,-13.68824100494385,2.75300025939941,2.18628334999084,2.91381525993347,-48.52715301513672,34.37142944335938,14.03599548339844
471,2637897285,37.95469284057617,-82.16386413574219,-12.24925422668457,1.81793546676636,0.45427146553993,3.81894350051880,-31.19413375854492,-1.24875259399414,16.20914840698242
472,2637913952,34.03249740600586,-81.68309020996094,-8.84033584594727,2.71774291992188,-0.95024955272675,4.34700298309326,-32.22744750976562,39.28020477294922,6.94317436218262
473,2637930619,33.68809890747070,-81.22291564941406,-8.83638763427734,0.41860294342041,-1.85674512386322,6.40525007247925,-19.83541679382324,22.02871322631836,-14.69193553924561
474,2637947286,36.37016677856445,-81.01312255859375,-11.56943035125732,0.46057653427124,-1.62312948703766,2.70841288566589,-0.50541681051254,-5.14979314804077,-27.27128791809082
475,2637963953,36.64065170288086,-80.57419586181641,-11.66819763183594,-1.75545597076416,-0.74855631589890,1.62204277515411,10.96147727966309,19.66186332702637,-15.76027774810791
476,2637980620,35.83324813842773,-80.29740905761719,-10.66409206390381,-3.16680693626404,0.50252592563629,0.46091061830521,11.55059051513672,18.35993003845215,-1.08153009414673
477,2637997287,35.29941177368164,-80.22346496582031,-9.66904544830322,-5.00262022018433,1.06223177909851,-0.44148826599121,27.39253044128418,8.52658367156982,6.29984617233276
478,2638013954,34.96856307983398,-80.40957641601562,-9.17574119567871,-3.49712395668030,1.61361944675446,-0.90507954359055,9.90269279479980,-7.23077964782715,11.17359542846680
479,2638030621,33.53617477416992,-80.53591918945312,-7.72529745101929,0.79169094562531,0.90202075242996,-0.71909999847412,0.46569052338600,0.87712049484253,16.84278488159180
480,2638047288,31.05960655212402,-80.34877014160156,-5.36640071868896,1.76411211490631,-0.66438364982605,-0.49908569455147,-8.43790245056152,21.08732414245605,14.52482223510742
481,2638063955,29.04719734191895,-80.11487579345703,-3.29509782791138,2.33304619789124,-1.31765949726105,-0.24073821306229,2.31840920448303,21.75041007995605,11.88332653045654
482,2638080622,27.08406639099121,-79.73285675048828,-1.24524819850922,3.10609531402588,-1.13321185112000,0.49165332317352,3.89460420608521,29.39551925659180,8.86348533630371
483,2638097289,26.21350860595703,-79.33192443847656,-0.23318839073181,1.78731060028076,-0.65729957818985,0.93693238496780,8.06472873687744,25.50289535522461,-0.26511129736900
484,2638113956,26.33942794799805,-79.11460113525391,-0.13707871735096,0.04020833969116,-0.32211530208588,0.59388297796249,13.80398464202881,11.22415542602539,-4.13666009902954
485,2638130623,26.54839324951172,-78.96077728271484,-0.19109062850475,-1.26964545249939,0.12867268919945,0.51668030023575,9.93877696990967,7.04175996780396,-3.99176669120789
486,2638147290,27.08979988098145,-79.00495910644531,-0.49818134307861,-1.92305648326874,0.33436137437820,0.44675156474113,14.97655582427979,-4.91171312332153,-1.26962244510651
487,2638163957,27.46299743652344,-79.11800384521484,-0.61385393142700,-1.56088721752167,0.46886521577835,0.35345539450645,16.15757751464844,-7.58710479736328,2.61200523376465
488,2638180624,27.64977455139160,-79.28459930419922,-0.58417797088623,-0.95419985055923,0.28114977478981,1.00889647006989,13.53129196166992,-9.67275428771973,5.59831428527832
489,2638197291,27.77895164489746,-79.57757568359375,-0.53117978572845,-0.67980337142944,0.46799227595329,1.35260450839996,11.45246219635010,-16.25689315795898,9.37022209167480
490,2638213958,27.86287307739258,-80.03242492675781,-0.57383662462234,-0.64491277933121,0.25576323270798,1.58649230003357,3.09337663650513,-25.31617927551270,13.01599597930908
491,2638230625,28.68917083740234,-80.62510681152344,-1.23905146121979,-1.14674246311188,-0.19928948581219,0.78699272871017,10.80074119567871,-35.47067642211914,11.62912368774414
492,2638247292,27.77643394470215,-80.71607208251953,-0.36205932497978,1.65797972679138,0.08382719755173,3.49338102340698,-2.26014232635498,-1.74229180812836,10.76945877075195
493,2638263959,25.52048873901367,-81.02781677246094,1.77528822422028,12.25051784515381,-1.21139502525330,7.16043090820312,-8.16430282592773,-8.58127880096436,27.23842620849609
494,2638280626,21.96725463867188,-80.95738983154297,5.01595783233643,44.76637649536133,11.34205341339111,11.63253974914551,-20.56363296508789,15.14074039459229,26.80972480773926
495,2638297293,14.63550758361816,-80.00072479248047,11.28652667999268,95.23258972167969,11.51709461212158,24.66398048400879,-68.21372985839844,72.99002838134766,41.68926620483398
496,2638313960,24.14430618286133,-79.97714996337891,2.95639324188232,-10.54264736175537,-19.51889610290527,-0.53488790988922,78.86733245849609,-28.45367622375488,-81.61139678955078
497,2638330627,34.60818481445312,-81.43138885498047,-6.65618133544922,31.95562171936035,10.75054931640625,-14.22526836395264,59.10933303833008,-122.42518615722656,-37.68602752685547
498,2638347294,31.97305107116699,-82.41804504394531,-4.30653572082520,37.24589157104492,0.93901985883713,-5.86182880401611,-17.95620727539062,-39.62640762329102,49.72613143920898
499,2638363961,29.12909126281738,-83.54885864257812,-1.75193238258362,25.25383186340332,3.79904174804688,0.74935251474380,-17.95694923400879,-49.94574737548828,51.29915237426758
500,2638380628,24.43963623046875,-83.88833618164062,2.56667065620422,26.35826492309570,0.50949710607529,-0.04523066431284,-23.23381233215332,-6.40722370147705,35.12868881225586
501,2638397295,23.15183067321777,-83.77899932861328,3.77049541473389,17.15918159484863,-0.57461458444595,0.93517029285431,-4.87215185165405,8.18443202972412,5.11529970169067
502,2638413962,24.59303283691406,-83.39022827148438,2.21721100807190,11.86255359649658,1.04404997825623,-1.79322326183319,-5.54507207870483,16.20510673522949,-18.28198814392090
503,2638430629,25.90639877319336,-83.02790832519531,0.88776254653931,9.98683547973633,1.88286542892456,0.00700824521482,0.18755573034286,14.72488880157471,-17.12517929077148
504,2638447296,26.72787284851074,-82.86103820800781,0.19385892152786,8.79511547088623,1.51832544803619,0.66172093153000,8.55871868133545,5.78440093994141,-8.34535789489746
505,2638463963,27.63528633117676,-82.64652252197266,-0.49666109681129,7.64052152633667,0.99830591678619,0.79263949394226,13.92676830291748,8.12600994110107,-9.84286308288574
506,2638480630,28.42730712890625,-82.28971099853516,-1.09174978733063,4.30759477615356,0.14837469160557,1.23111188411713,12.71484947204590,15.77741813659668,-13.51511287689209
507,2638497297,29.09307479858398,-81.98766326904297,-1.55807721614838,2.24559545516968,-0.27578601241112,1.47868382930756,12.81644248962402,13.11670112609863,-11.39612007141113
508,2638513964,28.98045921325684,-81.90350341796875,-1.14122474193573,2.60994696617126,0.24960750341415,1.80187237262726,18.58833312988281,5.17221593856812,1.28871119022369
509,2638530631,28.51348686218262,-81.92345428466797,-0.39287260174751,3.78777909278870,1.41524076461792,2.07656764984131,17.01630783081055,1.03688645362854,6.78873682022095
510,2638547298,28.89456176757812,-81.87339019775391,-0.53266137838364,4.60641145706177,1.93926882743835,2.21961855888367,15.13894176483154,1.11629843711853,-1.79431211948395
511,2638563965,30.39547348022461,-81.79912567138672,-1.77297532558441,5.15440940856934,2.05796885490417,2.25521826744080,16.97317123413086,-2.29108524322510,-10.69946479797363
512,2638580632,32.23200225830078,-81.84972381591797,-3.42473220825195,6.57619333267212,1.96831202507019,1.65540206432343,12.67306518554688,-10.86638736724854,-9.76141548156738
513,2638597299,33.87343215942383,-82.02307128906250,-4.81830692291260,8.53668022155762,1.21498465538025,1.42034471035004,16.27382659912109,-16.07087707519531,-3.45356512069702
514,2638613966,34.83251190185547,-82.33245849609375,-5.46034383773804,10.76592159271240,0.69444787502289,1.02528119087219,19.95190620422363,-19.25185203552246,6.85025739669800
515,2638630633,35.51602554321289,-82.74309539794922,-5.71999788284302,11.64089488983154,0.19684512913227,0.73750621080399,26.12847900390625,-22.28019905090332,13.24515151977539
516,2638647300,37.16397094726562,-83.15149688720703,-6.84889173507690,11.52189064025879,-0.11673926562071,0.61289030313492,32.21923446655273,-25.63705635070801,8.53441715240479
517,2638663967,40.11965560913086,-83.53152465820312,-9.24051284790039,11.30426692962646,0.13648922741413,0.69498002529144,35.37240219116211,-29.15986061096191,1.96794700622559
518,2638680634,44.04223251342773,-83.88993835449219,-12.58196353912354,10.95922565460205,0.61066961288452,0.33744615316391,36.63969802856445,-31.62023735046387,-1.16114854812622
519,2638697301,48.19820022583008,-84.19836425781250,-16.19536972045898,10.60319519042969,0.87721228599548,0.20604011416435,34.29542922973633,-29.97076416015625,-1.52802634239197
520,2638713968,51.36144638061523,-84.45536041259766,-18.88434982299805,9.98127651214600,1.22850847244263,0.17363347113132,29.81598472595215,-23.07312393188477,2.19857311248779
521,2638730635,53.67561340332031,-84.72177886962891,-20.81987571716309,9.30961322784424,1.45389974117279,0.04337172210217,23.80327606201172,-19.37191009521484,6.75169086456299
522,2638747302,55.40621948242188,-84.97129821777344,-22.27101325988770,9.49782657623291,1.72206366062164,0.05800057947636,17.69783401489258,-16.00232505798340,8.37336730957031
523,2638763969,56.57254028320312,-85.17472839355469,-23.27556037902832,9.66668796539307,1.80529713630676,0.32816073298454,10.49282360076904,-12.07637596130371,7.94964694976807
524,2638780636,57.27090835571289,-85.33415222167969,-23.92774009704590,9.53585147857666,1.57002735137939,0.51763391494751,3.48980212211609,-8.88004302978516,6.95105266571045
525,2638797303,57.00729370117188,-85.44619750976562,-23.69894027709961,9.58109760284424,1.29631769657135,0.74188494682312,-1.56326484680176,-3.69217991828918,6.96644973754883
526,2638813970,56.47558593750000,-85.53143310546875,-23.22583770751953,9.88805675506592,0.88733375072479,0.78909158706665,-3.02480244636536,-1.89661419391632,6.19585371017456
527,2638830637,56.57036590576172,-85.53959655761719,-23.38651275634766,9.95308303833008,0.49584224820137,0.71150863170624,-3.33845567703247,-1.83940815925598,0.68282181024551
528,2638847304,57.01940155029297,-85.47796630859375,-23.89087867736816,10.06514358520508,0.55410242080688,0.68592590093613,-2.63276815414429,-0.89772528409958,-3.69843602180481
529,2638863971,57.37340545654297,-85.40479278564453,-24.31437683105469,10.06672096252441,0.80376207828522,0.89890325069427,-3.50381112098694,-0.25991129875183,-4.09300565719604
530,2638880638,57.97181701660156,-85.40245056152344,-25.01594352722168,9.82743453979492,0.82081902027130,0.84506762027740,-5.46238899230957,-3.71007037162781,-1.23567855358124
531,2638897305,58.30988693237305,-85.45446777343750,-25.47290420532227,9.59830379486084,0.58900809288025,0.69944876432419,-6.45792961120605,-4.45126390457153,2.19644284248352
532,2638913972,58.69200897216797,-85.54086303710938,-25.95533180236816,9.41860294342041,0.34840825200081,0.49109616875648,-5.35030937194824,-5.60119867324829,3.94518947601318
533,2638930639,58.78639221191406,-85.62091827392578,-26.11056900024414,9.59895133972168,0.31279787421227,0.41255682706833,-3.04063105583191,-4.06256484985352,4.43772029876709
534,2638947306,58.69966506958008,-85.68225860595703,-26.05355262756348,9.65221881866455,0.31803801655769,0.60349339246750,-1.21133339405060,-2.64415907859802,3.97920155525208
535,2638963973,58.71085739135742,-85.73516082763672,-26.07146263122559,9.73766422271729,0.26941233873367,0.63577020168304,0.17468503117561,-2.67714190483093,3.37569642066956
536,2638980640,58.83708190917969,-85.78722381591797,-26.19497489929199,9.90582084655762,0.35589161515236,0.60937809944153,0.76038986444473,-3.04495954513550,3.09091520309448
537,2638997307,58.76989746093750,-85.84513092041016,-26.15253257751465,10.06863117218018,0.56086802482605,0.68214327096939,-0.90494167804718,-2.59453487396240,3.75927901268005
538,2639013974,58.62331771850586,-85.90126800537109,-26.06830787658691,9.97070407867432,0.56940501928329,0.82974904775620,-3.17995119094849,-2.40556430816650,3.77786040306091
539,2639030641,58.56489181518555,-85.96537017822266,-26.08794975280762,9.90891170501709,0.69527190923691,0.77603429555893,-4.10156726837158,-3.03200602531433,3.93565440177917
540,2639047308,58.71775817871094,-86.02625274658203,-26.34036064147949,10.00964736938477,0.64972156286240,0.57959538698196,-5.36139106750488,-3.76748752593994,3.28546285629272
541,2639063975,58.95332336425781,-86.06099700927734,-26.66112518310547,10.02295684814453,0.52578860521317,0.46808212995529,-4.47877788543701,-3.16420626640320,1.78819572925568
542,2639080642,59.43818664550781,-86.06861114501953,-27.20908355712891,9.95825004577637,0.44377115368843,0.43818610906601,-3.12208580970764,-3.11678385734558,-0.06970496475697
543,2639097309,60.04917907714844,-86.05846405029297,-27.86071014404297,9.84298419952393,0.43378624320030,0.48312860727310,-1.75916993618011,-2.95807480812073,-1.17915749549866
544,2639113976,60.79427719116211,-86.05981445312500,-28.64686012268066,9.77488994598389,0.41220021247864,0.42685574293137,-1.76483023166656,-3.80062985420227,-0.83467942476273
545,2639130643,61.20452117919922,-86.06980895996094,-29.11200141906738,9.90460968017578,0.23548714816570,0.47378197312355,-2.64555525779724,-2.91774153709412,0.29713296890259
546,2639147310,60.99250411987305,-86.07589721679688,-28.94712829589844,9.86899662017822,0.31419742107391,0.36470231413841,-2.26383614540100,-0.54042160511017,1.33574068546295
547,2639163977,60.11328887939453,-86.07784271240234,-28.14173126220703,9.87004661560059,0.56014853715897,0.40436109900475,-3.97137093544006,1.84964680671692,2.41931176185608
548,2639180644,58.82814025878906,-86.08383941650391,-26.93539428710938,10.07498645782471,0.31627494096756,0.46177965402603,-4.32021045684814,3.10554671287537,3.50408053398132
549,2639197311,56.84370422363281,-86.06826782226562,-25.03350830078125,9.99604606628418,0.59619170427322,0.51019221544266,-4.64431381225586,6.12600231170654,4.03851556777954
550,2639213978,54.88855743408203,-86.06010437011719,-23.19879531860352,9.93250656127930,0.64584285020828,0.58591485023499,-6.90833663940430,5.54757738113403,4.50697183609009
551,2639230645,53.29578018188477,-86.06657409667969,-21.73749351501465,9.85944080352783,0.39139121770859,0.48275610804558,-7.51944255828857,3.67204880714417,4.52132797241211
552,2639247312,51.84054183959961,-86.06359100341797,-20.41923522949219,9.68889808654785,0.28491866588593,0.44471424818039,-7.83207035064697,3.43858885765076,3.84157943725586
553,2639263979,50.52154922485352,-86.04457855224609,-19.23674392700195,9.65656185150146,0.25884279608727,0.49864977598190,-7.77151727676392,3.55833506584167,2.83614611625671
554,2639280646,49.40494537353516,-86.02655029296875,-18.25805282592773,9.66330623626709,0.27391192317009,0.55064916610718,-7.83193731307983,2.83813142776489,2.45797467231750
555,2639297313,48.52338790893555,-86.02063751220703,-17.51659393310547,9.67333316802979,0.27786681056023,0.55387270450592,-7.93279170989990,1.59658694267273,2.43556952476501
556,2639313980,47.80009841918945,-86.02664947509766,-16.93342208862305,9.74714279174805,0.30976647138596,0.55454510450363,-7.91481399536133,0.59671843051910,2.57691359519958
557,2639330647,47.21760559082031,-86.03790283203125,-16.49016761779785,9.78563308715820,0.35037741065025,0.54664540290833,-7.83684825897217,-0.06473611295223,2.42734813690186
558,2639347314,46.73493576049805,-86.05677795410156,-16.15560340881348,9.70449829101562,0.34914499521255,0.59097886085510,-8.34923076629639,-0.72485244274139,2.45864725112915
559,2639363981,46.47010040283203,-86.08853912353516,-16.02355575561523,9.80465602874756,0.15720607340336,0.53088992834091,-7.41022920608521,-1.87712943553925,2.44746661186218
560,2639380648,46.41552352905273,-86.11506652832031,-16.08616828918457,9.74868965148926,0.15122266113758,0.45835912227631,-6.43900871276855,-2.24029231071472,1.66680455207825
561,2639397315,46.49096298217773,-86.13903045654297,-16.27490615844727,9.89340972900391,0.18665802478790,0.50141859054565,-6.19392061233521,-2.50818800926208,1.21231961250305
562,2639413982,46.52637100219727,-86.15866088867188,-16.40869522094727,9.86963748931885,0.24240605533123,0.58852094411850,-5.30114412307739,-2.15111494064331,1.16457116603851
563,2639430649,46.48242568969727,-86.17854309082031,-16.46014404296875,9.75750827789307,0.32714271545410,0.63371908664703,-5.13935518264771,-1.93719112873077,1.42115283012390
564,2639447316,46.62680435180664,-86.20207977294922,-16.69256973266602,9.70114326477051,0.34073093533516,0.55281031131744,-4.66726875305176,-2.59366393089294,1.07132804393768
565,2639463983,46.70498275756836,-86.21405792236328,-16.85692024230957,9.69072437286377,0.33218011260033,0.55325627326965,-4.57214212417603,-1.92909085750580,0.76993060112000
566,2639480650,46.99782943725586,-86.23703765869141,-17.22607612609863,9.73213195800781,0.24828554689884,0.61152398586273,-3.95251345634460,-2.96915221214294,0.70973432064056
567,2639497317,47.50826263427734,-86.25221252441406,-17.78660583496094,9.80699825286865,0.16243323683739,0.57210999727249,-2.34081530570984,-3.17219090461731,-0.15136468410492
568,2639513984,47.99376678466797,-86.24412536621094,-18.28969955444336,9.81799125671387,0.22490791976452,0.46417149901390,-0.40893873572350,-2.08786416053772,-0.99553370475769
569,2639530651,48.60784912109375,-86.25587463378906,-18.91384124755859,9.82259559631348,0.27008420228958,0.44166350364685,0.05066832154989,-3.26216125488281,-0.39476850628853
570,2639547318,49.13983535766602,-86.27947998046875,-19.43478775024414,9.86889266967773,0.26995670795441,0.47652593255043,1.31551969051361,-3.40794277191162,0.41090455651283
571,2639563985,49.62150192260742,-86.30345153808594,-19.89380836486816,9.85120677947998,0.28787583112717,0.48106983304024,1.99633109569550,-3.24277973175049,0.62423282861710
572,2639580652,50.03925704956055,-86.32891082763672,-20.28538131713867,9.85697555541992,0.35268762707710,0.47202420234680,2.19616746902466,-3.09647321701050,0.88728159666061
573,2639597319,50.34367370605469,-86.35916900634766,-20.56252288818359,9.87674427032471,0.46008649468422,0.46619787812233,2.24616384506226,-2.93825125694275,1.41054928302765
574,2639613986,50.59510421752930,-86.38632202148438,-20.78690338134766,9.82704544067383,0.52499133348465,0.44426199793816,2.23016810417175,-2.64695715904236,1.39771711826324
575,2639630653,50.84793853759766,-86.40696716308594,-21.02021408081055,9.82796669006348,0.49752581119537,0.46113890409470,1.77765572071075,-2.42389631271362,1.09307956695557
576,2639647320,51.06930541992188,-86.42510986328125,-21.22386360168457,9.84632778167725,0.45952403545380,0.43813428282738,1.66929495334625,-2.23098778724670,1.04622745513916
577,2639663987,51.14426422119141,-86.43817138671875,-21.28549957275391,9.86855411529541,0.46665784716606,0.44705858826637,1.38632583618164,-1.63468587398529,1.15820634365082
578,2639680654,51.19301223754883,-86.45646667480469,-21.32820701599121,9.84447765350342,0.47662192583084,0.42793884873390,0.94644045829773,-1.76867866516113,1.43748712539673
579,2639697321,51.11379623413086,-86.47208404541016,-21.24936485290527,9.91567993164062,0.44920870661736,0.34999069571495,0.54856008291245,-1.32182681560516,1.59878325462341
580,2639713988,50.56849288940430,-86.46786499023438,-20.70862007141113,9.95369148254395,0.42191267013550,0.34766045212746,0.24712412059307,0.74728888273239,1.73640000820160
581,2639730655,49.60026931762695,-86.43410491943359,-19.74528884887695,9.91277027130127,0.42936980724335,0.40403351187706,0.17408950626850,3.08077216148376,1.40331971645355
582,2639747322,48.50364303588867,-86.39202117919922,-18.65966415405273,9.90343475341797,0.43658971786499,0.46155151724815,-0.20313435792923,3.76972270011902,1.42302262783051
583,2639763989,47.47537612915039,-86.35095214843750,-17.64541053771973,9.83321189880371,0.48069950938225,0.40153992176056,-0.37676286697388,3.55480599403381,1.39997112751007
584,2639780656,46.50113677978516,-86.31906127929688,-16.69012069702148,9.80652046203613,0.45521503686905,0.39926120638847,-0.67330658435822,3.01299452781677,1.77257156372070
585,2639797323,45.53068923950195,-86.28611755371094,-15.73551654815674,9.80990123748779,0.36154595017433,0.44900083541870,-0.48593696951866,3.07541298866272,1.79874801635742
586,2639813990,44.66057968139648,-86.25336456298828,-14.87451267242432,9.80744075775146,0.34850087761879,0.51185148954391,-0.07370053976774,2.80314970016479,1.64900314807892
587,2639830657,43.93344116210938,-86.21726989746094,-14.14908695220947,9.78833961486816,0.34007820487022,0.51607376337051,0.38721919059753,2.58688902854919,1.20002543926239
588,2639847324,43.24863052368164,-86.17643737792969,-13.46070384979248,9.78871250152588,0.31619569659233,0.47349837422371,0.70732671022415,2.71145653724670,0.95456600189209
589,2639863991,42.58810043334961,-86.13133239746094,-12.78595542907715,9.77167129516602,0.28384888172150,0.47412565350533,1.35055756568909,2.87382173538208,0.81249886751175
590,2639880658,42.15747070312500,-86.09515380859375,-12.32923030853271,9.72328281402588,0.35121849179268,0.48200809955597,2.08451485633850,1.90128159523010,0.57759189605713
591,2639897325,41.84625244140625,-86.07085418701172,-11.99344348907471,9.71059799194336,0.37872970104218,0.45000326633453,2.00334239006042,1.04018938541412,0.72803455591202
592,2639913992,41.52152633666992,-86.05657958984375,-11.64633941650391,9.82674503326416,0.39009195566177,0.43798670172691,1.87092435359955,0.62854206562042,1.17589831352234
593,2639930659,41.04259872436523,-86.03513336181641,-11.13750934600830,9.88573551177979,0.35149872303009,0.44831997156143,2.31499099731445,1.41305267810822,1.39094889163971
594,2639947326,40.57891082763672,-86.01238250732422,-10.64098930358887,9.82303047180176,0.38027009367943,0.49965485930443,2.48106360435486,1.42922699451447,1.34000515937805
595,2639963993,40.36363220214844,-86.00830841064453,-10.39375686645508,9.68063831329346,0.36711111664772,0.50395351648331,2.46148920059204,-0.10634392499924,1.30665111541748
596,2639980660,40.33811187744141,-86.01404571533203,-10.33816242218018,9.68438434600830,0.30950826406479,0.45123910903931,2.37771034240723,-1.06410527229309,1.07630336284637
597,2639997327,40.38457870483398,-86.00933837890625,-10.34537887573242,9.75227069854736,0.29461857676506,0.46947976946831,2.92489981651306,-0.77737110853195,0.48960599303246
598,2640013994,40.61206054687500,-86.00840759277344,-10.52185821533203,9.81376743316650,0.31759262084961,0.54201465845108,3.68673729896545,-1.36112296581268,0.06148969382048
599,2640030661,40.94040298461914,-86.01312255859375,-10.80095481872559,9.81949615478516,0.37253153324127,0.45881322026253,3.57137107849121,-1.93375277519226,-0.00970081146806
600,2640047328,41.07321548461914,-86.01395416259766,-10.90309524536133,9.87454414367676,0.34718576073647,0.39394530653954,2.43173360824585,-1.27222752571106,0.39332139492035
601,2640063995,40.96989059448242,-86.00110626220703,-10.76524257659912,9.87528514862061,0.29183343052864,0.38295671343803,2.63607192039490,0.00450783548877,0.60612457990646
602,2640080662,40.80182266235352,-85.97742462158203,-10.56299400329590,9.86489009857178,0.34458756446838,0.50061219930649,2.59040403366089,0.66498249769211,0.39625403285027
603,2640097329,40.71345138549805,-85.96080780029297,-10.44143104553223,9.75817298889160,0.37674385309219,0.57527256011963,2.55667257308960,0.13506858050823,0.41464403271675
604,2640113996,40.65465164184570,-85.95330047607422,-10.35358428955078,9.74179077148438,0.36519834399223,0.56142848730087,2.31773781776428,-0.36265024542809,0.65761250257492
605,2640130663,40.52231597900391,-85.94759368896484,-10.19727420806885,9.75474548339844,0.36160957813263,0.64466607570648,1.99245691299438,-0.26976576447487,0.96203225851059
606,2640147330,40.50832366943359,-85.95803833007812,-10.16320896148682,9.72183132171631,0.32773262262344,0.64005839824677,1.77842402458191,-1.34064555168152,1.19756662845612
607,2640163997,40.57633972167969,-85.97498321533203,-10.21421718597412,9.74695110321045,0.27666687965393,0.56886774301529,1.60667169094086,-1.87152624130249,1.18077099323273
608,2640180664,40.62892913818359,-85.98282623291016,-10.24687480926514,9.78024673461914,0.29538363218307,0.59770292043686,1.77717566490173,-1.40734744071960,0.88628911972046
609,2640197331,40.68369674682617,-85.98965454101562,-10.27733230590820,9.84793186187744,0.29846426844597,0.62812417745590,2.03980803489685,-1.35161411762238,0.85003423690796
610,2640213998,40.81877517700195,-85.99914550781250,-10.38252925872803,9.87358474731445,0.31436169147491,0.63193613290787,2.39575409889221,-1.66249465942383,0.70904272794724
611,2640230665,40.99073028564453,-86.01601409912109,-10.52630901336670,9.85421371459961,0.30930677056313,0.62283211946487,2.28427481651306,-2.11781167984009,0.89355653524399
612,2640247332,41.03163146972656,-86.02773284912109,-10.53875160217285,9.85202598571777,0.34195300936699,0.56750333309174,2.28596544265747,-1.52669608592987,1.10717940330505
613,2640263999,40.99626541137695,-86.03286743164062,-10.48308753967285,9.85360908508301,0.33496013283730,0.59724771976471,1.78225982189178,-1.04973018169403,1.06624388694763
614,2640280666,40.95185089111328,-86.03365325927734,-10.42582225799561,9.90233898162842,0.30557486414909,0.60974895954132,1.34608805179596,-0.82573419809341,0.87806731462479
615,2640297333,40.76392745971680,-86.02743530273438,-10.23095417022705,9.90091800689697,0.34884712100029,0.56280571222305,0.96497118473053,-0.15432290732861,1.05097866058350
616,2640314000,40.40388107299805,-86.01562500000000,-9.87046051025391,9.86619663238525,0.33065158128738,0.53513383865356,0.56082201004028,0.57005542516708,1.33884608745575
617,2640330667,39.95741271972656,-85.99298095703125,-9.42656040191650,9.84307098388672,0.32322084903717,0.57392466068268,0.35680416226387,1.26923096179962,1.21837711334229
618,2640347334,39.53932189941406,-85.96265411376953,-9.01240825653076,9.80518054962158,0.30202564597130,0.56571346521378,0.28624114394188,1.56028091907501,0.84330457448959
619,2640364001,39.11365127563477,-85.92594909667969,-8.59136199951172,9.80327415466309,0.29327723383904,0.52818131446838,0.24201439321041,1.88368594646454,0.65222734212875
620,2640380668,38.64583969116211,-85.89067840576172,-8.12863254547119,9.80023670196533,0.31699085235596,0.50854206085205,0.20955669879913,1.93735110759735,0.87945693731308
621,2640397335,38.12981796264648,-85.85726165771484,-7.62223577499390,9.79738807678223,0.33798339962959,0.53103888034821,-0.07697896659374,1.97115993499756,1.13626265525818
622,2640414002,37.56534957885742,-85.82162475585938,-7.07274389266968,9.82435989379883,0.32528969645500,0.54934179782867,-0.39750909805298,2.20707821846008,1.23845720291138
623,2640430669,37.03437805175781,-85.78448486328125,-6.56160783767700,9.83823585510254,0.37149411439896,0.51182627677917,-0.69431543350220,2.17065048217773,1.10630202293396
624,2640447336,36.50722885131836,-85.74798583984375,-6.05669784545898,9.85825824737549,0.40137389302254,0.52102804183960,-0.83074146509171,2.14362931251526,1.14321005344391
625,2640464003,35.93075942993164,-85.70814514160156,-5.50481128692627,9.83065509796143,0.39774405956268,0.53896808624268,-0.98055666685104,2.43754148483276,1.23832917213440
626,2640480670,35.38006591796875,-85.66650390625000,-4.98713970184326,9.75246143341064,0.36161848902702,0.60780781507492,-1.48923754692078,2.43540287017822,1.10901069641113
627,2640497337,34.96403884887695,-85.63139343261719,-4.60695600509644,9.66488265991211,0.35068845748901,0.63874435424805,-1.63061344623566,1.77138721942902,0.86519706249237
628,2640514004,34.65372848510742,-85.60899353027344,-4.33623409271240,9.69610786437988,0.36522430181503,0.60667955875397,-1.83847332000732,0.86115026473999,0.91980332136154
629,2640530671,34.40344619750977,-85.59825134277344,-4.12993621826172,9.75931072235107,0.33645033836365,0.65632671117783,-2.09950518608093,0.10054265707731,1.09772193431854
630,2640547338,34.26265716552734,-85.59745025634766,-4.02637958526611,9.79001712799072,0.30512538552284,0.61789202690125,-1.67226588726044,-0.64177739620209,1.03807628154755
631,2640564005,34.09624481201172,-85.59344482421875,-3.90222239494324,9.87294769287109,0.33449250459671,0.45923796296120,-1.97202420234680,-0.43235519528389,1.01013290882111
632,2640580672,33.88702011108398,-85.57862091064453,-3.72684335708618,9.84121704101562,0.31773093342781,0.51826089620590,-1.48197662830353,0.23684708774090,0.84671109914780
633,2640597339,33.72897720336914,-85.57596588134766,-3.59383511543274,9.80415439605713,0.33602002263069,0.53072845935822,-0.94331574440002,-0.47592234611511,1.09356617927551
634,2640614006,33.50443649291992,-85.57526397705078,-3.40280294418335,9.79447841644287,0.29349991679192,0.56578457355499,-1.46821582317352,-0.43191334605217,1.38673555850983
635,2640630673,33.33283615112305,-85.58119964599609,-3.25760006904602,9.72625446319580,0.31850153207779,0.56139975786209,-1.02866339683533,-0.88185149431229,1.43016171455383
636,2640647340,33.18575286865234,-85.59122467041016,-3.13316226005554,9.73337078094482,0.33402749896049,0.59505784511566,-0.80136364698410,-1.14485561847687,1.48494744300842
637,2640664007,33.09120941162109,-85.60493469238281,-3.06392621994019,9.74182128906250,0.30311915278435,0.64370107650757,-0.94832950830460,-1.46347773075104,1.38743996620178
638,2640680674,33.10033416748047,-85.62341308593750,-3.10129952430725,9.73619174957275,0.28589895367622,0.65790534019470,-1.11216735839844,-1.97815835475922,1.13864457607269
639,2640697341,33.14495849609375,-85.65251159667969,-3.16902756690979,9.79510021209717,0.31012037396431,0.68902927637100,-0.79551768302917,-2.59268426895142,1.37603592872620
640,2640714008,33.19247055053711,-85.68570709228516,-3.23430752754211,9.73665046691895,0.32383182644844,0.66601276397705,-0.47642186284065,-2.77765893936157,1.51438295841217
641,2640730675,33.26646423339844,-85.72382354736328,-3.32222294807434,9.76724433898926,0.32321619987488,0.66875165700912,-0.25128617882729,-3.09926462173462,1.60972619056702
642,2640747342,33.37735748291016,-85.76496887207031,-3.43819141387939,9.81601142883301,0.29491609334946,0.69711464643478,0.30267167091370,-3.28581500053406,1.59143877029419
643,2640764009,33.56906890869141,-85.80357360839844,-3.62661099433899,9.80309867858887,0.28057762980461,0.68732547760010,0.80272132158279,-3.35311245918274,1.26825773715973
644,2640780676,33.83172607421875,-85.83985900878906,-3.87748098373413,9.79067993164062,0.28545665740967,0.63608884811401,1.32299196720123,-3.37693190574646,0.97650331258774
645,2640797343,34.05276107788086,-85.87417602539062,-4.08506727218628,9.87187576293945,0.35280036926270,0.66264879703522,1.41352009773254,-3.17141556739807,1.08579277992249
646,2640814010,34.25986862182617,-85.91184234619141,-4.27815532684326,9.86227607727051,0.36621037125587,0.68966150283813,1.44008064270020,-3.30506348609924,1.27066540718079
647,2640830677,34.47412872314453,-85.94865417480469,-4.47460985183716,9.84487628936768,0.35973432660103,0.72929543256760,1.67847096920013,-3.24514245986938,1.23167002201080
648,2640847344,34.70351028442383,-85.98414611816406,-4.68925380706787,9.81647872924805,0.37088024616241,0.67202061414719,1.49526309967041,-3.21687841415405,1.13744080066681
649,2640864011,34.84363555908203,-86.00923919677734,-4.81267833709717,9.87482452392578,0.32184264063835,0.63371855020523,1.59775233268738,-2.48464965820312,1.11003530025482
650,2640880678,34.92045974731445,-86.02359771728516,-4.86970186233521,9.90656089782715,0.33613452315331,0.66448014974594,1.76992094516754,-1.80692481994629,0.97992265224457
651,2640897345,34.98081588745117,-86.03414916992188,-4.91050672531128,9.87158870697021,0.31654253602028,0.70073997974396,1.75808763504028,-1.56990468502045,0.89788514375687
652,2640914012,34.99682998657227,-86.03943634033203,-4.90324068069458,9.88437366485596,0.31205639243126,0.66328728199005,1.97359299659729,-1.20046722888947,0.88287621736526
653,2640930679,34.99530792236328,-86.04338836669922,-4.87190532684326,9.86389923095703,0.34490811824799,0.63876134157181,2.36313652992249,-1.07638645172119,0.91761982440948
654,2640947346,34.95914077758789,-86.04215240478516,-4.80485248565674,9.87242889404297,0.37013244628906,0.59642404317856,2.41999053955078,-0.73114657402039,0.85493916273117
655,2640964013,34.79420089721680,-86.02989959716797,-4.61467885971069,9.83648014068604,0.33840873837471,0.60584652423859,2.06579256057739,0.09702090919018,0.89908266067505
656,2640980680,34.53898239135742,-86.00923919677734,-4.33309412002563,9.83652782440186,0.31619918346405,0.60786920785904,2.11972641944885,0.72625452280045,0.93174529075623
657,2640997347,34.22215652465820,-85.98706817626953,-3.98825120925903,9.85306835174561,0.35834527015686,0.66008633375168,2.20641231536865,0.95781886577606,1.10764038562775
658,2641014014,33.90068817138672,-85.96804046630859,-3.64369344711304,9.80925750732422,0.36923998594284,0.64227741956711,1.91065621376038,0.80122929811478,1.23045980930328
659,2641030681,33.53388214111328,-85.94711303710938,-3.26058721542358,9.78386020660400,0.34686887264252,0.59711593389511,1.51153349876404,1.00190484523773,1.30892419815063
660,2641047348,33.16759490966797,-85.91721343994141,-2.88019227981567,9.83016872406006,0.34082961082458,0.63578826189041,1.37079823017120,1.43198692798615,1.03432404994965
661,2641064015,32.90353775024414,-85.89205932617188,-2.59795522689819,9.83176040649414,0.34462130069733,0.72916305065155,1.62392830848694,0.97131675481796,0.85858249664307
662,2641080682,32.72565460205078,-85.87360382080078,-2.40094566345215,9.85884666442871,0.36057275533676,0.63002175092697,1.69717407226562,0.43886074423790,0.78127688169479
663,2641097349,32.31833648681641,-85.83891296386719,-1.98665893077850,9.87951278686523,0.33758923411369,0.54858434200287,0.93529897928238,1.76205134391785,1.06382358074188
664,2641114016,31.86967277526855,-85.79732513427734,-1.52070963382721,9.79156494140625,0.32154095172882,0.57009458541870,1.54160284996033,2.24732232093811,1.06242763996124
665,2641130683,31.42241287231445,-85.76044464111328,-1.05603492259979,9.76774883270264,0.34225741028786,0.60117554664612,1.55149579048157,2.00463557243347,1.25200641155243
666,2641147350,31.04748916625977,-85.73184967041016,-0.66800338029861,9.75688457489014,0.31989032030106,0.59628689289093,1.30177187919617,1.41049790382385,1.25250577926636
667,2641164017,30.72574234008789,-85.70618438720703,-0.33147886395454,9.74901199340820,0.31658807396889,0.58800315856934,1.41291809082031,1.14707100391388,1.16626799106598
668,2641180684,30.48875617980957,-85.68202972412109,-0.07860691100359,9.76578998565674,0.33014187216759,0.63943266868591,1.49174106121063,0.87930315732956,0.90752834081650
669,2641197351,30.29899978637695,-85.66027069091797,0.12481556087732,9.78190231323242,0.32745534181595,0.63024413585663,1.36269807815552,0.63363260030746,0.80682563781738
670,2641214018,30.13261985778809,-85.64134979248047,0.30459782481194,9.78304004669189,0.33609500527382,0.62945836782455,1.35581457614899,0.43593454360962,0.80688321590424
671,2641230685,29.91406631469727,-85.62346649169922,0.53751140832901,9.80062007904053,0.32826060056686,0.63766950368881,1.40345418453217,0.51293909549713,1.05034482479095
672,2641247352,29.66288948059082,-85.60693359375000,0.80148786306381,9.77417278289795,0.34350275993347,0.64325416088104,1.29889667034149,0.50620931386948,1.22782123088837
673,2641264019,29.44861793518066,-85.59438323974609,1.02954995632172,9.77584457397461,0.33907100558281,0.68229931592941,1.37058031558990,0.22153063118458,1.20900261402130
674,2641280686,29.29109954833984,-85.59082031250000,1.20103180408478,9.78179168701172,0.34076800942421,0.67975890636444,1.38494908809662,-0.38258969783783,1.25650119781494
675,2641297353,29.16996192932129,-85.59326934814453,1.33411467075348,9.75844097137451,0.29557651281357,0.64671820402145,1.27649831771851,-0.77806890010834,1.27551221847534
676,2641314020,29.09221839904785,-85.59958648681641,1.42191183567047,9.79177379608154,0.31775647401810,0.63018482923508,1.16294455528259,-1.09503889083862,1.21282529830933
677,2641330687,29.00798034667969,-85.60702514648438,1.51486063003540,9.80212497711182,0.31166896224022,0.63524752855301,1.08326959609985,-1.13363063335419,1.26063752174377
678,2641347354,28.92494010925293,-85.61394500732422,1.60402512550354,9.80398082733154,0.33057460188866,0.67785561084747,0.92741662263870,-1.12361633777618,1.23336029052734
679,2641364021,28.86114311218262,-85.62467193603516,1.67225277423859,9.75569057464600,0.34577456116676,0.66465705633163,0.84052556753159,-1.36127650737762,1.25370955467224
680,2641380688,28.78720855712891,-85.64131164550781,1.74735224246979,9.79186248779297,0.36046609282494,0.63255542516708,0.63283216953278,-1.66624712944031,1.45532000064850
681,2641397355,28.70712852478027,-85.65828704833984,1.82760393619537,9.84182643890381,0.34055584669113,0.64513516426086,0.56876844167709,-1.68168509006500,1.48723995685577
682,2641414022,28.64146423339844,-85.67414855957031,1.89059042930603,9.83775806427002,0.34400972723961,0.63964897394180,0.40770295262337,-1.65111637115479,1.37852668762207
683,2641430689,28.57319259643555,-85.69011688232422,1.95243942737579,9.78959083557129,0.33915850520134,0.64746665954590,0.18288749456406,-1.66184806823730,1.37642645835876
684,2641447356,28.55814170837402,-85.70600128173828,1.95879578590393,9.78220462799072,0.30278956890106,0.64621847867966,0.05231394246221,-1.77823221683502,1.15391623973846
685,2641464023,28.58713722229004,-85.71961975097656,1.91712403297424,9.79832839965820,0.27178162336349,0.64075165987015,-0.17188681662083,-1.76078343391418,0.90113794803619
686,2641480690,28.64489936828613,-85.73510742187500,1.83914196491241,9.80077171325684,0.32777500152588,0.61942273378372,-0.61756706237793,-1.92696523666382,0.80809354782104
