sep=,
DeviceTag:,Xsens_DOT_4
FirmwareVersion:,3.0.0
AppVersion:,2023.6.0
StartTime: ,2025-04-09_11:04:29_000 CEST
© Movella Technologies B. V. 2005-2025

PacketCounter,SampleTimeFine,Euler_X,Euler_Y,Euler_Z,Acc_X,Acc_Y,Acc_Z,Gyr_X,Gyr_Y,Gyr_Z
0,2524095009,1.54462170600891,-82.03109741210938,88.79364013671875,0.00000000000000,0.00000000000000,0.00000000000000,0.00000000000000,0.00000000000000,0.00000000000000
1,2524111676,1.56981325149536,-82.04966735839844,88.82394409179688,9.79912185668945,-0.18621551990509,1.46250569820404,3.33169364929199,-1.01839923858643,-0.99091702699661
2,2524128343,1.58407425880432,-82.06442260742188,88.85270690917969,9.82603931427002,-0.17058715224266,1.49989378452301,2.24871182441711,-0.78775691986084,-1.05798375606537
3,2524145010,1.59720540046692,-82.07962799072266,88.86791229248047,9.80840110778809,-0.19356265664101,1.45087063312531,1.85410988330841,-0.81526505947113,-1.10130774974823
4,2524161677,1.56723511219025,-82.08215332031250,88.89879608154297,9.81326770782471,-0.04824448376894,1.45432746410370,0.14470534026623,-0.05972881242633,-0.99997097253799
5,2524178344,1.49898529052734,-82.07645416259766,88.92214965820312,9.85250759124756,-0.10743628442287,1.39997708797455,-2.48666024208069,0.43859830498695,-1.06017363071442
6,2524195011,1.44757664203644,-82.06573486328125,88.94795989990234,9.84700393676758,-0.18901053071022,1.37857878208160,-1.47447192668915,0.73795944452286,-1.06737077236176
7,2524211678,1.42668116092682,-82.05493164062500,88.95629119873047,9.79796218872070,-0.20003560185432,1.40803253650665,-0.47797137498856,0.74070012569427,-1.18237185478210
8,2524228345,1.40725040435791,-82.04910278320312,88.96371459960938,9.77681064605713,-0.18510405719280,1.44358336925507,-0.57592713832855,0.44460448622704,-1.20051848888397
9,2524245012,1.40920805931091,-82.04670715332031,88.95210266113281,9.79761123657227,-0.20681424438953,1.45755660533905,-0.98935449123383,0.23414486646652,-1.43593752384186
10,2524261679,1.41948473453522,-82.04756927490234,88.91697692871094,9.80714702606201,-0.16545316576958,1.48564517498016,-1.30537676811218,0.03142037615180,-1.54292166233063
11,2524278346,1.43665146827698,-82.05228424072266,88.87155914306641,9.75378131866455,-0.18743476271629,1.45266914367676,-1.77513945102692,-0.20809037983418,-1.66106045246124
12,2524295013,1.44865942001343,-82.05902862548828,88.83065795898438,9.79926013946533,-0.18961741030216,1.46166944503784,-1.66072738170624,-0.32067102193832,-1.59833490848541
13,2524311680,1.44747912883759,-82.05996704101562,88.79441833496094,9.81068801879883,-0.15899094939232,1.40863835811615,-2.24743103981018,0.02775135822594,-1.57923424243927
14,2524328347,1.45925080776215,-82.05547332763672,88.75486755371094,9.78477668762207,-0.22494971752167,1.36069273948669,-1.98399794101715,0.35188645124435,-1.65970277786255
15,2524345014,1.49225747585297,-82.04969024658203,88.69271087646484,9.77110958099365,-0.15249140560627,1.42979586124420,-1.75249767303467,0.42081022262573,-1.80819249153137
16,2524361681,1.54643452167511,-82.05048370361328,88.62450408935547,9.75403785705566,-0.24174620211124,1.44599127769470,-0.44731292128563,0.03425697982311,-1.79091656208038
17,2524378348,1.59638321399689,-82.05824279785156,88.58489990234375,9.81140613555908,-0.19366142153740,1.49020433425903,0.63183331489563,-0.38426735997200,-1.59432673454285
18,2524395015,1.63632833957672,-82.07268524169922,88.53776550292969,9.81527233123779,-0.20701374113560,1.46940624713898,-0.24041365087032,-0.78306990861893,-1.61992657184601
19,2524411682,1.68711948394775,-82.08882904052734,88.47729492187500,9.79266643524170,-0.14545764029026,1.47545778751373,-0.75962150096893,-0.89211601018906,-1.78004431724548
20,2524428349,1.73887455463409,-82.10742950439453,88.40187835693359,9.79472351074219,-0.21149133145809,1.43445909023285,-1.40717458724976,-1.04107940196991,-1.87077713012695
21,2524445016,1.80807399749756,-82.12500762939453,88.32318878173828,9.77887439727783,-0.13474915921688,1.37717986106873,-0.36873325705528,-0.97820025682449,-1.87075173854828
22,2524461683,1.86052906513214,-82.14040374755859,88.23797607421875,9.79545593261719,-0.12428663671017,1.36933135986328,-1.30704152584076,-0.85491353273392,-1.86114692687988
23,2524478350,1.91020822525024,-82.15773010253906,88.15296936035156,9.80737590789795,-0.12824292480946,1.43295371532440,-1.94218540191650,-0.96226918697357,-1.92110621929169
24,2524495017,1.97681879997253,-82.17336273193359,88.05412292480469,9.79664516448975,-0.17981158196926,1.39089071750641,-1.97202420234680,-0.87519878149033,-2.06749582290649
25,2524511684,2.05099272727966,-82.18601226806641,87.93848419189453,9.81704521179199,-0.16217720508575,1.37509286403656,-2.51816391944885,-0.70127582550049,-2.20867276191711
26,2524528351,2.11169362068176,-82.19798278808594,87.82714080810547,9.77955722808838,-0.09526147693396,1.40475928783417,-3.20371365547180,-0.65737569332123,-2.19134616851807
27,2524545018,2.14107346534729,-82.21361541748047,87.71933746337891,9.79428195953369,-0.14889843761921,1.46277225017548,-4.55975294113159,-0.87466096878052,-2.10792565345764
28,2524561685,2.17466163635254,-82.23017120361328,87.61117553710938,9.78334999084473,-0.17009459435940,1.39736640453339,-4.04050636291504,-0.93591374158859,-2.06698346138000
29,2524578352,2.23613214492798,-82.24938964843750,87.49405670166016,9.78440093994141,-0.16787768900394,1.35150730609894,-3.35633897781372,-1.09096014499664,-2.19477748870850
30,2524595019,2.29925632476807,-82.27381896972656,87.36180114746094,9.82006835937500,-0.08900056034327,1.39115297794342,-4.30440711975098,-1.41522979736328,-2.31992149353027
31,2524611686,2.32457280158997,-82.29182434082031,87.22080993652344,9.83506298065186,-0.15538592636585,1.43057882785797,-6.73151731491089,-1.03365182876587,-2.35198879241943
32,2524628353,2.38875246047974,-82.30237579345703,87.09868621826172,9.80692291259766,-0.17211906611919,1.36625194549561,-3.45063233375549,-0.58024287223816,-2.23975348472595
33,2524645020,2.44331336021423,-82.30455780029297,87.01074218750000,9.77291393280029,-0.13153220713139,1.33682966232300,-1.92622888088226,-0.06850116699934,-1.97507214546204
34,2524661687,2.48281359672546,-82.31231689453125,86.93200683593750,9.79260730743408,-0.10123077034950,1.37908303737640,-2.24646449089050,-0.40197852253914,-1.88152182102203
35,2524678354,2.51732707023621,-82.31591796875000,86.87915039062500,9.77798938751221,-0.15465418994427,1.32913601398468,-0.93494033813477,-0.13948674499989,-1.67276537418365
36,2524695021,2.54336571693420,-82.32448577880859,86.82724761962891,9.79842567443848,-0.13194249570370,1.42141139507294,-1.75957977771759,-0.43836137652397,-1.70522964000702
37,2524711688,2.56636238098145,-82.33348846435547,86.77517700195312,9.77355003356934,-0.14489302039146,1.37779271602631,-1.41233551502228,-0.46040111780167,-1.62903177738190
38,2524728355,2.60739183425903,-82.34481048583984,86.71800994873047,9.83691406250000,-0.12788556516171,1.35182321071625,-1.09979653358459,-0.60940295457840,-1.72634732723236
39,2524745022,2.66269922256470,-82.36187744140625,86.64167785644531,9.81873226165771,-0.10571058839560,1.35838186740875,-1.28950989246368,-0.95772296190262,-1.85017192363739
40,2524761689,2.69729709625244,-82.37334442138672,86.57754516601562,9.82971572875977,-0.12479040026665,1.39869391918182,-1.97680079936981,-0.61279660463333,-1.79017388820648
41,2524778356,2.71550726890564,-82.37486267089844,86.53807830810547,9.77906036376953,-0.10610058158636,1.31100392341614,-1.11387062072754,-0.00596775859594,-1.56873941421509
42,2524795023,2.70377039909363,-82.37496185302734,86.53025817871094,9.79488372802734,-0.09222020208836,1.29859268665314,-1.08282816410065,0.07852213829756,-1.32758319377899
43,2524811690,2.68778204917908,-82.38269042968750,86.52598571777344,9.78810977935791,-0.09375672787428,1.35635316371918,-1.28355479240417,-0.37062856554985,-1.29979312419891
44,2524828357,2.66524338722229,-82.39762115478516,86.50997924804688,9.78505229949951,-0.08265215903521,1.40367996692657,-2.27036118507385,-0.79782277345657,-1.35935568809509
45,2524845024,2.62744355201721,-82.41242980957031,86.49329376220703,9.80377388000488,-0.10107291489840,1.36657691001892,-3.26668262481689,-0.80311191082001,-1.37018990516663
46,2524861691,2.59118199348450,-82.42993164062500,86.45848846435547,9.82196998596191,-0.10054100304842,1.37667524814606,-4.39727830886841,-0.96589332818985,-1.52571022510529
47,2524878358,2.54387593269348,-82.44866943359375,86.42182922363281,9.81359100341797,-0.05543394759297,1.36057615280151,-5.03758239746094,-1.03456091880798,-1.52036988735199
48,2524895025,2.47190642356873,-82.45829010009766,86.40596771240234,9.80726718902588,-0.15378949046135,1.37824821472168,-5.20699882507324,-0.49053454399109,-1.36988270282745
49,2524911692,2.44213962554932,-82.45930480957031,86.38775634765625,9.75734806060791,-0.13321837782860,1.28493118286133,-3.00100159645081,0.02400550432503,-1.43652653694153
50,2524928359,2.43771910667419,-82.46558380126953,86.35883331298828,9.78496265411377,-0.16136814653873,1.31973612308502,-1.81585061550140,-0.28713116049767,-1.46633982658386
51,2524945026,2.41965198516846,-82.48143005371094,86.32446289062500,9.79540061950684,-0.08863782137632,1.39109075069427,-3.08284735679626,-0.86606788635254,-1.50210797786713
52,2524961693,2.39945006370544,-82.49831390380859,86.29124450683594,9.82230472564697,-0.15336148440838,1.38837790489197,-3.05506968498230,-0.92314565181732,-1.47787833213806
53,2524978360,2.38349080085754,-82.51303100585938,86.27409362792969,9.81714248657227,-0.12158348411322,1.35234439373016,-2.04799127578735,-0.78482431173325,-1.38555741310120
54,2524995027,2.34761118888855,-82.52168273925781,86.27837371826172,9.81023693084717,-0.08438353985548,1.29550695419312,-1.85752904415131,-0.42699572443962,-1.21685302257538
55,2525011694,2.28322315216064,-82.52561950683594,86.30456542968750,9.78812503814697,-0.10332923382521,1.28013253211975,-2.28649687767029,-0.13453072309494,-1.06154382228851
56,2525028361,2.24837374687195,-82.52798461914062,86.31950378417969,9.80441570281982,-0.14070123434067,1.33421540260315,-1.05781722068787,-0.03826536983252,-1.13616645336151
57,2525045028,2.22603416442871,-82.52866363525391,86.35504913330078,9.77819633483887,-0.14673583209515,1.33788573741913,0.78612422943115,0.06442233920097,-0.99725598096848
58,2525061695,2.20003437995911,-82.52887725830078,86.40192413330078,9.79171371459961,-0.13997559249401,1.34625244140625,0.97004896402359,0.09464532881975,-0.94686317443848
59,2525078362,2.16932368278503,-82.53215789794922,86.43548583984375,9.79313373565674,-0.08618119359016,1.35125541687012,0.10033775120974,-0.08886966109276,-1.01544737815857
60,2525095029,2.13302659988403,-82.54286193847656,86.45481872558594,9.78339958190918,-0.09322790056467,1.34122145175934,-0.87945050001144,-0.54027432203293,-1.08303296566010
61,2525111696,2.08848094940186,-82.55985260009766,86.47366333007812,9.81643104553223,-0.12467322498560,1.39274859428406,-1.41242504119873,-0.91332322359085,-1.07472157478333
62,2525128363,2.03206443786621,-82.57418823242188,86.50556182861328,9.79647731781006,-0.10710672289133,1.29794287681580,-1.28281211853027,-0.75221943855286,-0.97100305557251
63,2525145030,1.98243916034698,-82.59181213378906,86.52495574951172,9.81063556671143,-0.11998299509287,1.27892506122589,-1.92392361164093,-0.95560985803604,-1.10361278057098
64,2525161697,1.92924714088440,-82.61579132080078,86.51622009277344,9.81355476379395,-0.09489930421114,1.36627197265625,-3.45467972755432,-1.33840465545654,-1.26069557666779
65,2525178364,1.87032496929169,-82.61998748779297,86.54255676269531,9.82417869567871,-0.18741436302662,1.32233536243439,-2.00491070747375,-0.14782370626926,-1.07268548011780
66,2525195031,1.83923554420471,-82.61823272705078,86.56864166259766,9.76734066009521,-0.14279325306416,1.29513764381409,-0.07331635057926,0.21013298630714,-1.04776430130005
67,2525211698,1.80433595180511,-82.62312316894531,86.58988952636719,9.72023963928223,-0.08900518715382,1.30795061588287,-0.84872794151306,-0.19279958307743,-1.10713446140289
68,2525228365,1.77677083015442,-82.64009094238281,86.58332824707031,9.77859210968018,-0.12706151604652,1.34311020374298,-1.97234439849854,-0.91729313135147,-1.28592383861542
69,2525245032,1.75724744796753,-82.66334533691406,86.56750488281250,9.80590438842773,-0.14568057656288,1.34306418895721,-2.03239345550537,-1.29930663108826,-1.34584498405457
70,2525261699,1.73720121383667,-82.67753601074219,86.57217407226562,9.83025741577148,-0.19380126893520,1.30899775028229,-0.64958930015564,-0.75627899169922,-1.17913186550140
71,2525278366,1.71142137050629,-82.68463897705078,86.58416748046875,9.79268169403076,-0.07133290916681,1.28731381893158,-0.99227428436279,-0.32420551776886,-1.19466590881348
72,2525295033,1.68705654144287,-82.69115447998047,86.59598541259766,9.80486392974854,-0.10501550883055,1.25636255741119,-0.53045183420181,-0.28868076205254,-1.14572012424469
73,2525311700,1.66324293613434,-82.70606994628906,86.60073089599609,9.79115295410156,-0.11311215162277,1.29378342628479,-1.21905553340912,-0.78972274065018,-1.22483122348785
74,2525328367,1.64016318321228,-82.71994018554688,86.60340881347656,9.80519962310791,-0.12264067679644,1.25906479358673,-1.25153887271881,-0.74034786224365,-1.23571026325226
75,2525345034,1.63310694694519,-82.72891998291016,86.59091949462891,9.83168315887451,-0.14272169768810,1.23027634620667,-1.02595520019531,-0.44368883967400,-1.33816123008728
76,2525361701,1.63801217079163,-82.73509979248047,86.55447387695312,9.84395980834961,-0.04651252180338,1.20993256568909,-1.67227888107300,-0.27546459436417,-1.51713001728058
77,2525378368,1.63312089443207,-82.75023651123047,86.49275970458984,9.82129096984863,-0.06025518104434,1.25546693801880,-4.17950010299683,-0.82286566495895,-1.74799668788910
78,2525395035,1.57237887382507,-82.75559997558594,86.48072814941406,9.81176853179932,-0.15822958946228,1.28691482543945,-4.08635902404785,-0.22080068290234,-1.32304322719574
79,2525411702,1.52205502986908,-82.74677276611328,86.49519348144531,9.76464939117432,-0.14581748843193,1.24495553970337,-1.88309705257416,0.62852931022644,-1.14511823654175
80,2525428369,1.46898519992828,-82.74363708496094,86.52259826660156,9.76877880096436,-0.09268604964018,1.28438365459442,-1.48041379451752,0.29076170921326,-1.06434834003448
81,2525445036,1.42247021198273,-82.75051116943359,86.53105926513672,9.76807403564453,-0.12125581502914,1.34514248371124,-2.72772717475891,-0.31494656205177,-1.26151514053345
82,2525461703,1.39005899429321,-82.76904296875000,86.50669860839844,9.76479911804199,-0.11904197931290,1.35655725002289,-3.37218737602234,-1.01042747497559,-1.43112885951996
83,2525478370,1.40062522888184,-82.78822326660156,86.47525787353516,9.79285717010498,-0.18407715857029,1.24251294136047,-1.18670690059662,-1.06256210803986,-1.48015153408051
84,2525495037,1.46310901641846,-82.82269287109375,86.38980102539062,9.81522941589355,-0.04998326674104,1.19090294837952,-1.37469780445099,-1.98415184020996,-1.87308251857758
85,2525511704,1.59276700019836,-82.88668823242188,86.21856689453125,9.76697540283203,-0.03536377847195,1.18122720718384,-2.65672898292542,-3.76351761817932,-2.48534131050110
86,2525528371,1.81189382076263,-82.98290252685547,85.94304656982422,9.75231456756592,-0.10451421141624,1.19773447513580,-3.19504356384277,-5.72186470031738,-3.13352227210999
87,2525545038,2.09357261657715,-83.10369110107422,85.61640167236328,9.74864196777344,-0.08599585294724,1.21364128589630,-2.68278980255127,-7.21576452255249,-3.42239522933960
88,2525561705,2.31911778450012,-83.21163940429688,85.31800079345703,9.91852760314941,-0.10869902372360,1.33216714859009,-4.18710088729858,-6.44192790985107,-3.15689396858215
89,2525578372,2.38454532623291,-83.24059295654297,85.20939636230469,9.95213317871094,-0.07537750899792,1.35539853572845,-2.48190903663635,-1.66608071327209,-1.96686351299286
90,2525595039,2.26153445243835,-83.17947387695312,85.32331848144531,9.79501533508301,-0.17617304623127,1.24232995510101,-0.78315955400467,3.79163408279419,-0.63897287845612
91,2525611706,2.14203166961670,-83.13438415527344,85.43957519531250,9.70194339752197,-0.09946875274181,1.21834266185760,-0.08521345257759,2.82557415962219,-0.52883821725845
92,2525628373,2.07335186004639,-83.11838531494141,85.53099060058594,9.73252296447754,-0.12889270484447,1.28538405895233,0.87209331989288,1.08438408374786,-0.71077805757523
93,2525645040,2.03000760078430,-83.11994934082031,85.59313201904297,9.78419971466064,-0.13921974599361,1.33030414581299,0.94188791513443,0.02212296985090,-0.84660220146179
94,2525661707,1.98297870159149,-83.11986541748047,85.66200256347656,9.83369922637939,-0.11674512177706,1.31234133243561,1.20979022979736,0.11786964535713,-0.78982520103455
95,2525678374,1.96050918102264,-83.11729431152344,85.71202850341797,9.76573562622070,-0.07084842771292,1.18525683879852,1.63481366634369,0.26949039101601,-0.92132723331451
96,2525695041,1.95751643180847,-83.13385009765625,85.71567535400391,9.76134300231934,-0.05297039821744,1.16714286804199,0.24449241161346,-0.89452350139618,-1.19063186645508
97,2525711708,1.87023937702179,-83.12873840332031,85.78292846679688,9.90541934967041,-0.13678385317326,1.30476462841034,-1.26008081436157,0.42431914806366,-0.80651831626892
98,2525728375,1.73868107795715,-83.08091735839844,85.93396759033203,9.83207607269287,-0.14032281935215,1.28428888320923,1.16580677032471,3.00353074073792,-0.26970171928406
99,2525745042,1.63009548187256,-83.01824188232422,86.11378479003906,9.71901130676270,-0.12278424203396,1.16615891456604,4.17378807067871,3.89083170890808,-0.08180697262287
100,2525761709,1.53887021541595,-82.99568176269531,86.23428344726562,9.75199794769287,-0.04428908228874,1.23525464534760,1.91761636734009,1.46451497077942,-0.40457820892334
101,2525778376,1.49519062042236,-83.00736999511719,86.29683685302734,9.76341724395752,-0.07063355296850,1.21561861038208,1.06270301342010,-0.58820849657059,-0.80571150779724
102,2525795043,1.48768770694733,-83.04360198974609,86.29447937011719,9.79072952270508,-0.07853158563375,1.23732447624207,-0.49812859296799,-2.07188820838928,-1.22470974922180
103,2525811710,1.46643805503845,-83.06036376953125,86.32489013671875,9.80928421020508,-0.15221096575260,1.21949231624603,0.32743915915489,-0.89424180984497,-1.05484628677368
104,2525828377,1.45217478275299,-83.08193969726562,86.33903503417969,9.79389572143555,-0.06295341998339,1.17957603931427,-0.13919222354889,-1.18919765949249,-1.15632379055023
105,2525845044,1.44646036624908,-83.11923980712891,86.32585906982422,9.81116962432861,-0.05344069749117,1.18174755573273,-1.06231224536896,-2.13917279243469,-1.30523598194122
106,2525861711,1.46691644191742,-83.16235351562500,86.28979492187500,9.86467647552490,-0.13948343694210,1.23724174499512,-0.80559623241425,-2.49028420448303,-1.45436596870422
107,2525878378,1.49127447605133,-83.20171356201172,86.26175689697266,9.76301097869873,-0.15415161848068,1.25723969936371,-0.19276116788387,-2.25528788566589,-1.41264283657074
108,2525895045,1.53808856010437,-83.24652099609375,86.21219635009766,9.73291015625000,-0.09039498865604,1.18983435630798,-0.14663912355900,-2.59283113479614,-1.55684876441956
109,2525911712,1.61819601058960,-83.30889129638672,86.10707092285156,9.78027629852295,-0.06409433484077,1.16448938846588,-1.35823500156403,-3.65110921859741,-1.89876532554626
110,2525928379,1.75171339511871,-83.39407348632812,85.94938659667969,9.77199363708496,-0.06918573379517,1.07665646076202,-0.96798080205917,-5.02971982955933,-2.17280220985413
111,2525945046,1.95115220546722,-83.51142883300781,85.72959899902344,9.73860549926758,-0.09007222205400,1.05980086326599,-1.59140694141388,-6.96885824203491,-2.60793685913086
112,2525961713,2.23057317733765,-83.64979553222656,85.44268035888672,9.75911712646484,-0.10558271408081,1.07762300968170,-0.28241845965385,-8.26227378845215,-2.89346694946289
113,2525978380,2.52048444747925,-83.78151702880859,85.13187408447266,9.78339862823486,-0.08081784099340,1.11782777309418,-1.10788404941559,-7.86196708679199,-2.98815107345581
114,2525995047,2.82341384887695,-83.90313720703125,84.80876159667969,9.79354286193848,-0.09265332669020,1.14379060268402,-0.87227261066437,-7.26773881912231,-2.99194145202637
115,2526011714,3.09679865837097,-84.01090240478516,84.51892089843750,9.79571056365967,-0.15801817178726,1.18566799163818,-1.08991670608521,-6.43627452850342,-2.79605555534363
116,2526028381,3.38603806495667,-84.10432434082031,84.23755645751953,9.81100273132324,-0.11037299782038,1.12036657333374,0.50930857658386,-5.57561016082764,-2.71392846107483
117,2526045048,3.64753580093384,-84.18341064453125,83.98307037353516,9.83424472808838,-0.11116020381451,1.12065064907074,0.20949269831181,-4.72588968276978,-2.57350015640259
118,2526061715,3.88446092605591,-84.24919891357422,83.74790191650391,9.81198024749756,-0.05433603748679,1.08718466758728,0.22628185153008,-3.93142199516296,-2.43206715583801
119,2526078382,4.09067964553833,-84.30295562744141,83.53565216064453,9.81706809997559,-0.09951788187027,1.07137811183929,-0.15632712841034,-3.19120192527771,-2.30684638023376
120,2526095049,4.26529455184937,-84.34355163574219,83.37198638916016,9.81848144531250,-0.07306100428104,1.00915241241455,0.77213960886002,-2.39336585998535,-2.06186056137085
121,2526111716,4.39397001266479,-84.37719726562500,83.23876190185547,9.78348445892334,-0.05822013318539,0.99668586254120,-0.27817955613136,-1.96226561069489,-1.91202628612518
122,2526128383,4.47975349426270,-84.39986419677734,83.16109466552734,9.82389450073242,-0.05455150082707,1.02469253540039,0.15014164149761,-1.28952896595001,-1.66148936748505
123,2526145050,4.51912736892700,-84.41265106201172,83.11431884765625,9.83484935760498,0.00885456614196,0.99455112218857,-0.47852209210396,-0.68204063177109,-1.49287462234497
124,2526161717,4.52320766448975,-84.41854095458984,83.09075927734375,9.83158779144287,-0.04678538441658,0.96816855669022,-1.43387567996979,-0.27341553568840,-1.41120839118958
125,2526178384,4.50275468826294,-84.41671752929688,83.09284973144531,9.79766273498535,-0.04442945122719,0.99060428142548,-1.10248589515686,0.21652337908745,-1.27050518989563
126,2526195051,4.43870258331299,-84.41001892089844,83.14141082763672,9.75909614562988,-0.06609588861465,1.01155996322632,-1.20022392272949,0.51884281635284,-1.04795646667480
127,2526211718,4.36916732788086,-84.40332794189453,83.19335937500000,9.74961662292480,-0.06114212423563,0.98864662647247,-1.18661069869995,0.52408063411713,-1.01193213462830
128,2526228385,4.29049062728882,-84.39527893066406,83.25082397460938,9.74724197387695,-0.05481468141079,1.01942515373230,-1.22378766536713,0.60824400186539,-0.96673858165741
129,2526245052,4.19458675384521,-84.39147186279297,83.33125305175781,9.76099300384521,-0.06676079332829,1.04589641094208,-1.00839757919312,0.36616557836533,-0.82535648345947
130,2526261719,4.09198236465454,-84.38964843750000,83.41989135742188,9.76737117767334,-0.05421604588628,1.05255746841431,-0.92829382419586,0.25253480672836,-0.76888036727905
131,2526278386,4.00353002548218,-84.39331817626953,83.51039123535156,9.77592468261719,-0.07879818975925,1.05521690845490,-0.19579628109932,-0.09397298842669,-0.75609970092773
132,2526295053,3.90460968017578,-84.40500640869141,83.61118316650391,9.80546474456787,-0.09632701426744,1.14095771312714,-0.14183032512665,-0.55208170413971,-0.65874582529068
133,2526311720,3.81310415267944,-84.42008972167969,83.72605895996094,9.81002235412598,-0.13217048346996,1.08679080009460,1.38480818271637,-0.75219374895096,-0.53942900896072
134,2526328387,3.73840641975403,-84.43387603759766,83.82839965820312,9.80994319915771,-0.08824413269758,1.05515718460083,1.62851297855377,-0.68566471338272,-0.62281119823456
135,2526345054,3.66952610015869,-84.44254302978516,83.92884063720703,9.84580707550049,-0.11176261305809,0.98943275213242,1.76653349399567,-0.38186615705490,-0.66424608230591
136,2526361721,3.63478732109070,-84.45291900634766,83.97952270507812,9.77815723419189,-0.08313838392496,0.98160552978516,1.13366937637329,-0.50028645992279,-0.91988646984100
137,2526378388,3.63166546821594,-84.46841430664062,83.99336242675781,9.71442699432373,-0.13449534773827,0.99594599008560,1.06421411037445,-0.81358742713928,-1.09177982807159
138,2526395055,3.64489889144897,-84.48921203613281,84.00114440917969,9.77117919921875,-0.13982206583023,1.05742692947388,1.54887032508850,-1.14683425426483,-1.11854505538940
139,2526411722,3.67415094375610,-84.50902557373047,84.02353668212891,9.80868434906006,-0.04961563274264,1.03585755825043,2.97469758987427,-1.06331765651703,-1.08230948448181
140,2526428389,3.69177365303040,-84.53270721435547,84.04628753662109,9.83885383605957,-0.04284623637795,1.02675151824951,2.36468625068665,-1.30556905269623,-1.05681848526001
141,2526445056,3.66950416564941,-84.55310058593750,84.08599853515625,9.83711719512939,-0.04615424945951,1.02310621738434,1.01765012741089,-1.10541856288910,-0.96931272745132
142,2526461723,3.62347269058228,-84.57018280029297,84.15722656250000,9.82194423675537,-0.04559138789773,0.93521654605865,1.34911060333252,-0.89044475555420,-0.81748700141907
143,2526478390,3.58743643760681,-84.58538818359375,84.20388031005859,9.76917076110840,-0.04835046827793,0.93080365657806,0.68369263410568,-0.79417937994003,-0.94523030519485
144,2526495057,3.54801058769226,-84.59542846679688,84.26399230957031,9.74258613586426,-0.05283375456929,0.88681602478027,1.25064241886139,-0.47603121399879,-0.89268577098846
145,2526511724,3.47390079498291,-84.60649871826172,84.34354400634766,9.73700332641602,-0.02581288106740,0.87629610300064,0.05331283062696,-0.52884459495544,-0.80685758590698
146,2526528391,3.39808750152588,-84.61693572998047,84.41452026367188,9.78434181213379,-0.09004411846399,0.92262148857117,0.18842621147633,-0.49418419599533,-0.78490114212036
147,2526545058,3.31961894035339,-84.62655639648438,84.51156616210938,9.80081176757812,-0.11688431352377,0.98380416631699,0.96502888202667,-0.44936203956604,-0.70420843362808
148,2526561725,3.20719790458679,-84.63473510742188,84.65921020507812,9.78671741485596,-0.04683229699731,0.97178131341934,2.08096146583557,-0.34194234013557,-0.41524592041969
149,2526578392,3.11193656921387,-84.64935302734375,84.75735473632812,9.81738853454590,-0.07777049392462,0.98575806617737,0.55165910720825,-0.73146671056747,-0.63376700878143
150,2526595059,3.04705715179443,-84.67038726806641,84.83939361572266,9.79020977020264,-0.10471893846989,0.99820584058762,1.05615246295929,-1.13318908214569,-0.74137884378433
151,2526611726,3.01813030242920,-84.69976806640625,84.89312744140625,9.76488018035889,-0.17578224837780,0.99294382333755,1.51837217807770,-1.63725984096527,-0.87538450956345
152,2526628393,3.02674126625061,-84.73418426513672,84.90853118896484,9.72338008880615,-0.11217336356640,0.97784733772278,1.56818234920502,-1.96227836608887,-1.06428444385529
153,2526645060,3.03160405158997,-84.77056121826172,84.91349029541016,9.74530124664307,-0.12897622585297,0.96514254808426,0.59967660903931,-2.06864809989929,-1.12913596630096
154,2526661727,3.03866958618164,-84.80068969726562,84.93104553222656,9.79663467407227,-0.11928068846464,0.95861577987671,1.50109004974365,-1.68859398365021,-1.07837152481079
155,2526678394,3.03277873992920,-84.82676696777344,84.95788574218750,9.81114768981934,-0.03666344657540,0.90348017215729,1.74321973323822,-1.44646441936493,-0.99707680940628
156,2526695061,2.99910354614258,-84.84988403320312,85.00848388671875,9.80697727203369,-0.03775389492512,0.84318387508392,0.94829738140106,-1.25682151317596,-0.93119448423386
157,2526711728,2.95520782470703,-84.87424468994141,85.04708099365234,9.76537036895752,-0.09610538184643,0.90571892261505,0.23977971076965,-1.34324538707733,-0.93446660041809
158,2526728395,2.90742564201355,-84.89877319335938,85.10657501220703,9.75361061096191,-0.14214548468590,0.92859745025635,0.78166759014130,-1.34766352176666,-0.86965370178223
159,2526745062,2.87984108924866,-84.92163848876953,85.16004943847656,9.78765106201172,-0.12345569580793,0.88031125068665,1.43646907806396,-1.25401055812836,-0.92773044109344
160,2526761729,2.85323119163513,-84.94476318359375,85.19920349121094,9.79788017272949,-0.10365676134825,0.90285319089890,0.60114926099777,-1.26193785667419,-1.00748848915100
161,2526778396,2.83079934120178,-84.96499633789062,85.23741912841797,9.81468772888184,-0.11010082066059,0.91239857673645,0.49000295996666,-1.10676324367523,-1.05154216289520
162,2526795063,2.81745600700378,-84.98636627197266,85.26171112060547,9.79872035980225,-0.12623593211174,0.95543903112411,0.31892931461334,-1.17232525348663,-1.11205852031708
163,2526811730,2.79078698158264,-85.00974273681641,85.30344390869141,9.79234981536865,-0.11758249253035,0.92342185974121,0.71536260843277,-1.28814578056335,-1.00139892101288
164,2526828397,2.78597140312195,-85.03039550781250,85.32305908203125,9.77883720397949,-0.04693277180195,0.87794804573059,1.07797443866730,-1.11231458187103,-1.09206783771515
165,2526845064,2.73982071876526,-85.04773712158203,85.37003326416016,9.76566600799561,-0.07615707814693,0.86513233184814,0.12698136270046,-0.92952322959900,-0.96889007091522
166,2526861731,2.69550156593323,-85.06600189208984,85.41544342041016,9.78333473205566,-0.13195046782494,0.84694659709930,0.16748784482479,-0.97586947679520,-0.97423034906387
167,2526878398,2.66512942314148,-85.08331298828125,85.45256805419922,9.77621173858643,-0.08850823342800,0.84332120418549,0.37568065524101,-0.91866344213486,-1.03386938571930
168,2526895065,2.62340116500854,-85.10159301757812,85.49557495117188,9.76899909973145,-0.12827861309052,0.86366319656372,0.13882721960545,-0.97739332914352,-0.99322199821472
169,2526911732,2.59876036643982,-85.12017822265625,85.54176330566406,9.73558235168457,-0.15159328281879,0.93470269441605,0.77160817384720,-1.00594520568848,-1.02851009368896
170,2526928399,2.57883524894714,-85.13981628417969,85.58666992187500,9.77311611175537,-0.14898419380188,0.91023349761963,1.47016251087189,-1.06441259384155,-0.99078887701035
171,2526945066,2.56089925765991,-85.16138458251953,85.62771606445312,9.79228687286377,-0.07693107426167,0.89221119880676,1.33792412281036,-1.18011772632599,-1.00800049304962
172,2526961733,2.54123759269714,-85.18582916259766,85.67709350585938,9.80338191986084,-0.11924254894257,0.89116448163986,1.13832437992096,-1.33789217472076,-1.01353287696838
173,2526978400,2.52873063087463,-85.20617675781250,85.71189117431641,9.80078601837158,-0.09901420027018,0.91535168886185,1.30455064773560,-1.11096334457397,-1.04471623897552
174,2526995067,2.51307225227356,-85.22398376464844,85.74129486083984,9.82175254821777,-0.13689266145229,0.86112314462662,0.99476528167725,-0.95349687337875,-1.06082677841187
175,2527011734,2.49087452888489,-85.24115753173828,85.77834320068359,9.78856945037842,-0.09956254065037,0.86934852600098,0.62263828516006,-0.91736996173859,-1.06410527229309
176,2527028401,2.45789074897766,-85.25587463378906,85.82338714599609,9.74975585937500,-0.06342259049416,0.86334586143494,0.71374279260635,-0.76547396183014,-1.00850009918213
177,2527045068,2.40786409378052,-85.26923370361328,85.87789916992188,9.75792789459229,-0.14172172546387,0.82932657003403,0.30895960330963,-0.68752175569534,-0.96165448427200
178,2527061735,2.38682937622070,-85.28379058837891,85.92521667480469,9.75188827514648,-0.15400099754333,0.84043699502945,1.41765642166138,-0.75665032863617,-1.01337921619415
179,2527078402,2.37474846839905,-85.29797363281250,85.95516967773438,9.80445098876953,-0.12628528475761,0.86039912700653,0.89901214838028,-0.73621141910553,-1.10270357131958
180,2527095069,2.35843396186829,-85.31199645996094,85.99182891845703,9.80032825469971,-0.11989337950945,0.84819447994232,1.22214198112488,-0.72213733196259,-1.05480790138245
181,2527111736,2.31884956359863,-85.32274627685547,86.04102325439453,9.78022289276123,-0.10085172206163,0.86381137371063,0.57054215669632,-0.53356379270554,-1.00275003910065
182,2527128403,2.26145362854004,-85.33091735839844,86.11990356445312,9.81174373626709,-0.07783015817404,0.84686678647995,1.49336779117584,-0.36860519647598,-0.84596186876297
183,2527145070,2.17298483848572,-85.33687591552734,86.22592163085938,9.79359912872314,-0.13315634429455,0.80513238906860,1.08006823062897,-0.23800599575043,-0.73429036140442
184,2527161737,2.11026000976562,-85.34857177734375,86.29799652099609,9.75417804718018,-0.10691180080175,0.83696168661118,0.68143230676651,-0.58924573659897,-0.88060307502747
185,2527178404,2.05720400810242,-85.36198425292969,86.36387634277344,9.77359485626221,-0.15414060652256,0.85757899284363,0.76344406604767,-0.67918479442596,-0.91957271099091
186,2527195071,1.99671912193298,-85.37513732910156,86.42925262451172,9.80075454711914,-0.11424774676561,0.85059958696365,0.36320731043816,-0.67622649669647,-0.91826653480530
187,2527211738,1.94897425174713,-85.38407897949219,86.49736022949219,9.81341075897217,-0.14602826535702,0.84928518533707,1.19270014762878,-0.42091909050941,-0.92308169603348
188,2527228405,1.86166238784790,-85.39129638671875,86.58716583251953,9.79542446136475,-0.12099067866802,0.83409690856934,0.32736226916313,-0.31048992276192,-0.80504554510117
189,2527245072,1.77407872676849,-85.39725494384766,86.68220520019531,9.77449703216553,-0.03270394355059,0.79687827825546,0.59670543670654,-0.23573929071426,-0.78559267520905
190,2527261739,1.65554463863373,-85.40696716308594,86.80657196044922,9.74044990539551,-0.15013182163239,0.78881514072418,0.42454966902733,-0.46011933684349,-0.64401847124100
191,2527278406,1.56577241420746,-85.42004394531250,86.89942169189453,9.76179409027100,-0.16468295454979,0.83316034078598,0.10392992943525,-0.66660892963409,-0.80755555629730
192,2527295073,1.49093067646027,-85.43700408935547,86.98729705810547,9.76599884033203,-0.17242591083050,0.84411680698395,0.67332589626312,-0.90515279769897,-0.82850682735443
193,2527311740,1.44247412681580,-85.46015930175781,87.04290771484375,9.75978755950928,-0.14127439260483,0.86900717020035,0.52621930837631,-1.26618945598602,-0.96052747964859
194,2527328407,1.36717140674591,-85.48152923583984,87.13841247558594,9.78325462341309,-0.14852346479893,0.85258787870407,1.10461807250977,-1.16514730453491,-0.79293078184128
195,2527345074,1.29871928691864,-85.50133514404297,87.22221374511719,9.82297039031982,-0.13175523281097,0.90240544080734,1.00025928020477,-1.06596219539642,-0.83882874250412
196,2527361741,1.23297405242920,-85.51533508300781,87.31362915039062,9.80408191680908,-0.13520617783070,0.83131909370422,1.68521952629089,-0.72314894199371,-0.80687683820724
197,2527378408,1.17434775829315,-85.52696990966797,87.39952850341797,9.82951354980469,-0.12929190695286,0.79905790090561,1.45066487789154,-0.59295308589935,-0.86616384983063
198,2527395075,1.12105715274811,-85.53968048095703,87.44409179687500,9.79224967956543,-0.16937378048897,0.77415353059769,-0.36917507648468,-0.65598613023758,-1.03262090682983
199,2527411742,1.08286547660828,-85.55116271972656,87.48490142822266,9.79330825805664,-0.15869201719761,0.81467527151108,0.18507096171379,-0.57546615600586,-1.06320881843567
200,2527428409,1.06685829162598,-85.56165313720703,87.51552581787109,9.76217746734619,-0.14076820015907,0.85540157556534,1.13344526290894,-0.52297294139862,-1.09389281272888
201,2527445076,1.05590867996216,-85.57929229736328,87.53102111816406,9.75686740875244,-0.19421616196632,0.79901295900345,0.24426189064980,-0.95374017953873,-1.17975926399231
202,2527461743,1.06359672546387,-85.59576416015625,87.52618408203125,9.80215263366699,-0.15515109896660,0.82469975948334,-0.00107573333662,-0.88589203357697,-1.28933048248291
203,2527478410,1.13032746315002,-85.61188507080078,87.46006774902344,9.81524181365967,-0.09753257036209,0.81913304328918,0.10824567824602,-0.86372435092926,-1.55262911319733
204,2527495077,1.17909502983093,-85.63273620605469,87.40546417236328,9.75063133239746,-0.16068688035011,0.76245445013046,-0.53314751386642,-1.14242219924927,-1.51171886920929
205,2527511744,1.24123919010162,-85.65657043457031,87.32794189453125,9.72083187103271,-0.15669034421444,0.79272359609604,-0.75107967853546,-1.32336986064911,-1.58269858360291
206,2527528411,1.35698008537292,-85.68153381347656,87.22373962402344,9.76287555694580,-0.14903272688389,0.80813962221146,0.43625473976135,-1.40137326717377,-1.73230230808258
207,2527545078,1.43408405780792,-85.70531463623047,87.15553283691406,9.79593086242676,-0.13144862651825,0.83701974153519,0.33904805779457,-1.33022105693817,-1.56082487106323
208,2527561745,1.50313603878021,-85.72538757324219,87.08240509033203,9.81343841552734,-0.14108766615391,0.78944224119186,-0.12345960736275,-1.09361732006073,-1.56089544296265
209,2527578412,1.55514311790466,-85.73800659179688,87.02091979980469,9.79866313934326,-0.08465742319822,0.76586353778839,-0.26979136466980,-0.66992568969727,-1.50214636325836
210,2527595079,1.57525801658630,-85.74449157714844,86.99468994140625,9.78061199188232,-0.09914239495993,0.71890163421631,-0.19263312220573,-0.28577369451523,-1.36376106739044
211,2527611746,1.59422385692596,-85.75204467773438,86.97429656982422,9.74710750579834,-0.09581678360701,0.70805865526199,0.03293152898550,-0.35305824875832,-1.34017157554626
212,2527628413,1.62503147125244,-85.75887298583984,86.94943237304688,9.74985694885254,-0.22221289575100,0.70348834991455,0.15067310631275,-0.31170657277107,-1.38527584075928
213,2527645080,1.66690015792847,-85.77320861816406,86.90768432617188,9.74712276458740,-0.13179914653301,0.79408198595047,0.09149496257305,-0.75042641162872,-1.42626881599426
214,2527661747,1.72023415565491,-85.78992462158203,86.86621856689453,9.79209327697754,-0.10880266129971,0.79025703668594,0.94448101520538,-0.90646535158157,-1.40584909915924
215,2527678414,1.75675666332245,-85.80623626708984,86.83885192871094,9.80795288085938,-0.13717311620712,0.78184008598328,0.30932456254959,-0.86886608600616,-1.38108170032501
216,2527695081,1.77609837055206,-85.81451416015625,86.83416748046875,9.79499149322510,-0.07381237298250,0.76770061254501,0.90401941537857,-0.39076015353203,-1.27410376071930
217,2527711748,1.77786302566528,-85.82312774658203,86.83202362060547,9.77450942993164,-0.19386771321297,0.72068667411804,0.06955768913031,-0.40888112783432,-1.25643098354340
218,2527728415,1.77709758281708,-85.83040618896484,86.82973480224609,9.75037479400635,-0.11300925910473,0.71119529008865,0.04199202358723,-0.33058953285217,-1.24862551689148
219,2527745082,1.79295706748962,-85.84008789062500,86.81941986083984,9.74970817565918,-0.11707719415426,0.72211855649948,0.37878623604774,-0.47640261054039,-1.29378080368042
220,2527761749,1.77663099765778,-85.84786224365234,86.84266662597656,9.73596572875977,-0.11292587965727,0.70665156841278,0.54910433292389,-0.35788622498512,-1.14332532882690
221,2527778416,1.75867497920990,-85.85607910156250,86.85965728759766,9.76332378387451,-0.12195308506489,0.73494422435760,-0.08335652947426,-0.38372945785522,-1.18267929553986
222,2527795083,1.73707342147827,-85.86133575439453,86.88369750976562,9.73996067047119,-0.10551677644253,0.71080338954926,0.14446842670441,-0.20971037447453,-1.15552330017090
223,2527811750,1.72077250480652,-85.86948394775391,86.90800476074219,9.76771354675293,-0.18276529014111,0.76791310310364,0.68813002109528,-0.37457293272018,-1.13315725326538
224,2527828417,1.67429316043854,-85.87754821777344,86.96354675292969,9.75643062591553,-0.11293337494135,0.74410885572433,0.54866886138916,-0.37351000308990,-1.01349449157715
225,2527845084,1.63450002670288,-85.88415527343750,87.01808929443359,9.78467941284180,-0.16001170873642,0.70287740230560,0.67825633287430,-0.29262509942055,-1.03646910190582
226,2527861751,1.58757317066193,-85.88586425781250,87.08527374267578,9.79610252380371,-0.10537209361792,0.70595455169678,1.07082211971283,0.00968800392002,-0.98711347579956
227,2527878418,1.52589666843414,-85.88825225830078,87.14293670654297,9.76160526275635,-0.12633031606674,0.68907946348190,-0.35565799474716,-0.02397348731756,-1.02522528171539
228,2527895085,1.47598052024841,-85.89039611816406,87.19630432128906,9.73554515838623,-0.17116829752922,0.72399491071701,0.20314072072506,-0.02215498499572,-1.03579020500183
229,2527911752,1.44292652606964,-85.89076995849609,87.24179840087891,9.75345039367676,-0.16241611540318,0.74218696355820,0.71728372573853,0.09198801964521,-1.07366514205933
230,2527928419,1.38657617568970,-85.88924407958984,87.30311584472656,9.78421306610107,-0.12826970219612,0.73383724689484,0.50440365076065,0.20292942225933,-0.99082088470459
231,2527945086,1.30770218372345,-85.88753509521484,87.38109588623047,9.80721092224121,-0.14106470346451,0.73401063680649,-0.11017303168774,0.21443593502045,-0.93864142894745
232,2527961753,1.23496580123901,-85.88634490966797,87.46515655517578,9.75444602966309,-0.12962754070759,0.74182450771332,0.56679624319077,0.18535912036896,-0.91554516553879
233,2527978420,1.16345262527466,-85.88758087158203,87.54624938964844,9.76589202880859,-0.14811532199383,0.78192573785782,0.60332638025284,0.04381692036986,-0.91442453861237
234,2527995087,1.06642091274261,-85.88734436035156,87.65779113769531,9.79870510101318,-0.15909953415394,0.78668457269669,0.76289349794388,0.12883828580379,-0.79483902454376
235,2528011754,0.96927952766418,-85.88524627685547,87.76634979248047,9.81120872497559,-0.17855198681355,0.78651040792465,0.70418274402618,0.22248470783234,-0.79912257194519
236,2528028421,0.85614663362503,-85.88391876220703,87.88600158691406,9.77542972564697,-0.10391867160797,0.75463414192200,0.62740862369537,0.20025287568569,-0.73373335599899
237,2528045088,0.73355484008789,-85.88125610351562,88.02929687500000,9.76157951354980,-0.13097456097603,0.71673578023911,1.22287809848785,0.26804965734482,-0.65104269981384
238,2528061755,0.60123145580292,-85.87602233886719,88.17829895019531,9.78351306915283,-0.15111123025417,0.67698609828949,0.80929076671600,0.42594558000565,-0.64159810543060
239,2528078422,0.45942062139511,-85.86948394775391,88.34020233154297,9.77184772491455,-0.15741632878780,0.73122900724411,0.70033437013626,0.50525528192520,-0.60735392570496
240,2528095089,0.30472829937935,-85.86521148681641,88.49765014648438,9.76954460144043,-0.15143457055092,0.73714584112167,0.20954386889935,0.36748456954956,-0.58213812112808
241,2528111756,0.14381884038448,-85.85820770263672,88.66708374023438,9.76958560943604,-0.13400302827358,0.75647872686386,0.51599985361099,0.52066135406494,-0.53220623731613
242,2528128423,-0.00972296390682,-85.85079193115234,88.83599090576172,9.76312160491943,-0.16809946298599,0.74958336353302,0.79887926578522,0.54646617174149,-0.54100424051285
243,2528145090,-0.17496989667416,-85.84310150146484,88.99725341796875,9.76084327697754,-0.14897048473358,0.76582330465317,-0.02785381115973,0.56932544708252,-0.54711282253265
244,2528161757,-0.33416748046875,-85.83981323242188,89.15353393554688,9.75894165039062,-0.18578188121319,0.76145154237747,-0.59626364707947,0.29416823387146,-0.61588299274445
245,2528178424,-0.46783632040024,-85.83679962158203,89.29483795166016,9.80363559722900,-0.20822109282017,0.77850812673569,0.37222295999527,0.28421774506569,-0.65490394830704
246,2528195091,-0.58214896917343,-85.83364868164062,89.41918182373047,9.80455493927002,-0.18863020837307,0.77447777986526,0.56986325979233,0.28586971759796,-0.72466009855270
247,2528211758,-0.71037530899048,-85.82927703857422,89.54788970947266,9.76001358032227,-0.16174827516079,0.77319747209549,-0.05066191777587,0.36453914642334,-0.70753800868988
248,2528228425,-0.82661747932434,-85.82762908935547,89.66327667236328,9.73394298553467,-0.19986706972122,0.78631144762039,0.14952053129673,0.18573689460754,-0.74530392885208
249,2528245092,-0.91941094398499,-85.82702636718750,89.77826690673828,9.78623199462891,-0.19595672190189,0.75758433341980,0.77018028497696,0.14035119116306,-0.80610841512680
250,2528261759,-0.99990397691727,-85.82669830322266,89.86901092529297,9.78238773345947,-0.15222030878067,0.75264096260071,0.77752465009689,0.12545099854469,-0.85768604278564
251,2528278426,-1.08952486515045,-85.82463073730469,89.96208953857422,9.77114677429199,-0.17893746495247,0.72512865066528,0.19692322611809,0.20833370089531,-0.85890263319016
252,2528295093,-1.17301738262177,-85.81811523437500,90.04275512695312,9.79324340820312,-0.16539588570595,0.75461661815643,0.05617505311966,0.48559752106667,-0.88887584209442
253,2528311760,-1.22495281696320,-85.80852508544922,90.11025238037109,9.78855323791504,-0.17229411005974,0.73946940898895,0.95690959692001,0.67417103052139,-0.95811986923218
254,2528328427,-1.28111708164215,-85.79942321777344,90.16557312011719,9.75881958007812,-0.17314483225346,0.74410152435303,-0.08148680627346,0.64197593927383,-1.01535141468048
255,2528345094,-1.32419764995575,-85.78829956054688,90.21278381347656,9.77249526977539,-0.21030567586422,0.75444644689560,0.05835213512182,0.76516020298004,-1.05961024761200
256,2528361761,-1.35946774482727,-85.77812957763672,90.25402832031250,9.78436660766602,-0.19307981431484,0.77694439888000,-0.02579839155078,0.70583480596542,-1.10217213630676
257,2528378428,-1.37175202369690,-85.76599121093750,90.26804351806641,9.78480434417725,-0.18534640967846,0.77858626842499,-0.16613037884235,0.83368057012558,-1.21201205253601
258,2528395095,-1.37041068077087,-85.75361633300781,90.26240539550781,9.79629421234131,-0.19376222789288,0.76042515039444,-0.31493374705315,0.84140926599503,-1.28200519084930
259,2528411762,-1.37927424907684,-85.74214172363281,90.25584411621094,9.76359844207764,-0.14945405721664,0.75304973125458,-0.84673029184341,0.79169499874115,-1.27597343921661
260,2528428429,-1.36801183223724,-85.72795104980469,90.23049163818359,9.75558471679688,-0.20593129098415,0.75092536211014,-0.63797396421432,0.95030164718628,-1.34747135639191
261,2528445096,-1.33695733547211,-85.71788024902344,90.18600463867188,9.73637104034424,-0.18447767198086,0.79792129993439,-0.76188826560974,0.71584296226501,-1.45221459865570
262,2528461763,-1.28473794460297,-85.70828247070312,90.13288116455078,9.76543235778809,-0.20366708934307,0.78305274248123,-0.03263058140874,0.68439054489136,-1.49533331394196
263,2528478430,-1.21537327766418,-85.69989776611328,90.05071258544922,9.78246116638184,-0.18327689170837,0.78437632322311,-0.38591933250427,0.60864090919495,-1.60049903392792
264,2528495097,-1.13227546215057,-85.69252777099609,89.96577453613281,9.76315498352051,-0.19056123495102,0.79858952760696,-0.13661813735962,0.56264060735703,-1.64812600612640
265,2528511764,-1.05639278888702,-85.68280792236328,89.88922882080078,9.78301620483398,-0.20315587520599,0.77200096845627,0.00210664467886,0.69222801923752,-1.60348320007324
266,2528528431,-0.98900544643402,-85.67256927490234,89.81909179687500,9.80664539337158,-0.14319275319576,0.76143312454224,0.18615309894085,0.72145855426788,-1.54920351505280
267,2528545098,-0.91612792015076,-85.66252899169922,89.74602508544922,9.78388595581055,-0.13311909139156,0.74240237474442,0.05858265236020,0.70566195249557,-1.58842289447784
268,2528561765,-0.82849472761154,-85.65557861328125,89.62915802001953,9.73571968078613,-0.18038186430931,0.77541643381119,-1.62640655040741,0.52784574031830,-1.78775370121002
269,2528578432,-0.72638952732086,-85.65151977539062,89.52373504638672,9.71367645263672,-0.18007537722588,0.83376663923264,-0.64041346311569,0.35960227251053,-1.78522431850433
270,2528595099,-0.60817843675613,-85.65179443359375,89.39827728271484,9.79511737823486,-0.23907846212387,0.85118371248245,-0.32260474562645,0.09468373656273,-1.83599495887756
271,2528611766,-0.52497315406799,-85.64333343505859,89.32581329345703,9.83370876312256,-0.12902602553368,0.80620872974396,0.59507906436920,0.61071562767029,-1.60115242004395
272,2528628433,-0.51813030242920,-85.62950897216797,89.29239654541016,9.81934738159180,-0.06155880913138,0.79580044746399,-1.38178586959839,0.93321150541306,-1.39870321750641
273,2528645100,-0.50124740600586,-85.61028289794922,89.27875518798828,9.77386188507080,-0.17944295704365,0.73921447992325,0.08014853298664,1.25349187850952,-1.33157861232758
274,2528661767,-0.47727543115616,-85.58927154541016,89.25492858886719,9.76366424560547,-0.18513154983521,0.77229207754135,0.07364291697741,1.36731469631195,-1.36423468589783
275,2528678434,-0.46665635704994,-85.57048034667969,89.23022460937500,9.76458454132080,-0.14650391042233,0.77961575984955,-0.61688184738159,1.23270714282990,-1.35711443424225
276,2528695101,-0.43325176835060,-85.55763244628906,89.17761230468750,9.76591682434082,-0.18110145628452,0.84074026346207,-1.22324979305267,0.87479543685913,-1.51550340652466
277,2528711768,-0.37687593698502,-85.54552459716797,89.11937713623047,9.78538513183594,-0.19729991257191,0.85583603382111,0.01355552207679,0.82819312810898,-1.52687561511993
278,2528728435,-0.33356201648712,-85.53739929199219,89.08161163330078,9.78319072723389,-0.18535229563713,0.89248669147491,0.28164362907410,0.59279948472977,-1.44788575172424
279,2528745102,-0.29740077257156,-85.52333068847656,89.05091857910156,9.80489921569824,-0.16944317519665,0.82237243652344,0.97002327442169,0.95174866914749,-1.35671746730804
280,2528761769,-0.27179837226868,-85.50402832031250,89.01433563232422,9.77959060668945,-0.16646015644073,0.79666048288345,-0.17639465630054,1.25907540321350,-1.39680135250092
281,2528778436,-0.28547510504723,-85.47316741943359,89.02478790283203,9.73980808258057,-0.07742945849895,0.79294717311859,-0.51313763856888,1.95114350318909,-1.23847651481628
282,2528795103,-0.34111559391022,-85.43708801269531,89.03890991210938,9.77529430389404,-0.09744849801064,0.81501173973083,-2.41097450256348,2.25606250762939,-1.18375492095947
283,2528811770,-0.42558008432388,-85.40386199951172,89.07468414306641,9.76377010345459,-0.21191129088402,0.77809172868729,-2.96040582656860,2.09520244598389,-1.08637559413910
284,2528828437,-0.45539513230324,-85.37983703613281,89.09348297119141,9.82309913635254,-0.21736678481102,0.82620894908905,-0.84446358680725,1.54454183578491,-1.18401110172272
285,2528845104,-0.48747766017914,-85.35843658447266,89.10248565673828,9.77170085906982,-0.09070364385843,0.85680234432220,-1.42430949211121,1.38117134571075,-1.21816563606262
286,2528861771,-0.58297204971313,-85.31550598144531,89.16796875000000,9.80785751342773,-0.11578252911568,0.89673030376434,-1.78721570968628,2.66674971580505,-0.92277425527573
287,2528878438,-1.03864741325378,-85.18370819091797,89.49060821533203,10.10215473175049,-0.00471625011414,1.29928076267242,-8.22401046752930,7.96414995193481,0.43520477414131
288,2528895105,-1.63967788219452,-84.89826965332031,90.02083587646484,9.88689231872559,-0.36073711514473,0.90311855077744,-4.64879989624023,17.10680007934570,1.86216700077057
289,2528911772,-2.16618204116821,-84.51945495605469,90.61342620849609,9.66297626495361,-0.23766224086285,0.65368586778641,3.80990266799927,22.65263748168945,2.76920533180237
290,2528928439,-2.49494957923889,-84.25942993164062,91.00929260253906,9.55343055725098,-0.08614687621593,0.72991669178009,4.26319217681885,15.55596733093262,1.72498452663422
291,2528945106,-2.64914321899414,-84.09136962890625,91.17224121093750,9.80386829376221,0.22400996088982,1.09097635746002,-0.02718788757920,10.10963726043701,0.12170518189669
292,2528961773,-2.90047693252563,-83.94450378417969,91.29096221923828,9.87965202331543,-0.11672466993332,1.04433465003967,-7.96305656433105,8.85795783996582,-0.09731550514698
293,2528978440,-3.14207124710083,-83.79379272460938,91.42971801757812,9.77632999420166,-0.28469511866570,1.05863463878632,-6.56164264678955,9.06900501251221,0.05700748041272
294,2528995107,-3.29407787322998,-83.66835021972656,91.54621124267578,9.65732479095459,-0.25505942106247,1.00122380256653,-2.22055721282959,7.56146621704102,-0.09014391154051
295,2529011774,-3.40813946723938,-83.59590148925781,91.58888244628906,9.73194980621338,-0.19033406674862,1.09589183330536,-4.12970209121704,4.43087577819824,-0.71140557527542
296,2529028441,-3.49440908432007,-83.57178497314453,91.54022979736328,9.71733665466309,-0.26801240444183,1.12557911872864,-8.28605651855469,1.56375169754028,-1.53412437438965
297,2529045108,-3.47633481025696,-83.57700347900391,91.38823699951172,9.79313087463379,-0.27510872483253,1.17521142959595,-7.95051717758179,-0.14850248396397,-2.30710291862488
298,2529061775,-3.39244151115417,-83.60095214843750,91.16479492187500,9.86876010894775,-0.33469605445862,1.30601942539215,-8.40991973876953,-1.22683596611023,-2.86736822128296
299,2529078442,-3.24705910682678,-83.61303710937500,90.93819427490234,9.90886878967285,-0.26976361870766,1.26497793197632,-5.02604389190674,-0.52603358030319,-2.85513710975647
300,2529095109,-3.12284445762634,-83.61244964599609,90.70810699462891,9.83121109008789,-0.14070186018944,1.21575438976288,-6.23432397842407,0.22989325225353,-2.80155611038208
301,2529111776,-3.03456258773804,-83.60643768310547,90.50824737548828,9.67561721801758,-0.08197417110205,1.05229222774506,-6.33482837677002,0.52968996763229,-2.55334353446960
302,2529128443,-2.88625645637512,-83.62348175048828,90.27105712890625,9.69619560241699,-0.39514744281769,1.09577345848083,-5.23893690109253,-0.82983875274658,-2.90622210502625
303,2529145110,-2.63983774185181,-83.65859985351562,89.94779205322266,9.75207614898682,-0.35434538125992,1.11676549911499,-4.34929275512695,-1.88806581497192,-3.50579023361206
304,2529161777,-2.33425378799438,-83.70150756835938,89.56246185302734,9.79163646697998,-0.32915920019150,1.22229766845703,-4.60097646713257,-2.33977150917053,-3.92501854896545
305,2529178444,-1.94241678714752,-83.73465728759766,89.15895080566406,9.81774806976318,-0.05384597927332,1.15271282196045,-1.07937681674957,-1.78090882301331,-4.05850505828857
306,2529195111,-1.55450737476349,-83.77326202392578,88.64868164062500,9.85685348510742,0.04496993497014,1.09170234203339,-7.27011489868164,-2.09728360176086,-4.69027519226074
307,2529211778,-1.19300544261932,-83.80564880371094,88.13048553466797,9.88980007171631,-0.09401644766331,1.13620233535767,-9.13194370269775,-1.75088489055634,-4.67745733261108
308,2529228445,-0.80335050821304,-83.81277465820312,87.65158081054688,9.72250556945801,-0.14939090609550,0.99864536523819,-5.23268842697144,-0.26318332552910,-4.38763570785522
309,2529245112,-0.39194965362549,-83.82886505126953,87.12492370605469,9.74166488647461,-0.09606553614140,1.15294647216797,-6.92699432373047,-0.81836438179016,-4.71123933792114
310,2529261779,0.03814107179642,-83.85133361816406,86.57644653320312,9.76900959014893,-0.11142536252737,1.21454071998596,-6.66061019897461,-1.23056256771088,-4.78494024276733
311,2529278446,0.53486704826355,-83.88349151611328,85.93859100341797,9.84366321563721,-0.21346788108349,1.18282330036163,-8.19085311889648,-1.82941329479218,-5.35283708572388
312,2529295113,1.09962391853333,-83.92110443115234,85.25279235839844,9.79440021514893,-0.15311832726002,1.10842072963715,-7.18609333038330,-2.20305156707764,-5.63624286651611
313,2529311780,1.74083411693573,-83.95584106445312,84.50485992431641,9.74518108367920,-0.21945406496525,1.08074009418488,-6.13298797607422,-2.09757804870605,-5.96475028991699
314,2529328447,2.45515561103821,-84.00256347656250,83.68560791015625,9.76988315582275,-0.17963735759258,1.16330838203430,-6.01105213165283,-2.87396955490112,-6.33064699172974
315,2529345114,3.25868010520935,-84.05465698242188,82.79942321777344,9.74749660491943,-0.00306719774380,1.08520209789276,-4.73645448684692,-3.28527760505676,-6.66030168533325
316,2529361781,4.12735080718994,-84.11557006835938,81.78546142578125,9.74592208862305,0.04855366796255,1.01617717742920,-8.39889430999756,-3.93522667884827,-7.30816411972046
317,2529378448,5.06185245513916,-84.17643737792969,80.70207214355469,9.80039310455322,-0.01361296698451,0.98969495296478,-8.55577373504639,-4.05769443511963,-7.60023927688599
318,2529395115,6.03706741333008,-84.23292541503906,79.56094360351562,9.82084655761719,-0.03006217442453,1.01702368259430,-9.58970260620117,-3.92520642280579,-7.84085321426392
319,2529411782,7.07726144790649,-84.29325866699219,78.37108612060547,9.76964569091797,-0.07880585640669,1.07483720779419,-8.53562259674072,-4.29723119735718,-7.95680093765259
320,2529428449,8.25177478790283,-84.36428070068359,77.07249450683594,9.73176288604736,-0.06446351855993,1.07868039608002,-7.03941631317139,-5.13536739349365,-8.35095405578613
321,2529445116,9.61786746978760,-84.44981384277344,75.59549713134766,9.74940776824951,-0.03906250372529,1.18964838981628,-6.07774925231934,-6.28186988830566,-9.01664161682129
322,2529461783,11.18847465515137,-84.55205535888672,73.93135833740234,9.69888973236084,-0.09268582612276,1.23849284648895,-5.04022407531738,-7.63874959945679,-9.59200096130371
323,2529478450,13.02708053588867,-84.67634582519531,72.02223205566406,9.70712757110596,-0.06063937023282,1.28097903728485,-3.42778825759888,-9.41952514648438,-10.22453403472900
324,2529495117,15.12074851989746,-84.82540130615234,69.88816070556641,9.75288963317871,-0.01704874262214,1.33523595333099,-1.89025747776031,-11.40234851837158,-10.49865436553955
325,2529511784,17.50431251525879,-84.99610137939453,67.46822357177734,9.64032936096191,0.05008604377508,1.20602023601532,-0.65441787242889,-13.29901027679443,-10.71790027618408
326,2529528451,20.37093544006348,-85.19796752929688,64.59906005859375,9.67205619812012,0.15898840129375,1.21897256374359,0.34091192483902,-16.09268760681152,-11.33477592468262
327,2529545118,23.76761627197266,-85.42607116699219,61.16498184204102,9.77390193939209,0.30622988939285,1.29541003704071,-1.74038589000702,-18.88714408874512,-11.82633781433105
328,2529561785,27.79456138610840,-85.66722869873047,57.08604049682617,9.77080059051514,0.14932270348072,1.11656320095062,-2.39708471298218,-21.17822456359863,-12.17772483825684
329,2529578452,32.88227081298828,-85.92432403564453,51.99123382568359,9.87176895141602,0.20804564654827,1.10982882976532,0.59251928329468,-24.49555969238281,-12.93504810333252
330,2529595119,39.24909591674805,-86.18659210205078,45.60341644287109,9.81902217864990,0.27847850322723,0.93147486448288,-0.23316600918770,-28.12537384033203,-13.47200393676758
331,2529611786,47.13964462280273,-86.42817687988281,37.65695190429688,9.92958927154541,0.68945366144180,1.04298079013824,-2.22919797897339,-31.50704574584961,-13.91759014129639
332,2529628453,55.95616912841797,-86.60685729980469,28.66181945800781,10.19472789764404,0.37251517176628,0.90539556741714,-9.65923404693604,-32.31849288940430,-13.44920063018799
333,2529645120,66.36766815185547,-86.72512054443359,18.09888839721680,10.21144008636475,0.76018774509430,1.03177905082703,-8.02888107299805,-35.76074218750000,-13.00023078918457
334,2529661787,78.58692169189453,-86.74996185302734,5.67140007019043,10.26999473571777,0.83157992362976,0.95914453268051,-11.49239540100098,-41.05030822753906,-12.68170356750488
335,2529678454,91.67355346679688,-86.61354827880859,-7.73231124877930,10.66897201538086,1.32936167716980,1.12442398071289,-18.00129508972168,-45.83979034423828,-13.26311969757080
336,2529695121,104.03511810302734,-86.29197692871094,-20.44649314880371,10.77387809753418,1.31718826293945,1.12970125675201,-20.08387756347656,-49.47624588012695,-13.66051292419434
337,2529711788,114.23332214355469,-85.83966827392578,-30.92415237426758,10.88742828369141,0.96963739395142,0.82015508413315,-15.59962272644043,-49.62416458129883,-12.45102214813232
338,2529728455,122.56509399414062,-85.26940155029297,-39.50354003906250,10.66902732849121,1.32066404819489,0.68263947963715,-13.53970623016357,-51.27215194702148,-12.10427761077881
339,2529745122,129.00979614257812,-84.58354949951172,-46.35454940795898,10.69224166870117,0.83900600671768,0.45161777734756,-22.91171264648438,-53.41273880004883,-13.16164493560791
340,2529761789,133.92945861816406,-83.82765960693359,-51.58986663818359,10.71759223937988,0.57962810993195,0.15931525826454,-17.40726280212402,-53.64583206176758,-14.08355426788330
341,2529778456,137.78398132324219,-83.02430725097656,-55.64885330200195,10.47706413269043,0.27756428718567,-0.00969957560301,-10.71106529235840,-53.85382080078125,-14.70346641540527
342,2529795123,140.76399230957031,-82.17998504638672,-58.66434478759766,10.18390941619873,0.50123798847198,-0.09137409925461,-0.63996601104736,-53.44248962402344,-16.57515907287598
343,2529811790,143.02861022949219,-81.34370422363281,-60.89727020263672,9.87597465515137,0.28741058707237,-0.76062536239624,3.28056597709656,-51.19127273559570,-17.06102371215820
344,2529828457,144.95904541015625,-80.53415679931641,-62.68543624877930,9.38267612457275,-0.16461256146431,-1.48404467105865,9.88118743896484,-49.09455108642578,-16.10621452331543
345,2529845124,146.78935241699219,-79.80632781982422,-64.41407012939453,9.02746486663818,-1.47801923751831,-2.65207815170288,7.62719106674194,-45.96243667602539,-11.07241535186768
346,2529861791,148.80674743652344,-79.26274871826172,-66.09799194335938,8.85231494903564,-1.61017680168152,-1.81493628025055,21.69048118591309,-37.26287078857422,-3.09381675720215
347,2529878458,150.14004516601562,-78.97991943359375,-67.19959259033203,8.16979122161865,0.82638800144196,0.42107862234116,15.09288597106934,-20.84803962707520,0.86971306800842
348,2529895125,150.11396789550781,-79.01620483398438,-67.42770385742188,7.94884061813354,1.10757243633270,2.06873106956482,-14.99124050140381,0.67461979389191,2.07906770706177
349,2529911792,148.65661621093750,-79.39219665527344,-66.55638122558594,7.80723905563354,1.62873435020447,2.44180488586426,-36.07041549682617,24.47525596618652,1.77568268775940
350,2529928459,145.86842346191406,-80.05159759521484,-64.56981658935547,8.44346618652344,0.69004684686661,1.99074518680573,-49.97886276245117,44.85221481323242,2.21019959449768
351,2529945126,141.70590209960938,-80.91165924072266,-61.12593078613281,8.69356346130371,1.30878257751465,1.97625863552094,-45.91642379760742,61.86200714111328,1.58770668506622
352,2529961793,135.70719909667969,-81.84134674072266,-55.89219665527344,9.17866992950439,1.11005127429962,1.78413963317871,-49.36491394042969,72.99482727050781,0.05614456906915
353,2529978460,127.53688812255859,-82.76307678222656,-48.30141448974609,9.43552780151367,0.96251714229584,1.47372734546661,-38.73260879516602,82.31418609619141,-0.62875884771347
354,2529995127,116.51448822021484,-83.59671783447266,-37.62949371337891,9.60699558258057,1.22240054607391,1.14112532138824,-25.33260345458984,90.92494964599609,0.52629983425140
355,2530011794,101.88577270507812,-84.21615600585938,-23.29928207397461,9.94199466705322,1.48589956760406,1.01480102539062,-22.43724822998047,98.34240722656250,3.45096755027771
356,2530028461,83.83719635009766,-84.46208190917969,-5.66908979415894,10.20742797851562,1.45845627784729,0.65919560194016,-29.89126777648926,104.88385009765625,8.02961826324463
357,2530045128,65.08456420898438,-84.20207977294922,12.59100914001465,10.33387851715088,0.94930809736252,0.19346974790096,-34.66449737548828,108.27959442138672,12.85211753845215
358,2530061795,48.82498550415039,-83.53519439697266,28.34731674194336,10.69910526275635,-0.95897746086121,-1.10251116752625,-35.53250885009766,106.21411132812500,20.56788063049316
359,2530078462,37.99422836303711,-82.44496154785156,39.86373519897461,10.29644203186035,1.67971253395081,-0.55217134952545,35.93636322021484,105.23683166503906,15.32010459899902
360,2530095129,29.51027679443359,-81.33315277099609,48.11558151245117,10.28816604614258,-0.43980202078819,-0.88442474603653,-18.93647003173828,94.15781402587891,19.89980506896973
361,2530111796,23.77900886535645,-80.13430786132812,54.54101562500000,10.21806240081787,-0.25683358311653,-0.70813119411469,36.58070755004883,92.06499481201172,22.05080413818359
362,2530128463,19.80580711364746,-78.98000335693359,59.14469146728516,10.13376045227051,0.42875623703003,-0.29548013210297,33.22453689575195,82.88722991943359,19.55733871459961
363,2530145130,17.33814430236816,-77.88358306884766,62.43127822875977,10.21352481842041,0.45955190062523,-0.10220683366060,45.11442565917969,74.98155975341797,15.29135417938232
364,2530161797,15.65835571289062,-76.89556884765625,64.88583374023438,9.94947910308838,0.92319744825363,0.18265536427498,42.93144989013672,66.02208709716797,12.74233913421631
365,2530178464,14.41000175476074,-76.05874633789062,66.76019287109375,9.61713409423828,1.00303971767426,0.33097600936890,34.44282531738281,55.36970520019531,11.11578845977783
366,2530195131,13.37792205810547,-75.38803863525391,68.25402069091797,9.57257938385010,1.08305370807648,0.48212918639183,24.94802284240723,44.44572067260742,10.53202247619629
367,2530211798,12.41873264312744,-74.88703155517578,69.47259521484375,9.53894329071045,1.26927304267883,0.61638993024826,13.13094520568848,33.56709671020508,10.30859088897705
368,2530228465,11.42569351196289,-74.56539154052734,70.44836425781250,9.41190719604492,1.35869109630585,0.78794819116592,-3.08405709266663,22.15681457519531,9.84179592132568
369,2530245132,10.48778533935547,-74.39562988281250,71.20013427734375,9.43281173706055,1.08199584484100,0.96972268819809,-12.79039859771729,12.38542270660400,8.65147018432617
370,2530261799,9.73115730285645,-74.33093261718750,71.74329376220703,9.45871353149414,0.95112127065659,1.28268778324127,-13.98691558837891,5.46312284469604,6.70400810241699
371,2530278466,9.23605060577393,-74.32563018798828,72.08850097656250,9.62385368347168,0.59779000282288,1.56733310222626,-9.73293304443359,1.33755338191986,4.20371818542480
372,2530295133,9.11927127838135,-74.33669281005859,72.31036376953125,9.77016258239746,0.41989326477051,1.68470847606659,5.84163093566895,0.02070786990225,2.39308476448059
373,2530311800,9.24920558929443,-74.36166381835938,72.46851348876953,9.59552288055420,0.51044052839279,1.75187289714813,16.96673774719238,-0.96463274955750,1.50387668609619
374,2530328467,9.45419502258301,-74.41651916503906,72.65132141113281,9.54789257049561,0.63982778787613,1.76989245414734,22.89448547363281,-2.66393041610718,2.18445324897766
375,2530345134,9.59014320373535,-74.50672149658203,72.89842224121094,9.69948673248291,0.81966155767441,1.87303543090820,22.47471809387207,-4.57277202606201,3.55140590667725
376,2530361801,9.57821464538574,-74.63851928710938,73.18572235107422,9.86350250244141,0.77799552679062,2.07055139541626,15.93381023406982,-6.92460489273071,4.57888317108154
377,2530378468,9.53020668029785,-74.78968811035156,73.49031066894531,9.77583694458008,0.76403468847275,2.21956896781921,14.77876949310303,-8.03626155853271,4.99729251861572
378,2530395135,9.44901180267334,-74.95910644531250,73.75949096679688,9.80221939086914,0.87543070316315,2.33129286766052,10.75367164611816,-9.22000122070312,4.57451486587524
379,2530411802,9.30359554290771,-75.14636993408203,73.98209381103516,9.75351142883301,1.01826179027557,2.37104058265686,4.21315717697144,-10.41252803802490,3.97114253044128
380,2530428469,9.08457279205322,-75.35954284667969,74.15164947509766,9.94446182250977,0.86236423254013,2.37394881248474,-3.27069258689880,-12.09862709045410,3.34235024452209
381,2530445136,8.85720729827881,-75.60089111328125,74.26203155517578,10.05420112609863,0.75213384628296,2.56595516204834,-7.19921064376831,-13.93460083007812,2.64083170890808
382,2530461803,8.69856548309326,-75.85063171386719,74.33305358886719,9.96666431427002,0.90788179636002,2.77819776535034,-5.35566520690918,-14.53480339050293,2.06711292266846
383,2530478470,8.49482631683350,-76.10737609863281,74.39475250244141,9.95562934875488,1.24859285354614,2.99645352363586,-8.59567070007324,-14.98112869262695,1.93342161178589
384,2530495137,8.30504798889160,-76.37083435058594,74.40376281738281,9.95679950714111,1.34179556369781,3.19689750671387,-10.82811546325684,-15.50478076934814,1.18180334568024
385,2530511804,8.35163211822510,-76.64551544189453,74.25526428222656,10.04718303680420,0.99597382545471,3.33286714553833,-5.83139038085938,-16.49094772338867,-0.92435055971146
386,2530528471,8.78323841094971,-76.92682647705078,73.97223663330078,10.12711143493652,0.81707930564880,3.50601339340210,9.39852142333984,-17.16061973571777,-2.57920193672180
387,2530545138,9.57500934600830,-77.21278381347656,73.55160522460938,9.91388130187988,1.07029497623444,3.69401192665100,22.95104980468750,-17.72404098510742,-4.09276771545410
388,2530561805,10.64424419403076,-77.51966094970703,72.97811889648438,9.55467033386230,1.11823964118958,3.72842288017273,30.62019920349121,-19.33747291564941,-5.43176174163818
389,2530578472,11.97925662994385,-77.86430358886719,72.22625732421875,8.99571609497070,0.97790914773941,3.70485877990723,36.07143402099609,-22.05224037170410,-6.62855815887451
390,2530595139,13.65925884246826,-78.24777984619141,71.25096130371094,7.84580755233765,0.79125726222992,3.80381441116333,43.60121154785156,-25.01425933837891,-7.95893716812134
391,2530611806,15.67834091186523,-78.65786743164062,70.12913513183594,5.88555860519409,0.83449435234070,3.86009478569031,55.25009918212891,-27.10592842102051,-8.06074619293213
392,2530628473,18.04020690917969,-79.07620239257812,68.86355590820312,3.17842841148376,0.98523235321045,3.60123729705811,67.26676940917969,-28.16701316833496,-8.01058959960938
393,2530645140,20.82370758056641,-79.52304077148438,67.34040832519531,1.05409908294678,1.23218989372253,3.30997467041016,77.27436065673828,-30.82374572753906,-8.34133911132812
394,2530661807,23.95403099060059,-79.99606323242188,65.62049865722656,-0.03812568634748,1.99183797836304,3.05008196830750,86.33995819091797,-33.13088989257812,-7.41114473342896
395,2530678474,27.20397758483887,-80.52970886230469,63.42371749877930,0.42595693469048,2.95543789863586,3.05841755867004,65.16705322265625,-38.40362167358398,-7.54735803604126
396,2530695141,30.26389312744141,-81.11978149414062,60.70313644409180,2.51910686492920,2.04494690895081,2.35188627243042,22.53406524658203,-43.45384979248047,-7.07185649871826
397,2530711808,32.79438018798828,-81.77223205566406,57.83909988403320,3.77212500572205,1.86722695827484,1.51165378093719,-18.00461769104004,-46.62421798706055,-2.59187436103821
398,2530728475,33.86609268188477,-82.51775360107422,55.16804122924805,3.27577400207520,0.90404838323593,0.86414587497711,-94.36225891113281,-49.29714202880859,4.99966382980347
399,2530745142,33.77008056640625,-83.32127380371094,53.24498367309570,2.04677581787109,-1.30687320232391,-0.39232853055000,-120.13927459716797,-47.83177947998047,13.72674846649170
400,2530761809,33.79851150512695,-84.14937591552734,51.48755264282227,1.49326491355896,-1.90882575511932,-0.20455788075924,-102.96083068847656,-47.54339981079102,16.76630210876465
401,2530778476,35.21329498291016,-84.89163208007812,49.04078674316406,1.15024054050446,-1.37139236927032,1.00473916530609,-61.06879806518555,-44.47481918334961,12.34618473052979
402,2530795143,39.52950286865234,-85.62548065185547,43.78750610351562,1.16352796554565,0.10208688676357,2.27507638931274,-54.92589950561523,-50.62239456176758,4.60622024536133
403,2530811810,49.92573165893555,-86.33216094970703,32.81240844726562,1.07158899307251,0.65854722261429,3.25217962265015,-32.83003997802734,-62.36804962158203,-4.59882831573486
404,2530828477,69.14620208740234,-86.71187591552734,13.04663181304932,1.76194226741791,-0.15050505101681,5.23108482360840,-30.55115699768066,-73.37183380126953,-18.53682708740234
405,2530845144,98.18000793457031,-87.27120971679688,-13.86741352081299,-2.80983805656433,-16.56050682067871,-48.74695205688477,128.98393249511719,-87.73101806640625,21.61714935302734
406,2530861811,160.20738220214844,-79.21602630615234,-77.11492919921875,45.49780273437500,-7.32454204559326,-20.46028137207031,-60.65975189208984,-589.36645507812500,-50.28165435791016
407,2530878478,171.49012756347656,-75.67873382568359,-80.91717529296875,8.52856826782227,-3.11734986305237,17.57481384277344,454.01464843750000,-217.71800231933594,-5.02151632308960
408,2530895145,170.55052185058594,-71.22141265869141,-86.65852355957031,61.46341323852539,-5.79562568664551,-6.04143810272217,-386.55606079101562,-279.09820556640625,53.99506378173828
409,2530911812,173.10391235351562,-67.66139984130859,-83.92516326904297,46.26105117797852,38.70816802978516,15.07897663116455,306.73007202148438,-203.10945129394531,-88.69179534912109
410,2530928479,171.30096435546875,-64.11596679687500,-83.75939941406250,-9.04482841491699,-29.66365623474121,-26.66949081420898,-99.01982879638672,-210.11585998535156,-34.13286209106445
411,2530945146,171.79904174804688,-61.52525329589844,-84.32862091064453,-1.49654793739319,15.82704925537109,-2.56585240364075,-0.50483137369156,-155.92611694335938,-8.67898273468018
412,2530961813,172.35415649414062,-59.42301559448242,-84.20254516601562,23.49312019348145,-3.29191493988037,-14.46061325073242,39.88774871826172,-124.30184936523438,-22.33301734924316
413,2530978480,172.07231140136719,-57.97859954833984,-84.64035034179688,9.41940784454346,4.54259586334229,-6.06307601928711,-39.35528945922852,-87.60361480712891,0.52393114566803
414,2530995147,173.32406616210938,-57.19103622436523,-85.51625061035156,6.97562122344971,0.69818055629730,-11.02745056152344,30.73189735412598,-50.34292221069336,20.68800544738770
415,2531011814,173.81808471679688,-56.83172988891602,-86.45334625244141,11.90883636474609,7.28383016586304,-10.28446102142334,-17.52332305908203,-24.73688697814941,26.75736236572266
416,2531028481,175.12580871582031,-56.96324157714844,-87.30059814453125,12.12597179412842,5.26728057861328,-11.02513313293457,35.87375640869141,5.29166650772095,27.15196800231934
417,2531045148,176.10269165039062,-57.65416717529297,-88.38931274414062,11.71314048767090,3.69109988212585,-10.74210262298584,3.63216781616211,38.74280548095703,37.11198806762695
418,2531061815,177.45675659179688,-59.13909149169922,-89.84638214111328,12.14307308197021,4.15573072433472,-10.42532444000244,6.77577686309814,86.48543548583984,49.51334762573242
419,2531078482,178.47341918945312,-61.57421875000000,-91.70920562744141,14.58845043182373,3.72863197326660,-11.63322353363037,-36.16206359863281,144.13981628417969,59.21110916137695
420,2531095149,179.15374755859375,-65.36509704589844,-93.48683929443359,21.20088577270508,3.86998319625854,-11.52717494964600,-54.64896392822266,226.48873901367188,51.13105010986328
421,2531111816,178.53678894042969,-70.75909423828125,-93.94035339355469,31.22088813781738,6.40043020248413,-8.80423450469971,-62.26777648925781,323.43527221679688,15.48113059997559
422,2531128483,172.10929870605469,-77.69889068603516,-89.55609130859375,40.08327102661133,9.56363201141357,-4.12693405151367,-131.92811584472656,420.53305053710938,-38.58205413818359
423,2531145150,124.80805969238281,-85.50490570068359,-46.24591445922852,37.02447509765625,-1.99929010868073,0.94990718364716,-258.36706542968750,565.16345214843750,-90.39208984375000
424,2531161817,41.18481063842773,-81.78546142578125,37.89313888549805,50.22709274291992,-7.15892696380615,-18.27504348754883,12.21005439758301,528.01763916015625,-103.13209533691406
425,2531178484,22.94028091430664,-79.47555541992188,49.08483886718750,-13.11909866333008,-7.84153795242310,-33.13932037353516,-432.05102539062500,175.03387451171875,18.20037460327148
426,2531195151,17.94456672668457,-80.83895111083984,46.42177581787109,-16.99397850036621,4.79606962203979,-5.33250331878662,-457.10699462890625,-85.99335479736328,1.70445442199707
427,2531211818,20.77472686767578,-84.16484069824219,35.80862426757812,6.08581686019897,-24.03034019470215,-3.22206854820251,-461.41732788085938,-214.72177124023438,-13.84328556060791
428,2531228485,47.39888381958008,-85.22734832763672,14.34187412261963,4.97452640533447,-6.43249559402466,8.23007106781006,314.98809814453125,-118.13629150390625,-64.57314300537109
429,2531245152,63.40901947021484,-85.22324371337891,4.55337429046631,4.78264093399048,0.61621856689453,11.24293804168701,375.32296752929688,-40.06217193603516,-29.28990364074707
430,2531261819,61.96123504638672,-84.43412017822266,11.21466636657715,2.32476639747620,8.63233375549316,12.50359630584717,311.14166259765625,53.87931060791016,-26.58225440979004
431,2531278486,55.18477249145508,-83.42947387695312,20.22647857666016,0.88786131143570,-3.56397843360901,4.24536132812500,131.04307556152344,80.23282623291016,-22.59089851379395
432,2531295153,49.99487304687500,-82.39263916015625,26.31381797790527,-3.17788767814636,7.88143873214722,6.47640228271484,50.99172973632812,73.64823913574219,-23.11811256408691
433,2531311820,42.17938995361328,-82.11009216308594,30.57109642028809,-2.35526323318481,0.19053605198860,2.64137411117554,-215.83941650390625,36.70333862304688,10.47402572631836
434,2531328487,34.70840072631836,-81.84264373779297,35.18616485595703,-1.31966304779053,-2.52199029922485,2.11009764671326,-174.08621215820312,36.71741867065430,19.10129356384277
435,2531345154,27.14247703552246,-81.38883209228516,40.48795700073242,0.34643793106079,0.66519987583160,2.84915041923523,-139.27467346191406,47.28551101684570,24.60680198669434
436,2531361821,20.66842651367188,-80.60478210449219,45.14769363403320,0.96534782648087,-0.32058900594711,2.87815332412720,-112.33756256103516,60.79150390625000,19.74463844299316
437,2531378488,17.85533332824707,-79.55580902099609,47.68006896972656,0.76018941402435,-1.21954333782196,1.79865109920502,-19.14448547363281,68.10170745849609,2.73070144653320
438,2531395155,17.41803741455078,-78.60831451416016,48.47972869873047,0.11819442361593,-0.04846820235252,0.89044374227524,20.86153602600098,57.00307464599609,-9.80464744567871
439,2531411822,17.30097770690918,-77.88413238525391,48.88437652587891,-0.05246766656637,-1.02684342861176,0.11380838602781,16.74780654907227,43.02934265136719,-9.48955345153809
440,2531428489,16.39278221130371,-77.37436676025391,49.71582031250000,0.04736118763685,-2.37080335617065,0.10401341319084,-5.75474023818970,32.46240997314453,0.12058503180742
441,2531445156,14.38824748992920,-76.99312591552734,51.53184509277344,1.03253531455994,-2.90143013000488,0.15892486274242,-14.01484584808350,28.56399536132812,15.99047183990479
442,2531461823,11.77277851104736,-76.54629516601562,54.17005157470703,1.90060007572174,-2.31604599952698,-0.36140078306198,-2.82758498191833,34.40472412109375,27.97616195678711
443,2531478490,8.97709178924561,-75.98246765136719,57.15188980102539,1.74789595603943,-0.68613189458847,-0.73803472518921,6.06130647659302,41.01297760009766,34.44806671142578
444,2531495157,6.65532588958740,-75.41484832763672,59.91532897949219,0.64130252599716,0.65305984020233,-1.53436684608459,21.37713623046875,39.40282440185547,34.69627380371094
445,2531511824,5.58846235275269,-74.98153686523438,61.61047744750977,-2.26668214797974,3.05720520019531,-0.58006435632706,34.33932113647461,28.72185707092285,21.80953407287598
446,2531528491,4.92470407485962,-74.91963958740234,62.44726562500000,-1.90207469463348,1.14907002449036,-0.84191769361496,8.68613052368164,5.00312376022339,11.38832378387451
447,2531545158,5.29609823226929,-75.04911041259766,63.03570175170898,-0.10055569559336,-0.65691286325455,-1.63033795356750,56.41387557983398,-6.81030893325806,8.54984760284424
448,2531561825,6.46603155136108,-75.27783966064453,63.38380813598633,0.11340467631817,0.26483669877052,-1.74359536170959,90.42633819580078,-12.98490142822266,5.47146892547607
449,2531578492,7.81090021133423,-75.69759368896484,63.36651229858398,0.50780057907104,0.14252826571465,-1.40552580356598,79.73034667968750,-24.90006828308105,1.61658537387848
450,2531595159,9.14528465270996,-76.22261810302734,63.38060379028320,0.64863312244415,-0.23202143609524,0.22334384918213,80.92967224121094,-30.99880981445312,3.59269833564758
451,2531611826,10.94085407257080,-76.82961273193359,63.10336685180664,0.50376957654953,1.54247379302979,0.41063117980957,91.60818481445312,-36.41017532348633,1.27849519252777
452,2531628493,12.35198020935059,-77.74460601806641,62.27577209472656,-0.65034335851669,3.24851417541504,0.46561935544014,36.28788757324219,-55.83528518676758,-0.87881100177765
453,2531645160,14.31726551055908,-79.04654693603516,60.42870712280273,-1.80021178722382,1.70308351516724,-0.96968328952789,9.43343544006348,-80.98616027832031,-4.93987035751343
454,2531661827,18.31669807434082,-80.83378601074219,56.61287307739258,0.41167408227921,-2.24424982070923,-2.57586431503296,14.64622402191162,-113.90235900878906,-9.55180740356445
455,2531678494,28.58229637145996,-82.53775787353516,49.42704772949219,1.41282439231873,-2.09477734565735,-3.13311243057251,189.45715332031250,-118.22357940673828,-17.90385818481445
456,2531695161,47.17564773559570,-84.39527893066406,36.05384445190430,9.65472507476807,6.19318103790283,-34.49632263183594,318.58731079101562,-143.17756652832031,-5.43557310104370
457,2531711828,140.86824035644531,-82.98918914794922,-59.08886718750000,16.21980667114258,4.49496650695801,-85.94263458251953,-67.48073577880859,-561.83770751953125,-18.64286422729492
458,2531728495,161.52354431152344,-78.55951690673828,-79.40283203125000,37.21483993530273,-42.89633178710938,59.18762969970703,34.92378616333008,-322.60574340820312,43.38380813598633
459,2531745162,167.25480651855469,-73.92285919189453,-82.69969940185547,88.50469207763672,10.46354484558105,19.74096298217773,151.53459167480469,-280.27166748046875,-30.77938461303711
460,2531761829,168.41923522949219,-72.09799957275391,-72.76506805419922,63.71899032592773,25.71452331542969,11.06962394714355,639.92218017578125,-69.95778656005859,-194.66432189941406
461,2531778496,162.67877197265625,-69.14595031738281,-75.09245300292969,12.52096462249756,-0.85852527618408,-27.07066345214844,-476.03042602539062,-183.06138610839844,-0.57129001617432
462,2531795163,167.11068725585938,-67.78362274169922,-75.19074249267578,0.15052831172943,30.52667808532715,13.79720306396484,260.40527343750000,-79.37055206298828,-20.47283172607422
463,2531811830,166.30162048339844,-67.14331817626953,-78.94580078125000,-5.33142852783203,-13.65778923034668,-26.08799934387207,-256.60800170898438,-57.12192153930664,74.00070190429688
464,2531828497,167.35676574707031,-67.39258575439453,-82.48698425292969,4.63354730606079,12.72492980957031,-6.60664558410645,-132.65269470214844,-4.03453874588013,82.11602783203125
465,2531845164,170.09561157226562,-68.05602264404297,-85.63051605224609,12.32761192321777,3.22825980186462,-6.44910097122192,-10.20733451843262,25.16226768493652,76.67340087890625
466,2531861831,171.85383605957031,-68.91607666015625,-88.49721527099609,15.49625205993652,1.06095600128174,-3.22272515296936,-54.52003479003906,41.16796875000000,69.17287445068359
467,2531878498,173.42691040039062,-69.64050292968750,-90.82832336425781,13.78953742980957,-1.13501787185669,-1.45684552192688,-36.42681121826172,36.87256622314453,53.43219375610352
468,2531895165,173.76829528808594,-70.30651855468750,-92.77024078369141,9.24457263946533,-2.24847340583801,-1.47145855426788,-88.97268676757812,35.37081146240234,42.89124679565430
469,2531911832,173.75234985351562,-71.19448852539062,-94.49715423583984,3.85311722755432,-6.10527944564819,-5.56493663787842,-98.76583099365234,49.35680007934570,38.52960968017578
470,2531928499,174.23724365234375,-72.31034851074219,-96.18624114990234,2.22201967239380,-4.61535692214966,-6.95211935043335,-67.15815734863281,63.36123275756836,37.33929061889648
471,2531945166,174.74244689941406,-73.68189239501953,-98.09320068359375,2.99360942840576,-2.65793037414551,-6.45374011993408,-79.11078643798828,78.79441833496094,39.97871017456055
472,2531961833,175.36553955078125,-75.25040435791016,-100.12138366699219,4.93496799468994,-1.09223794937134,-5.93672227859497,-79.88147735595703,91.02844238281250,39.35105133056641
473,2531978500,176.03810119628906,-76.88995361328125,-101.94596099853516,6.68815279006958,0.47594055533409,-4.54241514205933,-65.92807769775391,96.19877624511719,32.42241668701172
474,2531995167,176.80465698242188,-78.48380279541016,-103.39423370361328,8.65487098693848,2.41090393066406,-3.33680272102356,-38.94597244262695,94.35424041748047,23.23368453979492
475,2532011834,177.44166564941406,-79.95153045654297,-104.27661132812500,10.02193164825439,3.11895847320557,-1.76726317405701,-13.82908535003662,87.52708435058594,13.08193492889404
476,2532028501,178.01252746582031,-81.30015563964844,-104.05946350097656,10.11731147766113,5.04602146148682,-0.95440518856049,47.04939651489258,80.99340820312500,-0.14351236820221
477,2532045168,177.28308105468750,-82.46214294433594,-103.00448608398438,9.81156158447266,3.89176225662231,0.54812294244766,18.83955383300781,70.06107330322266,-7.30537939071655
478,2532061835,177.11259460449219,-83.53176879882812,-102.13501739501953,9.46588134765625,-1.02044582366943,-0.01560493558645,41.47179031372070,64.42961883544922,-4.44565677642822
479,2532078502,177.50950622558594,-84.57775878906250,-101.35666656494141,8.83484935760498,-1.01720833778381,0.15428236126900,70.14851379394531,62.90870666503906,-3.12142133712769
480,2532095169,176.35136413574219,-85.53981781005859,-99.68075561523438,8.57158279418945,-1.43274545669556,0.23073685169220,30.55464935302734,58.03528976440430,-6.81021928787231
481,2532111836,174.40570068359375,-86.45243835449219,-97.47026824951172,9.51024818420410,-1.94814991950989,0.46279931068420,15.37945175170898,55.17634201049805,-6.09947299957275
482,2532128503,170.94258117675781,-87.28834533691406,-94.00122070312500,10.17849349975586,-0.76838135719299,0.94048488140106,-0.21188302338123,50.89060974121094,-6.23567438125610
483,2532145170,165.70463562011719,-88.02167510986328,-88.45676422119141,10.31688117980957,0.53513884544373,0.57661199569702,17.82354545593262,45.34511947631836,-5.96464538574219
484,2532161837,157.21391296386719,-88.66294860839844,-79.55159759521484,10.91283512115479,4.60236358642578,1.22740495204926,24.41189384460449,40.52090072631836,-4.42596101760864
485,2532178504,145.06405639648438,-89.18147277832031,-67.71494293212891,10.63759422302246,2.24176764488220,0.79834461212158,-18.71881294250488,32.37274932861328,0.29382389783859
486,2532195171,121.33280944824219,-89.61235046386719,-44.12371063232422,10.47044658660889,-0.63613712787628,0.67186707258224,-5.32816076278687,27.41948890686035,1.59937012195587
487,2532211838,75.63453674316406,-89.77971649169922,1.27256226539612,9.59087753295898,-0.08476022630930,0.72288250923157,-9.18657970428467,24.10345840454102,0.78466612100601
488,2532228505,43.04516601562500,-89.53606414794922,33.45058822631836,9.37584972381592,-0.80268168449402,0.38320726156235,-25.60694122314453,19.94440650939941,0.04810722917318
489,2532245172,30.08216857910156,-89.25717163085938,46.30829620361328,9.61741447448730,-0.60736703872681,0.46816819906235,-8.96840095520020,17.06670570373535,-1.67525196075439
490,2532261839,24.02517318725586,-89.02301025390625,52.38950347900391,9.60179996490479,0.48426881432533,0.74230325222015,-0.04010951519012,14.21514225006104,-1.66448092460632
491,2532278506,20.25588226318359,-88.85192108154297,56.16656112670898,9.55904674530029,0.19833725690842,0.63533735275269,-0.35043308138847,10.71606922149658,-0.70210838317871
492,2532295173,17.14599800109863,-88.71184539794922,59.39934921264648,9.55412769317627,0.08853399753571,0.32993572950363,6.80605983734131,9.07090187072754,0.31563183665276
493,2532311840,14.67951965332031,-88.56714630126953,62.01359558105469,9.66051387786865,0.63181400299072,0.06907066702843,8.42128181457520,9.22069263458252,0.20695073902607
494,2532328507,12.97627639770508,-88.41193389892578,63.73048019409180,9.37071609497070,-0.11930862814188,0.14841744303703,0.40132549405098,9.49847221374512,-0.64992886781693
495,2532345174,12.19125556945801,-88.26992034912109,64.62831878662109,9.22923660278320,-0.31381940841675,0.40852460265160,6.50470495223999,8.57512092590332,-1.47651493549347
496,2532361841,12.08535861968994,-88.15814971923828,64.88194274902344,9.50243473052979,-0.06229208037257,0.53120160102844,8.66676521301270,6.58510494232178,-2.12673234939575
497,2532378508,11.87390613555908,-88.04866790771484,65.25016021728516,9.85003185272217,0.14240978658199,0.38175171613693,9.28666305541992,6.58814668655396,-1.83864724636078
498,2532395175,11.44876956939697,-87.92208099365234,65.87844085693359,9.78912067413330,0.40022644400597,0.11148740351200,12.01824951171875,7.68736934661865,-1.41425752639771
499,2532411842,10.87445449829102,-87.77507781982422,66.67831420898438,9.90758037567139,0.43822866678238,0.14282581210136,13.34148216247559,8.97952079772949,-1.11264240741730
500,2532428509,10.09676837921143,-87.60265350341797,67.62293243408203,10.09062004089355,0.61807024478912,0.32759320735931,9.81760597229004,10.56857109069824,-0.80658298730850
501,2532445176,9.61902713775635,-87.38319396972656,68.32139587402344,9.94807434082031,-0.04984338581562,0.38714393973351,13.07265377044678,13.28375434875488,-1.63400244712830
502,2532461843,9.20398235321045,-87.16310119628906,69.11189270019531,9.68919277191162,0.12783020734787,0.57377159595490,22.31524848937988,13.35883998870850,-1.11432147026062
503,2532478510,8.78738307952881,-86.96495056152344,69.82881927490234,9.75686645507812,0.22420544922352,0.58621323108673,17.86372756958008,12.11250209808350,-0.87764614820480
504,2532495177,8.28016948699951,-86.77256774902344,70.54151153564453,9.80012512207031,0.05771037936211,0.72906810045242,12.19070339202881,11.80687141418457,-0.60086178779602
505,2532511844,7.86505842208862,-86.54146575927734,71.32920837402344,9.74801826477051,0.00833528861403,0.56739497184753,22.18693351745605,14.13616561889648,-0.41435050964355
506,2532528511,7.48594808578491,-86.32166290283203,72.08376312255859,9.81649875640869,0.34392032027245,0.43134886026382,22.36933326721191,13.49081039428711,-0.17006871104240
507,2532545178,6.83448457717896,-86.11576843261719,72.82337951660156,9.77205562591553,0.50573742389679,0.96246021986008,5.12772274017334,12.67995071411133,0.15872837603092
508,2532561845,5.62421417236328,-85.88715362548828,73.89829254150391,9.72387504577637,0.13131554424763,1.24197113513947,-8.34080982208252,14.18175888061523,1.78336918354034
509,2532578512,3.56079697608948,-85.54157257080078,75.52730560302734,10.02395343780518,-0.04677203670144,1.01315605640411,-26.44653129577637,21.28637504577637,4.42937088012695
510,2532595179,1.89036417007446,-85.11809539794922,76.99510955810547,9.52617263793945,0.06704551726580,0.34090048074722,-12.53986072540283,25.74984931945801,4.75335311889648
511,2532611846,0.60225820541382,-84.74767303466797,78.15948486328125,9.68818283081055,0.31941288709641,0.67439734935760,-7.75445890426636,22.41489601135254,4.47829961776733
512,2532628513,-0.91586410999298,-84.33299255371094,79.46715545654297,9.92118072509766,0.56046938896179,0.64728212356567,-13.05246734619141,24.90455627441406,6.32287120819092
513,2532645180,-2.30904889106750,-83.90853881835938,80.62100982666016,9.88198852539062,0.34532552957535,0.57380795478821,-14.77697467803955,25.32012367248535,6.59230041503906
514,2532661847,-3.30642747879028,-83.55408477783203,81.42489624023438,9.91755008697510,0.01313317380846,1.20162928104401,-11.92201900482178,21.06607246398926,5.08435583114624
515,2532678514,-4.10933876037598,-83.25444793701172,82.11585998535156,9.67859649658203,0.03403457626700,1.34742927551270,-7.00738716125488,17.72550201416016,4.69618988037109
516,2532695181,-4.78815412521362,-83.01094055175781,82.59077453613281,9.77624607086182,0.05119839683175,1.35275888442993,-12.44393253326416,14.40110874176025,3.30982422828674
517,2532711848,-5.44780015945435,-82.80186462402344,82.97482299804688,9.82457256317139,0.06518613547087,1.55137658119202,-16.71962547302246,12.33793067932129,2.73211741447449
518,2532728515,-6.13002586364746,-82.62302398681641,83.42192840576172,9.62387180328369,-0.16749092936516,1.35602200031281,-14.32264995574951,10.43734741210938,3.24750828742981
519,2532745182,-6.58914375305176,-82.46849822998047,83.81450653076172,9.81362915039062,-0.31919544935226,1.32546508312225,-4.18063402175903,8.98976039886475,2.84509181976318
520,2532761849,-6.91037416458130,-82.33333587646484,84.15458679199219,9.84450912475586,0.08431200683117,1.54158270359039,0.95862591266632,7.84598541259766,2.41232633590698
521,2532778516,-7.26542186737061,-82.20303344726562,84.52532196044922,9.64053249359131,-0.00488351844251,1.47355890274048,0.74881941080093,7.50502824783325,2.71473526954651
522,2532795183,-7.51742839813232,-82.11360168457031,84.89613342285156,9.64349555969238,-0.45621985197067,1.35632812976837,6.93623399734497,5.04587554931641,2.48256921768188
523,2532811850,-7.60466194152832,-82.04814147949219,85.21096801757812,9.70763587951660,-0.20202280580997,1.64514243602753,13.49181175231934,3.66778564453125,1.87714970111847
524,2532828517,-7.78642272949219,-82.00714111328125,85.54999542236328,9.73520851135254,0.11618439108133,1.61109983921051,9.25860309600830,2.18115901947021,1.90781998634338
525,2532845184,-8.02027797698975,-81.98269653320312,85.87427520751953,9.83797931671143,0.02499993890524,1.50527000427246,5.25355577468872,1.20040965080261,1.66809773445129
526,2532861851,-8.20287322998047,-81.95358276367188,86.17797088623047,9.82560539245605,-0.08100194483995,1.29565894603729,7.09845304489136,1.48107397556305,1.54647600650787
527,2532878518,-8.40574359893799,-81.92394256591797,86.49793243408203,9.79070758819580,0.10352715849876,1.32966816425323,6.85860776901245,1.49484694004059,1.70508873462677
528,2532895185,-8.61747264862061,-81.89266967773438,86.75643157958984,9.90727806091309,-0.08498164266348,1.50933527946472,2.67106509208679,1.65238404273987,1.21918368339539
529,2532911852,-8.80654716491699,-81.84361267089844,86.96669006347656,9.94591712951660,-0.05775396898389,1.46072673797607,1.16442382335663,2.76021051406860,0.99342060089111
530,2532928519,-9.00514030456543,-81.78718566894531,87.12337493896484,9.78875732421875,-0.02799817919731,1.24284064769745,-2.59838247299194,3.25124382972717,0.62562215328217
531,2532945186,-9.15026187896729,-81.73628234863281,87.21871185302734,9.78872585296631,-0.24487356841564,1.43682718276978,-3.02638363838196,3.00896072387695,0.07401429116726
532,2532961853,-9.23737716674805,-81.68296051025391,87.30039978027344,9.87418746948242,-0.17673583328724,1.56942152976990,-0.35980719327927,3.15990257263184,-0.01132081262767
533,2532978520,-9.34665870666504,-81.62192535400391,87.36395263671875,9.82233047485352,0.07391155511141,1.43466973304749,-2.75926899909973,3.65020036697388,-0.07824680209160
534,2532995187,-9.43981456756592,-81.56497192382812,87.39054107666016,9.75376987457275,-0.27597293257713,1.36846017837524,-3.99869322776794,3.44453048706055,-0.43393036723137
535,2533011854,-9.48646831512451,-81.51689147949219,87.41499328613281,9.78659057617188,-0.20716993510723,1.60330271720886,-1.33353793621063,2.92515563964844,-0.53266727924347
536,2533028521,-9.55352306365967,-81.47447204589844,87.45169067382812,9.80889129638672,-0.00693208351731,1.54872345924377,-1.82226669788361,2.58167695999146,-0.47558942437172
537,2533045188,-9.60892391204834,-81.43149566650391,87.45478820800781,9.80037498474121,-0.09045521914959,1.47098267078400,-3.11674523353577,2.66102480888367,-0.76170885562897
538,2533061855,-9.69329738616943,-81.39294433593750,87.45683288574219,9.74046134948730,-0.09356901794672,1.60666012763977,-4.92032766342163,2.39832854270935,-0.81206345558167
539,2533078522,-9.78733158111572,-81.36627960205078,87.46743774414062,9.75972557067871,-0.13863545656204,1.61834430694580,-4.99664068222046,1.67368125915527,-0.85566914081573
540,2533095189,-9.87530136108398,-81.34628295898438,87.46485137939453,9.80183410644531,-0.12391836196184,1.57041382789612,-5.41132307052612,1.30799579620361,-1.03572642803192
541,2533111856,-9.96463108062744,-81.32044982910156,87.45547485351562,9.84097766876221,-0.05783107131720,1.42500531673431,-5.89107465744019,1.66621506214142,-1.03175640106201
542,2533128523,-10.09065818786621,-81.28417968750000,87.43216705322266,9.82218933105469,0.08713398873806,1.37192976474762,-8.93000984191895,2.29322695732117,-1.04935264587402
543,2533145190,-10.22676277160645,-81.24532318115234,87.37739562988281,9.84927368164062,-0.11873773485422,1.54314219951630,-11.38810062408447,2.51006436347961,-1.29581093788147
544,2533161857,-10.38613033294678,-81.19862365722656,87.34736633300781,9.84862136840820,-0.13703340291977,1.52944016456604,-11.32828426361084,2.92094373703003,-0.98822796344757
545,2533178524,-10.58044433593750,-81.15033721923828,87.30338287353516,9.78673076629639,-0.17518156766891,1.48314321041107,-14.24708747863770,3.04602432250977,-1.08781051635742
546,2533195191,-10.73627090454102,-81.11281585693359,87.21987152099609,9.71654415130615,-0.20693200826645,1.67992603778839,-14.27928256988525,2.47551417350769,-1.55957126617432
547,2533211858,-10.81941890716553,-81.09545135498047,87.09170532226562,9.76102638244629,-0.23444809019566,1.66259253025055,-12.56781291961670,1.36314070224762,-2.19281959533691
548,2533228525,-10.81047058105469,-81.09828186035156,86.89963531494141,9.75904560089111,-0.12618881464005,1.55441570281982,-10.82516670227051,0.29140859842300,-3.00222587585449
549,2533245192,-10.72724056243896,-81.11993408203125,86.62228393554688,9.75620555877686,0.01031561940908,1.38031232357025,-11.42225074768066,-0.66869026422501,-3.98681688308716
550,2533261859,-10.52965927124023,-81.16718292236328,86.21410369873047,9.77164649963379,-0.19145929813385,1.42155206203461,-12.31796073913574,-1.96899032592773,-5.44787645339966
551,2533278526,-10.17833614349365,-81.23104095458984,85.75262451171875,9.74164295196533,-0.20377491414547,1.49887394905090,-6.25303411483765,-2.87825322151184,-6.07255411148071
552,2533295193,-9.89231586456299,-81.29161834716797,85.34925842285156,9.89939022064209,-0.01619448885322,1.56544792652130,-6.73195981979370,-2.81362605094910,-5.47307014465332
553,2533311860,-9.67830181121826,-81.33655548095703,85.00978851318359,9.74461746215820,-0.17258834838867,1.57293260097504,-7.26414775848389,-2.00562858581543,-4.70573282241821
554,2533328527,-9.52870464324951,-81.36578369140625,84.76502990722656,9.77403354644775,-0.32218238711357,1.84999728202820,-5.51871728897095,-1.23875820636749,-3.68702530860901
555,2533345194,-9.39909458160400,-81.40061187744141,84.61128997802734,9.70204830169678,-0.12392028421164,1.64380204677582,-1.31774771213531,-1.71021103858948,-2.92285704612732
556,2533361861,-9.25039291381836,-81.46162414550781,84.43663024902344,9.75581455230713,-0.09109668433666,1.51482820510864,-1.41455101966858,-3.23346257209778,-3.35025668144226
557,2533378528,-9.03214550018311,-81.53870391845703,84.22385406494141,9.78752803802490,-0.11142155528069,1.49798607826233,0.50082439184189,-4.13398027420044,-3.81218218803406
558,2533395195,-8.83464241027832,-81.59772491455078,84.04930114746094,9.88297080993652,-0.01232598070055,1.42111706733704,1.51093804836273,-3.14094972610474,-3.28375339508057
559,2533411862,-8.66260623931885,-81.64762115478516,83.86680603027344,9.81357097625732,0.11366968601942,1.33130538463593,-0.48201820254326,-2.58959746360779,-3.24628138542175
560,2533428529,-8.47070407867432,-81.70568847656250,83.68531036376953,9.73229598999023,0.06246352940798,1.32548546791077,0.76176661252975,-3.08588242530823,-3.29279446601868
561,2533445196,-8.27860546112061,-81.77648925781250,83.52106475830078,9.79724502563477,-0.04555889591575,1.40413689613342,1.80591976642609,-3.86717247962952,-3.23245120048523
562,2533461863,-8.15169429779053,-81.80384826660156,83.43730163574219,9.93772411346436,-0.08513473719358,1.60090434551239,2.66521286964417,-1.39941394329071,-2.15980386734009
563,2533478530,-8.09698772430420,-81.80298614501953,83.41108703613281,9.85100746154785,-0.01297302078456,1.55554890632629,1.74898254871368,0.20647038519382,-1.42705011367798
564,2533495197,-8.10107898712158,-81.78907775878906,83.41265106201172,9.74700546264648,0.06074903532863,1.40201795101166,-0.13057355582714,0.94240015745163,-1.08302009105682
565,2533511864,-8.09722518920898,-81.79546356201172,83.39746093750000,9.76617717742920,-0.00181233021431,1.34706389904022,-0.64563852548599,-0.23755139112473,-1.39440035820007
566,2533528531,-8.16378211975098,-81.76837158203125,83.45005798339844,9.88633155822754,-0.07737142592669,1.55119168758392,-0.84740251302719,1.67024254798889,-0.53431290388107
567,2533545198,-8.21396636962891,-81.73877716064453,83.52969360351562,9.76616954803467,-0.04065403342247,1.36876142024994,1.73557400703430,1.77579879760742,-0.28194457292557
568,2533561865,-8.21656894683838,-81.73713684082031,83.56980133056641,9.72860336303711,0.08676572144032,1.37413799762726,2.24405026435852,0.16915267705917,-0.85527211427689
569,2533578532,-8.37088966369629,-81.69683837890625,83.67275238037109,10.08782577514648,-0.04347533732653,1.73501133918762,-3.12605619430542,2.38219261169434,0.01676991768181
570,2533595199,-8.52679824829102,-81.61587524414062,83.85744476318359,9.62075710296631,-0.27256190776825,1.35284578800201,1.62205898761749,4.68072795867920,1.09159421920776
571,2533611866,-8.55309391021729,-81.59514617919922,83.99119567871094,9.63236808776855,-0.04692653194070,1.47118782997131,6.38518953323364,1.18132841587067,0.13330771028996
572,2533628533,-8.55908203125000,-81.62480163574219,84.07633972167969,9.73673248291016,0.08359859138727,1.43409633636475,4.72305250167847,-1.74281632900238,-0.73508447408676
573,2533645200,-8.57797622680664,-81.66934967041016,84.10791778564453,9.91790676116943,0.05475661531091,1.55781888961792,0.76729887723923,-2.55936193466187,-1.33529245853424
574,2533661867,-8.63859176635742,-81.70024108886719,84.17429351806641,9.78538703918457,0.02929055318236,1.30173039436340,0.32185554504395,-1.80283927917480,-0.91921412944794
575,2533678534,-8.66546821594238,-81.73105621337891,84.19731903076172,9.83341407775879,-0.01703757233918,1.28545296192169,-0.22367571294308,-1.73624658584595,-1.29210948944092
576,2533695201,-8.67177295684814,-81.75804901123047,84.18534851074219,9.84763526916504,0.18586707115173,1.43649446964264,-1.06363785266876,-1.45934116840363,-1.55508148670197
577,2533711868,-8.74482059478760,-81.76191711425781,84.23803710937500,9.75093936920166,-0.21419422328472,1.32753860950470,-1.23168909549713,-0.17781615257263,-0.79618358612061
578,2533728535,-8.75577068328857,-81.76922607421875,84.28918457031250,9.82706260681152,-0.15129414200783,1.46468770503998,2.39836668968201,-0.38127064704895,-0.84213274717331
579,2533745202,-8.75713157653809,-81.79139709472656,84.33190917968750,9.78717136383057,0.06027860939503,1.49299478530884,2.48495078086853,-1.24354779720306,-1.04764914512634
580,2533761869,-8.72048377990723,-81.81477355957031,84.30875396728516,9.83304882049561,-0.03611614555120,1.44279050827026,0.84513580799103,-1.23550546169281,-1.61860740184784
581,2533778536,-8.68208789825439,-81.83648681640625,84.27671813964844,9.81801795959473,0.01876755245030,1.28808903694153,0.42474177479744,-1.12215638160706,-1.67591559886932
582,2533795203,-8.63197803497314,-81.85372924804688,84.21761322021484,9.85465621948242,0.03502542153001,1.32434391975403,-0.47765120863914,-0.82375568151474,-1.86293971538544
583,2533811870,-8.59063339233398,-81.86636352539062,84.13992309570312,9.81275653839111,0.08064895868301,1.45137453079224,-2.11107563972473,-0.52645623683929,-1.97499537467957
584,2533828537,-8.59270381927490,-81.86786651611328,84.08715820312500,9.80890464782715,-0.14058524370193,1.50047445297241,-3.23583149909973,0.09762921184301,-1.66561949253082
585,2533845204,-8.53397655487061,-81.86462402343750,84.04857635498047,9.72744750976562,-0.20556923747063,1.38486778736115,1.25400412082672,0.36156806349754,-1.50327336788177
586,2533861871,-8.38789081573486,-81.87225341796875,83.96309661865234,9.76610279083252,0.00330452062190,1.47749924659729,3.71466708183289,-0.22275364398956,-1.99332118034363
587,2533878538,-8.25638961791992,-81.89206695556641,83.88491821289062,9.76320075988770,-0.02141572535038,1.41588687896729,3.26624703407288,-0.96043151617050,-2.03731751441956
588,2533895205,-8.13661861419678,-81.91959381103516,83.79212951660156,9.81094741821289,-0.02144487760961,1.47837889194489,1.70213687419891,-1.40161657333374,-2.21877694129944
589,2533911872,-8.04321479797363,-81.94255828857422,83.70679473876953,9.81827926635742,0.00794756785035,1.37491691112518,0.55915731191635,-1.13708865642548,-2.11271476745605
590,2533928539,-7.95347690582275,-81.96009826660156,83.60820007324219,9.80574798583984,0.02290404029191,1.35086750984192,-0.44906750321388,-0.80348318815231,-2.17418551445007
591,2533945206,-7.87323427200317,-81.97331237792969,83.50741577148438,9.82709789276123,0.06806583702564,1.32461225986481,-1.14721202850342,-0.54667103290558,-2.15354800224304
592,2533961873,-7.80077695846558,-81.98276519775391,83.39736938476562,9.83725643157959,-0.00073732179590,1.44064033031464,-2.16707754135132,-0.31355068087578,-2.19836354255676
593,2533978540,-7.76874589920044,-81.98839569091797,83.33506011962891,9.78156185150146,-0.06982027739286,1.41697978973389,-1.75685203075409,-0.14230416715145,-1.76959431171417
594,2533995207,-7.72925567626953,-81.99716949462891,83.27072906494141,9.78275299072266,0.01042496506125,1.38055765628815,-1.43227505683899,-0.32936650514603,-1.81053626537323
595,2534011874,-7.67818117141724,-82.01180267333984,83.18877410888672,9.81050491333008,0.00610745279118,1.43489670753479,-1.78106868267059,-0.65852808952332,-2.00186300277710
596,2534028541,-7.58892774581909,-82.02846527099609,83.07229614257812,9.81717872619629,-0.00990921538323,1.47403490543365,-1.53731262683868,-0.73550713062286,-2.30022549629211
597,2534045208,-7.47984170913696,-82.04145050048828,82.96153259277344,9.76608467102051,-0.11454715579748,1.38830399513245,-0.01499623619020,-0.53242403268814,-2.22199130058289
598,2534061875,-7.34709978103638,-82.05828857421875,82.83278656005859,9.79235267639160,0.07246698439121,1.37712991237640,0.33802998065948,-0.74233287572861,-2.39711809158325
599,2534078542,-7.21438503265381,-82.07530975341797,82.67967224121094,9.80767154693604,0.07000804692507,1.37144148349762,-1.10486781597137,-0.72431433200836,-2.59158277511597
600,2534095209,-7.10004758834839,-82.08950042724609,82.51571655273438,9.83645725250244,0.03316434472799,1.37228798866272,-2.86423015594482,-0.55936872959137,-2.65909814834595
601,2534111876,-6.98129606246948,-82.08988952636719,82.35757446289062,9.80455207824707,-0.04925299808383,1.35054719448090,-2.24866724014282,0.25745248794556,-2.50519132614136
602,2534128543,-6.85261249542236,-82.08473968505859,82.21383666992188,9.78878974914551,0.02736328914762,1.35611379146576,-0.80297738313675,0.56819206476212,-2.34956169128418
603,2534145210,-6.73091411590576,-82.08255004882812,82.07057189941406,9.82501411437988,0.07575251907110,1.38820409774780,-1.18565046787262,0.39454448223114,-2.36574268341064
604,2534161877,-6.61482143402100,-82.08619689941406,81.90327453613281,9.79248332977295,0.07209409773350,1.42451035976410,-2.95612883567810,0.06179705262184,-2.60428714752197
605,2534178544,-6.49572038650513,-82.09060668945312,81.73362731933594,9.79251098632812,-0.02272357605398,1.40919291973114,-2.91231822967529,0.01689798198640,-2.62774801254272
606,2534195211,-6.39505624771118,-82.09549713134766,81.59481048583984,9.77440643310547,-0.02708872221410,1.39988756179810,-2.18445611000061,-0.04191518574953,-2.37714052200317
607,2534211878,-6.26864194869995,-82.10017395019531,81.44536590576172,9.79585838317871,0.01851499266922,1.41375160217285,-1.27022325992584,-0.01728857122362,-2.46134185791016
608,2534228545,-6.14347457885742,-82.10922241210938,81.30184173583984,9.79241371154785,0.01914025098085,1.45268511772156,-0.99225509166718,-0.28562641143799,-2.43646550178528
609,2534245212,-6.03400468826294,-82.12046813964844,81.17418670654297,9.76828098297119,0.01538813579828,1.42113435268402,-0.99653899669647,-0.44126844406128,-2.32194495201111
610,2534261879,-5.93134593963623,-82.13950347900391,81.04988861083984,9.78292465209961,0.05931781977415,1.41168797016144,-1.20160698890686,-0.90494787693024,-2.33836269378662
611,2534278546,-5.84795999526978,-82.16599273681641,80.94182586669922,9.79650878906250,0.06834569573402,1.40738689899445,-1.39856851100922,-1.37202095985413,-2.24723267555237
612,2534295213,-5.76073551177979,-82.19591522216797,80.83840179443359,9.80872631072998,0.07320602238178,1.39312922954559,-0.88815873861313,-1.57694816589355,-2.22414278984070
613,2534311880,-5.68478631973267,-82.21898651123047,80.74309539794922,9.81072711944580,0.02510078810155,1.38917315006256,-1.08335316181183,-1.17829942703247,-2.11253547668457
614,2534328547,-5.61994838714600,-82.24015045166016,80.66703796386719,9.78822422027588,0.09802055358887,1.33563351631165,-0.59954208135605,-1.07291603088379,-1.94148111343384
615,2534345214,-5.57143926620483,-82.26315307617188,80.60290527343750,9.79967689514160,0.10775794833899,1.31072783470154,-0.88384306430817,-1.20666551589966,-1.85462844371796
616,2534361881,-5.52507543563843,-82.29077911376953,80.53443145751953,9.82413196563721,0.09174670279026,1.40578806400299,-1.26503694057465,-1.47392117977142,-1.91052818298340
617,2534378548,-5.48381090164185,-82.31275177001953,80.49262237548828,9.79695701599121,0.00547217437997,1.37065804004669,0.01160895451903,-1.16412270069122,-1.66345512866974
618,2534395215,-5.44133663177490,-82.33486938476562,80.46125793457031,9.81678485870361,0.08682521432638,1.29544508457184,0.70826154947281,-1.17381715774536,-1.57692265510559
619,2534411882,-5.41335678100586,-82.35640716552734,80.43115234375000,9.83162307739258,0.17994545400143,1.26440286636353,-0.08456032723188,-1.14034128189087,-1.56250274181366
620,2534428549,-5.40538406372070,-82.37377929687500,80.39546966552734,9.85015869140625,0.10438814759254,1.36948788166046,-1.61858189105988,-0.88480359315872,-1.58237838745117
621,2534445216,-5.45145750045776,-82.38057708740234,80.41870880126953,9.77710628509521,-0.01677974686027,1.31587016582489,-1.36227560043335,-0.30545705556870,-1.05548655986786
622,2534461883,-5.48162555694580,-82.38232421875000,80.45714569091797,9.79158782958984,0.04309121891856,1.31341314315796,0.49328133463860,-0.01440714392811,-0.90599805116653
623,2534478550,-5.52225542068481,-82.38996124267578,80.50016021728516,9.79975223541260,0.13172036409378,1.32389414310455,0.14616526663303,-0.36781117320061,-0.90200239419937
624,2534495217,-5.55455207824707,-82.40327453613281,80.52365112304688,9.78687572479248,0.07574933022261,1.42380571365356,-0.51751732826233,-0.69041597843170,-1.08984601497650
625,2534511884,-5.58748817443848,-82.41590118408203,80.55104827880859,9.80031871795654,-0.01600489765406,1.40296995639801,-0.32474339008331,-0.65829765796661,-1.05715131759644
626,2534528551,-5.61139249801636,-82.43089294433594,80.58230590820312,9.77264881134033,0.06510773301125,1.31302320957184,0.44870245456696,-0.79851430654526,-1.03965795040131
627,2534545218,-5.63128566741943,-82.45101165771484,80.60948944091797,9.80600643157959,0.10187289118767,1.32311213016510,0.44752427935600,-1.09612107276917,-1.10234498977661
628,2534561885,-5.68852186203003,-82.47087097167969,80.65277862548828,9.84227275848389,0.11759988218546,1.37214052677155,-0.83289945125580,-1.09489178657532,-0.97595912218094
629,2534578552,-5.76467227935791,-82.48419952392578,80.72207641601562,9.80167198181152,0.02236001379788,1.34153807163239,-0.42812266945839,-0.73313152790070,-0.73710143566132
630,2534595219,-5.84349203109741,-82.49768829345703,80.81233978271484,9.74924564361572,0.01819223910570,1.31258559226990,0.66317683458328,-0.75428760051727,-0.57440960407257
631,2534611886,-5.90995979309082,-82.51418304443359,80.90521240234375,9.78260898590088,0.05543322861195,1.30726015567780,1.56091475486755,-0.93682926893234,-0.57515233755112
632,2534628553,-5.97560024261475,-82.53397369384766,80.98320007324219,9.82576656341553,0.10362669080496,1.35230994224548,0.71882677078247,-1.12838029861450,-0.71659207344055
633,2534645220,-6.06763601303101,-82.55065155029297,81.07116699218750,9.80914688110352,0.06979307532310,1.36147058010101,-0.26137757301331,-0.94120264053345,-0.61930221319199
634,2534661887,-6.18947076797485,-82.56626129150391,81.18384552001953,9.78582572937012,0.05482418090105,1.31180703639984,-0.58592891693115,-0.90858477354050,-0.42629775404930
635,2534678554,-6.29452705383301,-82.58227539062500,81.29953002929688,9.81118297576904,0.07425382733345,1.24989163875580,0.60112357139587,-0.93157225847244,-0.40838164091110
636,2534695221,-6.40210819244385,-82.59975433349609,81.40396118164062,9.81605529785156,0.10801733285189,1.26544809341431,-0.21874526143074,-1.01072835922241,-0.50859135389328
637,2534711888,-6.50885295867920,-82.61663818359375,81.50131225585938,9.77588367462158,-0.00302671431564,1.36792314052582,-0.59335654973984,-0.97248852252960,-0.56317198276520
638,2534728555,-6.62792110443115,-82.63382720947266,81.62488555908203,9.77894020080566,-0.00484672980383,1.32937002182007,0.23196782171726,-1.01218831539154,-0.36609512567520
639,2534745222,-6.75909852981567,-82.65345764160156,81.76257324218750,9.77612304687500,0.03835068643093,1.31298542022705,0.34923556447029,-1.16924524307251,-0.28030535578728
640,2534761889,-6.88826847076416,-82.67581939697266,81.90453338623047,9.80552196502686,0.01610484346747,1.31767082214355,0.72404539585114,-1.33674609661102,-0.27282008528709
641,2534778556,-7.00893068313599,-82.69685363769531,82.04071044921875,9.78120803833008,0.03640358895063,1.31548798084259,0.88601368665695,-1.25532960891724,-0.31370434165001
642,2534795223,-7.10694837570190,-82.71756744384766,82.16030883789062,9.80183410644531,0.01313266344368,1.26837551593781,1.25388896465302,-1.23416090011597,-0.44545611739159
643,2534811890,-7.21005630493164,-82.73915100097656,82.28349304199219,9.80976867675781,0.04478873312473,1.25357615947723,1.17075026035309,-1.28041732311249,-0.42718142271042
644,2534828557,-7.33362007141113,-82.76047515869141,82.41858673095703,9.79275894165039,0.01016504317522,1.31137108802795,0.64845591783524,-1.27637040615082,-0.34026470780373
645,2534845224,-7.49104356765747,-82.78074645996094,82.59419250488281,9.76897525787354,0.05154311284423,1.27973413467407,1.03212141990662,-1.25265312194824,-0.03351421281695
646,2534861891,-7.63347482681274,-82.80647277832031,82.75514221191406,9.76823139190674,-0.02538261003792,1.29320764541626,1.05290591716766,-1.57478380203247,-0.19623166322708
647,2534878558,-7.75804901123047,-82.84201049804688,82.91471099853516,9.77395153045654,-0.01426084060222,1.33038294315338,2.05861401557922,-2.14156746864319,-0.29006382822990
648,2534895225,-7.86595153808594,-82.88500976562500,83.06539916992188,9.79410839080811,0.01245259027928,1.28453600406647,2.51245856285095,-2.59262013435364,-0.43159964680672
649,2534911892,-7.98680305480957,-82.92900848388672,83.22063446044922,9.79059696197510,-0.00562171125785,1.24069154262543,2.02022075653076,-2.64493370056152,-0.41523304581642
650,2534928559,-8.09768390655518,-82.97228240966797,83.36480712890625,9.80125808715820,0.04315195232630,1.18936800956726,1.95625305175781,-2.59966325759888,-0.50368654727936
651,2534945226,-8.21918582916260,-83.01239013671875,83.51914215087891,9.80740642547607,-0.00049504195340,1.22538924217224,1.93000018596649,-2.41422748565674,-0.41233888268471
652,2534961893,-8.35567569732666,-83.05358123779297,83.68325805664062,9.77954006195068,0.02585845813155,1.24319076538086,1.60593557357788,-2.49646973609924,-0.36663299798965
653,2534978560,-8.50614738464355,-83.09487915039062,83.87015533447266,9.80800056457520,-0.01630498096347,1.23576974868774,2.12440037727356,-2.53414607048035,-0.21711884438992
654,2534995227,-8.66811180114746,-83.13867187500000,84.06565856933594,9.78182029724121,0.00883810594678,1.26353883743286,1.95084893703461,-2.68518400192261,-0.19201840460300
655,2535011894,-8.84757995605469,-83.19300079345703,84.27820587158203,9.74740886688232,-0.00492688221857,1.27272832393646,1.92430806159973,-3.32561135292053,-0.18491731584072
656,2535028561,-9.03911304473877,-83.25177764892578,84.51099395751953,9.78558444976807,-0.02922819741070,1.20897614955902,2.40226626396179,-3.61409950256348,-0.10842495411634
657,2535045228,-9.22504997253418,-83.31176757812500,84.73694610595703,9.77779006958008,-0.03794598579407,1.16019332408905,2.33296489715576,-3.68258142471313,-0.19397778809071
658,2535061895,-9.42174720764160,-83.37469482421875,84.98110198974609,9.81101608276367,0.00860353652388,1.15521383285522,2.77153158187866,-3.87488198280334,-0.12411916255951
659,2535078562,-9.63683414459229,-83.43930053710938,85.22922515869141,9.78079986572266,-0.01087199058384,1.18071603775024,1.91282677650452,-3.98187828063965,-0.14417387545109
660,2535095229,-9.87342739105225,-83.50575256347656,85.51536560058594,9.77943134307861,0.00162024050951,1.09677529335022,2.88148617744446,-4.13808965682983,0.05933821573853
661,2535111896,-10.13575458526611,-83.57291412353516,85.81820678710938,9.79932785034180,0.00894233491272,1.12254583835602,2.34029054641724,-4.20283985137939,0.12591846287251
662,2535128563,-10.40878677368164,-83.64063262939453,86.13592529296875,9.79834461212158,-0.01196552813053,1.13876676559448,2.58314919471741,-4.25157976150513,0.17825795710087
663,2535145230,-10.73966217041016,-83.70225524902344,86.50426483154297,9.79219722747803,-0.02136537991464,1.11070108413696,2.14329004287720,-3.95462656021118,0.53228956460953
664,2535161897,-11.08043003082275,-83.75377655029297,86.88705444335938,9.82579708099365,-0.00858835969120,1.00634014606476,2.40898346900940,-3.38547348976135,0.69467401504517
665,2535178564,-11.45244216918945,-83.80172729492188,87.29203796386719,9.80287456512451,0.03552065044641,1.04885244369507,1.85394346714020,-3.21272921562195,0.83604341745377
666,2535195231,-11.86248397827148,-83.85471343994141,87.75344085693359,9.76017475128174,-0.08270893990993,1.08979988098145,2.94056248664856,-3.59476876258850,1.08858466148376
667,2535211898,-12.28454780578613,-83.91369628906250,88.24527740478516,9.77998352050781,-0.08239229023457,1.09226179122925,4.04599380493164,-3.98840951919556,1.15334630012512
668,2535228565,-12.71873283386230,-83.97579193115234,88.76205444335938,9.79718589782715,-0.09092909842730,1.04576909542084,4.80765199661255,-4.21569776535034,1.20712041854858
669,2535245232,-13.17449665069580,-84.04102325439453,89.28438568115234,9.80085754394531,-0.01187412347645,1.01064944267273,3.84193706512451,-4.43119001388550,1.12773370742798
670,2535261899,-13.65415859222412,-84.11414337158203,89.82231140136719,9.76770591735840,-0.03141625598073,1.00174164772034,3.35010957717896,-4.90298891067505,1.04436445236206
671,2535278566,-14.12490940093994,-84.20177459716797,90.36836242675781,9.75325393676758,-0.09653612226248,0.98161095380783,4.36583232879639,-5.79039096832275,0.79289877414703
