sep=,
DeviceTag:,Xsens_DOT_3
FirmwareVersion:,3.0.0
AppVersion:,2023.6.0
StartTime: ,2025-04-09_11:04:29_000 CEST
© Movella Technologies B. V. 2005-2025

PacketCounter,SampleTimeFine,Euler_X,Euler_Y,Euler_Z,Acc_X,Acc_Y,Acc_Z,Gyr_X,Gyr_Y,Gyr_Z
0,2524078342,-143.49417114257812,-82.70405578613281,-139.54837036132812,0.00000000000000,0.00000000000000,0.00000000000000,0.00000000000000,0.00000000000000,0.00000000000000
1,2524095009,-143.43977355957031,-82.68649291992188,-139.57563781738281,9.73181247711182,-0.62885516881943,-1.07492184638977,2.92095589637756,-0.24098990857601,1.09469318389893
2,2524111676,-143.39089965820312,-82.67158508300781,-139.60125732421875,9.72027397155762,-0.64436572790146,-1.05939567089081,2.70587325096130,-0.11760071665049,0.98630023002625
3,2524128343,-143.33110046386719,-82.65834808349609,-139.63558959960938,9.76100254058838,-0.63977020978928,-1.06341683864594,2.62917566299438,0.02647712640464,0.99918347597122
4,2524145010,-143.27232360839844,-82.65014648437500,-139.67510986328125,9.73151683807373,-0.69715958833694,-1.06497538089752,2.26778054237366,0.28186136484146,0.85718667507172
5,2524161677,-143.23197937011719,-82.64835357666016,-139.70936584472656,9.75313854217529,-0.61626493930817,-1.12959444522858,1.56481432914734,0.56892853975296,0.58008283376694
6,2524178344,-143.21919250488281,-82.65377807617188,-139.73321533203125,9.75428390502930,-0.68771386146545,-1.20925271511078,0.57160496711731,0.85917156934738,0.25594127178192
7,2524195011,-143.18887329101562,-82.65982055664062,-139.76489257812500,9.74591255187988,-0.75277793407440,-1.18720901012421,1.12946248054504,0.93104094266891,0.28262972831726
8,2524211678,-143.14215087890625,-82.66805267333984,-139.80133056640625,9.71445846557617,-0.72986602783203,-1.10451292991638,1.85445547103882,1.05854094028473,0.22888150811195
9,2524228345,-143.12707519531250,-82.67581939697266,-139.81208801269531,9.69335842132568,-0.66603034734726,-1.01630842685699,1.47866594791412,0.90467256307602,0.09575948119164
10,2524245012,-143.13899230957031,-82.68181610107422,-139.80490112304688,9.71043682098389,-0.68281775712967,-1.03471875190735,0.97209793329239,0.73964995145798,0.04276680201292
11,2524261679,-143.18086242675781,-82.68761444091797,-139.77328491210938,9.75733947753906,-0.63444411754608,-1.02097856998444,0.70214015245438,0.62154984474182,-0.11354110389948
12,2524278346,-143.23068237304688,-82.69072723388672,-139.74484252929688,9.70409584045410,-0.63552421331406,-1.05358290672302,-0.06353230774403,0.50485837459564,0.01929276809096
13,2524295013,-143.28761291503906,-82.69601440429688,-139.70303344726562,9.73141765594482,-0.70917975902557,-1.10863494873047,0.33951556682587,0.54848957061768,-0.14413549005985
14,2524311680,-143.37107849121094,-82.70400238037109,-139.63339233398438,9.72138690948486,-0.72230088710785,-1.10517680644989,0.37984272837639,0.55386823415756,-0.40932938456535
15,2524328347,-143.42510986328125,-82.70948791503906,-139.59281921386719,9.70358467102051,-0.74541032314301,-1.16357982158661,0.29459086060524,0.58022367954254,-0.13225115835667
16,2524345014,-143.46212768554688,-82.70994567871094,-139.55941772460938,9.70901298522949,-0.64631366729736,-1.09845709800720,0.65724104642868,0.38465788960457,0.11847794055939
17,2524361681,-143.49066162109375,-82.70507812500000,-139.53761291503906,9.69016933441162,-0.69159150123596,-1.09271943569183,0.84230571985245,0.14854724705219,0.34435635805130
18,2524378348,-143.51330566406250,-82.69550323486328,-139.51144409179688,9.75932598114014,-0.64281475543976,-1.04994809627533,1.43677639961243,-0.08147399872541,0.47790098190308
19,2524395015,-143.56730651855469,-82.68541717529297,-139.46284484863281,9.74217605590820,-0.65569323301315,-1.04077649116516,0.94784277677536,-0.22163948416710,0.35648393630981
20,2524411682,-143.62298583984375,-82.67384338378906,-139.41877746582031,9.73987102508545,-0.65174323320389,-1.06970512866974,0.70393300056458,-0.28702870011330,0.42734146118164
21,2524428349,-143.71391296386719,-82.66414642333984,-139.34513854980469,9.71302223205566,-0.70801037549973,-1.10914993286133,0.17496673762798,-0.31880125403404,0.19389455020428
22,2524445016,-143.80047607421875,-82.65473937988281,-139.26448059082031,9.68691730499268,-0.68879473209381,-1.13069009780884,0.77399659156799,-0.32242545485497,0.14268192648888
23,2524461683,-143.89735412597656,-82.64513397216797,-139.17684936523438,9.70205402374268,-0.67427098751068,-1.13151621818542,0.82391566038132,-0.38863426446915,0.08069920539856
24,2524478350,-143.98187255859375,-82.63393402099609,-139.10208129882812,9.73670864105225,-0.65412008762360,-1.09563660621643,0.83544141054153,-0.40879148244858,0.21046596765518
25,2524495017,-144.08659362792969,-82.62440490722656,-139.01921081542969,9.72214794158936,-0.68747937679291,-1.10491216182709,-0.20088039338589,-0.33794671297073,0.12826198339462
26,2524511684,-144.18692016601562,-82.61408996582031,-138.94854736328125,9.73101425170898,-0.71015250682831,-1.15903449058533,-0.59392005205154,-0.33389997482300,0.22713983058929
27,2524528351,-144.27995300292969,-82.60272216796875,-138.88629150390625,9.72515583038330,-0.65323358774185,-1.15987133979797,-0.61739408969879,-0.34771800041199,0.31022742390633
28,2524545018,-144.39247131347656,-82.59384155273438,-138.80633544921875,9.71371173858643,-0.60586279630661,-1.12883114814758,-0.85981839895248,-0.29847761988640,0.12247353792191
29,2524561685,-144.50308227539062,-82.58497619628906,-138.73397827148438,9.70190525054932,-0.70974826812744,-1.13535606861115,-1.06884348392487,-0.27469617128372,0.15626946091652
30,2524578352,-144.60565185546875,-82.57820129394531,-138.65298461914062,9.71396636962891,-0.71846687793732,-1.15247201919556,-0.15317673981190,-0.20027849078178,0.03239366039634
31,2524595019,-144.73164367675781,-82.57572174072266,-138.55735778808594,9.76096820831299,-0.62114429473877,-1.09993052482605,-0.61542195081711,-0.06401893496513,-0.21692673861980
32,2524611686,-144.90802001953125,-82.57566833496094,-138.43434143066406,9.69903659820557,-0.65896564722061,-1.12984061241150,-1.93794620037079,-0.07097278535366,-0.48401591181755
33,2524628353,-145.03738403320312,-82.56726837158203,-138.34985351562500,9.68302154541016,-0.74030214548111,-1.21731686592102,-1.25142371654510,-0.31325614452362,0.02713025361300
34,2524645020,-145.11891174316406,-82.55787658691406,-138.28813171386719,9.69921398162842,-0.67924696207047,-1.21129000186920,0.04895227029920,-0.25389868021011,0.23172450065613
35,2524661687,-145.17555236816406,-82.54759979248047,-138.23725891113281,9.70342731475830,-0.67274540662766,-1.18842375278473,0.66748619079590,-0.22616013884544,0.35107964277267
36,2524678354,-145.22341918945312,-82.53560638427734,-138.19380187988281,9.70249938964844,-0.70423603057861,-1.16453611850739,0.86037534475327,-0.28699028491974,0.44502702355385
37,2524695021,-145.26026916503906,-82.52283477783203,-138.15797424316406,9.72960186004639,-0.65059816837311,-1.13105058670044,1.05814385414124,-0.29007667303085,0.51961129903793
38,2524711688,-145.31227111816406,-82.51027679443359,-138.12039184570312,9.68529891967773,-0.69478541612625,-1.16742467880249,0.63954275846481,-0.32193881273270,0.46196982264519
39,2524728355,-145.35475158691406,-82.49842071533203,-138.07568359375000,9.73268127441406,-0.65787714719772,-1.14054334163666,0.98595446348190,-0.26781919598579,0.45924207568169
40,2524745022,-145.40327453613281,-82.48461914062500,-138.02870178222656,9.74596405029297,-0.65865075588226,-1.14915823936462,0.66903573274612,-0.36729890108109,0.51824098825455
41,2524761689,-145.46345520019531,-82.47412872314453,-137.99093627929688,9.72389411926270,-0.66002851724625,-1.20082247257233,0.00224751443602,-0.20707866549492,0.40300938487053
42,2524778356,-145.49853515625000,-82.46199035644531,-137.98495483398438,9.67951393127441,-0.73100548982620,-1.26329505443573,-0.14472453296185,-0.16475367546082,0.63782662153244
43,2524795023,-145.51283264160156,-82.45320129394531,-137.98493957519531,9.69377803802490,-0.70428037643433,-1.23682415485382,0.60611814260483,0.04108917340636,0.57476824522018
44,2524811690,-145.50944519042969,-82.44638061523438,-137.97579956054688,9.71628284454346,-0.63444364070892,-1.16550087928772,1.55126523971558,0.14087624847889,0.52442640066147
45,2524828357,-145.50947570800781,-82.43729400634766,-137.98098754882812,9.71486091613770,-0.60074985027313,-1.14101457595825,0.94566565752029,0.06115671992302,0.64443469047546
46,2524845024,-145.53233337402344,-82.42739105224609,-137.97631835937500,9.71570396423340,-0.67905741930008,-1.16536080837250,0.11833707243204,-0.02066944912076,0.61322569847107
47,2524861691,-145.55368041992188,-82.42076110839844,-137.96601867675781,9.74279022216797,-0.66747760772705,-1.17577826976776,0.45314624905586,0.12559828162193,0.47343152761459
48,2524878358,-145.56941223144531,-82.41503906250000,-137.96801757812500,9.74571514129639,-0.61313718557358,-1.17767012119293,0.29156854748726,0.20595811307430,0.49810937047005
49,2524895025,-145.58755493164062,-82.40885925292969,-137.97540283203125,9.69905281066895,-0.67648249864578,-1.20077240467072,-0.19301727414131,0.20850655436516,0.55152463912964
50,2524911692,-145.58628845214844,-82.40030670166016,-137.99353027343750,9.66408538818359,-0.74367588758469,-1.19299054145813,0.06999310106039,0.16627122461796,0.72639530897141
51,2524928359,-145.55603027343750,-82.39282226562500,-138.02786254882812,9.70158576965332,-0.67774462699890,-1.18214023113251,0.89719361066818,0.27904394268990,0.79630511999130
52,2524945026,-145.53619384765625,-82.38225555419922,-138.05828857421875,9.72273159027100,-0.63936442136765,-1.14180326461792,0.56290948390961,0.10355854034424,0.87010818719864
53,2524961693,-145.53341674804688,-82.37193298339844,-138.09175109863281,9.73628807067871,-0.67718183994293,-1.12365853786469,0.63885116577148,0.04111478850245,0.73730641603470
54,2524978360,-145.53604125976562,-82.36234283447266,-138.09672546386719,9.72640895843506,-0.70688492059708,-1.18846428394318,0.64197587966919,0.04863211512566,0.67803853750229
55,2524995027,-145.51853942871094,-82.35763549804688,-138.12646484375000,9.70038890838623,-0.70542383193970,-1.23969900608063,0.50840562582016,0.39094582200050,0.66127502918243
56,2525011694,-145.50549316406250,-82.35360717773438,-138.15628051757812,9.68351745605469,-0.69422864913940,-1.23874390125275,0.38478595018387,0.41406127810478,0.62151128053665
57,2525028361,-145.47401428222656,-82.34926605224609,-138.19328308105469,9.69240188598633,-0.74642890691757,-1.20245814323425,1.20375216007233,0.42001628875732,0.66566771268845
58,2525045028,-145.41726684570312,-82.34294128417969,-138.23387145996094,9.70193958282471,-0.72142964601517,-1.17209553718567,2.00421285629272,0.37897193431854,0.81044358015060
59,2525061695,-145.36595153808594,-82.33522796630859,-138.27243041992188,9.69596672058105,-0.69607591629028,-1.13702046871185,1.45980238914490,0.32827156782150,0.88187730312347
60,2525078362,-145.33546447753906,-82.32637786865234,-138.30599975585938,9.73972797393799,-0.64605897665024,-1.15720903873444,0.85046327114105,0.22369490563869,0.85050165653229
61,2525095029,-145.30900573730469,-82.31874847412109,-138.32762145996094,9.73485851287842,-0.64724224805832,-1.16427719593048,0.55991280078888,0.29059529304504,0.81196731328964
62,2525111696,-145.28572082519531,-82.31165313720703,-138.36293029785156,9.72739791870117,-0.65980219841003,-1.18145298957825,0.87794572114944,0.26672422885895,0.74583536386490
63,2525128363,-145.25569152832031,-82.30352020263672,-138.38986206054688,9.69606781005859,-0.69322329759598,-1.19086754322052,1.13267672061920,0.23673176765442,0.79307800531387
64,2525145030,-145.22305297851562,-82.29701995849609,-138.42248535156250,9.73466873168945,-0.70036637783051,-1.19539868831635,1.60599970817566,0.29345110058784,0.70189684629440
65,2525161697,-145.19462585449219,-82.29177093505859,-138.44483947753906,9.71729183197021,-0.64893293380737,-1.13430988788605,0.83001148700714,0.39109951257706,0.71988970041275
66,2525178364,-145.19863891601562,-82.28601837158203,-138.46166992187500,9.70075511932373,-0.77992433309555,-1.23632705211639,-0.09894186258316,0.28772667050362,0.62505871057510
67,2525195031,-145.17274475097656,-82.27925109863281,-138.47616577148438,9.67700004577637,-0.74888509511948,-1.20646595954895,1.50027012825012,0.26176816225052,0.67556691169739
68,2525211698,-145.16854858398438,-82.27137756347656,-138.48280334472656,9.66768646240234,-0.64351278543472,-1.15078032016754,1.04244327545166,0.13025979697704,0.62633937597275
69,2525228365,-145.16288757324219,-82.25975036621094,-138.49716186523438,9.70936870574951,-0.65592229366302,-1.12857961654663,0.76770859956741,-0.01911987923086,0.79224568605423
70,2525245032,-145.16816711425781,-82.24485778808594,-138.51179504394531,9.72649669647217,-0.69596695899963,-1.17527341842651,0.78069424629211,-0.22969467937946,0.82833385467529
71,2525261699,-145.17225646972656,-82.23383331298828,-138.51747131347656,9.72685337066650,-0.77296972274780,-1.24582922458649,0.99522632360458,-0.05565639957786,0.68263614177704
72,2525278366,-145.16206359863281,-82.22595214843750,-138.52368164062500,9.69814014434814,-0.72004586458206,-1.23620307445526,1.41354572772980,0.13475482165813,0.62361162900925
73,2525295033,-145.16506958007812,-82.21769714355469,-138.52391052246094,9.71009349822998,-0.71452718973160,-1.20185327529907,0.97278946638107,0.09048325568438,0.59545046091080
74,2525311700,-145.16072082519531,-82.20966339111328,-138.52400207519531,9.72606945037842,-0.69440084695816,-1.19977807998657,1.00890350341797,0.12945298850536,0.63562399148941
75,2525328367,-145.17579650878906,-82.20523071289062,-138.51156616210938,9.71464157104492,-0.72223865985870,-1.25789773464203,0.89264738559723,0.22579514980316,0.39359673857689
76,2525345034,-145.18341064453125,-82.20562744140625,-138.51307678222656,9.72653198242188,-0.78278464078903,-1.26318144798279,0.92326742410660,0.50612616539001,0.26970809698105
77,2525361701,-145.18693542480469,-82.21305847167969,-138.51293945312500,9.75246238708496,-0.70471990108490,-1.25625169277191,0.77704441547394,0.86949348449707,0.08058395236731
78,2525378368,-145.21206665039062,-82.22122955322266,-138.50701904296875,9.74895191192627,-0.67207950353622,-1.23578226566315,-0.08171732723713,0.87848365306854,0.00169684144203
79,2525395035,-145.24029541015625,-82.23400878906250,-138.49929809570312,9.67547702789307,-0.76870274543762,-1.27612471580505,-0.24896824359894,1.09666538238525,-0.15276692807674
80,2525411702,-145.23599243164062,-82.24624633789062,-138.50944519042969,9.67482852935791,-0.79506409168243,-1.24574661254883,1.40435087680817,1.10130143165588,-0.10452543199062
81,2525428369,-145.21730041503906,-82.25707244873047,-138.51493835449219,9.69172286987305,-0.65264624357224,-1.13067865371704,2.00386738777161,1.05410993099213,-0.02940338104963
82,2525445036,-145.22193908691406,-82.26496124267578,-138.50245666503906,9.71413421630859,-0.63321638107300,-1.08854293823242,1.08615136146545,0.86805903911591,0.01981782540679
83,2525461703,-145.24505615234375,-82.27137756347656,-138.49528503417969,9.69911670684814,-0.64801132678986,-1.11182081699371,0.58848381042480,0.74712884426117,0.00379708292894
84,2525478370,-145.25483703613281,-82.28067016601562,-138.49174499511719,9.71636390686035,-0.75639158487320,-1.20651304721832,0.84525120258331,0.93011885881424,-0.03460275754333
85,2525495037,-145.24679565429688,-82.29421234130859,-138.48884582519531,9.75998973846436,-0.67569905519485,-1.25502145290375,1.86883711814880,1.14791643619537,-0.17738075554371
86,2525511704,-145.26058959960938,-82.30920410156250,-138.45858764648438,9.74717330932617,-0.65344756841660,-1.18986809253693,1.35092270374298,1.15808463096619,-0.31499779224396
87,2525528371,-145.29859924316406,-82.32719421386719,-138.42852783203125,9.73448848724365,-0.66830217838287,-1.15897893905640,0.67104631662369,1.24315714836121,-0.49940919876099
88,2525545038,-145.35000610351562,-82.34722137451172,-138.39852905273438,9.70387458801270,-0.69530832767487,-1.18604683876038,0.54829752445221,1.28892719745636,-0.64044553041458
89,2525561705,-145.39663696289062,-82.37197875976562,-138.36497497558594,9.67881965637207,-0.75021910667419,-1.25548291206360,0.49860888719559,1.55608046054840,-0.76817613840103
90,2525578372,-145.42216491699219,-82.39770507812500,-138.34562683105469,9.69839763641357,-0.76907128095627,-1.29073464870453,0.76597976684570,1.68014824390411,-0.68858456611633
91,2525595039,-145.37986755371094,-82.41622924804688,-138.37901306152344,9.65352058410645,-0.72396939992905,-1.22294056415558,1.34326434135437,1.58745586872101,-0.05975442379713
92,2525611706,-145.31538391113281,-82.42630004882812,-138.43795776367188,9.67033290863037,-0.61825084686279,-1.08474719524384,2.18830418586731,1.20550656318665,0.28156682848930
93,2525628373,-145.27037048339844,-82.42733764648438,-138.45919799804688,9.68055152893066,-0.60109585523605,-1.06362140178680,1.91438937187195,0.69313728809357,0.49025914072990
94,2525645040,-145.22616577148438,-82.42355346679688,-138.48217773437500,9.73446083068848,-0.60494971275330,-1.03339254856110,2.03683066368103,0.44649982452393,0.63389515876770
95,2525661707,-145.19248962402344,-82.41677093505859,-138.50244140625000,9.73999691009521,-0.65246081352234,-1.11207354068756,1.48414719104767,0.29092824459076,0.72968667745590
96,2525678374,-145.15805053710938,-82.41154479980469,-138.53338623046875,9.71805572509766,-0.69959163665771,-1.15251827239990,1.42995059490204,0.37258154153824,0.68992286920547
97,2525695041,-145.14082336425781,-82.40449523925781,-138.54489135742188,9.70652484893799,-0.65847253799438,-1.19200479984283,1.42741489410400,0.20682893693447,0.63879990577698
98,2525711708,-145.13478088378906,-82.39635467529297,-138.55656433105469,9.70447826385498,-0.71639299392700,-1.17844974994659,0.33367586135864,0.18398243188858,0.72234857082367
99,2525728375,-145.08860778808594,-82.38588714599609,-138.60995483398438,9.69086170196533,-0.77150207757950,-1.20341622829437,1.45247685909271,0.17316105961800,0.94313001632690
100,2525745042,-145.00665283203125,-82.37391662597656,-138.67730712890625,9.70151424407959,-0.67946320772171,-1.18274843692780,2.14459609985352,0.20545867085457,1.15703451633453
101,2525761709,-144.93034362792969,-82.35904693603516,-138.74319458007812,9.74205589294434,-0.57683956623077,-1.12674462795258,2.03683066368103,0.04765883460641,1.23351395130157
102,2525778376,-144.87680053710938,-82.34562683105469,-138.79483032226562,9.72895240783691,-0.64480334520340,-1.16871118545532,1.24970126152039,0.08197986334562,1.11654090881348
103,2525795043,-144.82887268066406,-82.33271789550781,-138.83779907226562,9.71981811523438,-0.69938975572586,-1.18829369544983,1.28530299663544,0.07596085965633,1.06126856803894
104,2525811710,-144.78356933593750,-82.32273864746094,-138.88031005859375,9.70960903167725,-0.75664079189301,-1.23894536495209,1.45871365070343,0.19270354509354,0.92518842220306
105,2525828377,-144.71810913085938,-82.31732177734375,-138.93324279785156,9.70996379852295,-0.69315415620804,-1.22452187538147,1.73430633544922,0.49123239517212,0.87087655067444
106,2525845044,-144.66294860839844,-82.31265258789062,-138.98362731933594,9.73814201354980,-0.70721358060837,-1.20355963706970,1.52835452556610,0.49685433506966,0.79862320423126
107,2525861711,-144.61656188964844,-82.30999755859375,-139.02026367187500,9.75466060638428,-0.73586297035217,-1.16121578216553,1.57710850238800,0.54924517869949,0.66626965999603
108,2525878378,-144.58653259277344,-82.30583953857422,-139.04760742187500,9.68188476562500,-0.71855604648590,-1.12110304832458,1.45816302299500,0.40845212340355,0.62345796823502
109,2525895045,-144.59649658203125,-82.30130004882812,-139.04611206054688,9.67082881927490,-0.66122394800186,-1.12248218059540,0.81255650520325,0.25702983140945,0.44160774350166
110,2525911712,-144.63075256347656,-82.29706573486328,-139.03097534179688,9.73524761199951,-0.66753482818604,-1.17098617553711,0.05466390401125,0.21534514427185,0.35519045591354
111,2525928379,-144.66387939453125,-82.29543304443359,-139.00718688964844,9.73682785034180,-0.68549817800522,-1.23275780677795,-0.01102626696229,0.35020881891251,0.28000441193581
112,2525945046,-144.69978332519531,-82.29744720458984,-138.96882629394531,9.71918392181396,-0.72499018907547,-1.20158779621124,0.46632403135300,0.48103854060173,0.08064799010754
113,2525961713,-144.75416564941406,-82.30506896972656,-138.92855834960938,9.69257164001465,-0.74272942543030,-1.20428895950317,0.60038083791733,0.65907233953476,-0.25019764900208
114,2525978380,-144.83105468750000,-82.31431579589844,-138.86109924316406,9.70091533660889,-0.71942150592804,-1.17765700817108,0.32393020391464,0.64997982978821,-0.42099598050117
115,2525995047,-144.92361450195312,-82.31972503662109,-138.78878784179688,9.69912147521973,-0.66315031051636,-1.14313125610352,-0.16426703333855,0.42835316061974,-0.33738327026367
116,2526011714,-145.01972961425781,-82.32064056396484,-138.70915222167969,9.69769096374512,-0.70178419351578,-1.14511585235596,-0.24341028928757,0.20777660608292,-0.20368497073650
117,2526028381,-145.09330749511719,-82.31722259521484,-138.64997863769531,9.73084926605225,-0.71147215366364,-1.16822886466980,0.36307919025421,0.04215209931135,0.03453231975436
118,2526045048,-145.14714050292969,-82.31227111816406,-138.59158325195312,9.73798179626465,-0.71061789989471,-1.18755280971527,1.12608158588409,0.01113512087613,0.12529093027115
119,2526061715,-145.18644714355469,-82.30616760253906,-138.55180358886719,9.70094203948975,-0.67672258615494,-1.20198047161102,1.26118862628937,0.00188893650193,0.25176644325256
120,2526078382,-145.20465087890625,-82.30170440673828,-138.53015136718750,9.71322250366211,-0.71590793132782,-1.17379820346832,1.54281294345856,0.16388927400112,0.30136543512344
121,2526095049,-145.21275329589844,-82.29727172851562,-138.50889587402344,9.71084403991699,-0.69107037782669,-1.21224141120911,1.87595736980438,0.18243284523487,0.33226713538170
122,2526111716,-145.22177124023438,-82.29289245605469,-138.49725341796875,9.69513511657715,-0.72673231363297,-1.21888220310211,1.53094160556793,0.20740523934364,0.36319449543953
123,2526128383,-145.21345520019531,-82.29156494140625,-138.50238037109375,9.74081134796143,-0.69027912616730,-1.20589745044708,1.22828888893127,0.46449267864227,0.40614697337151
124,2526145050,-145.20225524902344,-82.29352569580078,-138.51441955566406,9.72734355926514,-0.69116795063019,-1.26040685176849,0.47696608304977,0.69566011428833,0.39746430516243
125,2526161717,-145.17364501953125,-82.29691314697266,-138.55218505859375,9.74372386932373,-0.70865738391876,-1.27638375759125,0.57453757524490,0.84581458568573,0.44982942938805
126,2526178384,-145.15805053710938,-82.30527496337891,-138.57731628417969,9.72022914886475,-0.69419515132904,-1.22955429553986,0.13347420096397,1.05076754093170,0.24860331416130
127,2526195051,-145.13085937500000,-82.31336212158203,-138.64445495605469,9.69194602966309,-0.69210112094879,-1.19103884696960,-0.17050376534462,1.12573575973511,0.36412936449051
128,2526211718,-145.11500549316406,-82.32033538818359,-138.69235229492188,9.66919612884521,-0.69608664512634,-1.20478045940399,-0.79135560989380,1.06002652645111,0.39757952094078
129,2526228385,-145.09646606445312,-82.32775115966797,-138.74313354492188,9.67061710357666,-0.68038356304169,-1.18887948989868,-0.90909725427628,1.10708975791931,0.41016820073128
130,2526245052,-145.05259704589844,-82.33538055419922,-138.82066345214844,9.68717575073242,-0.64856994152069,-1.18521499633789,-0.27395343780518,1.18511879444122,0.50069624185562
131,2526261719,-145.00224304199219,-82.33896636962891,-138.88880920410156,9.68752098083496,-0.65428233146667,-1.17159008979797,-0.29368799924850,1.02286231517792,0.67970341444016
132,2526278386,-144.92276000976562,-82.33733367919922,-138.98382568359375,9.70018672943115,-0.65640717744827,-1.14881706237793,0.47190758585930,0.83474993705750,0.97328907251358
133,2526295053,-144.83500671386719,-82.32591247558594,-139.08322143554688,9.73536396026611,-0.60147362947464,-1.06259751319885,0.59788364171982,0.38775706291199,1.34991097450256
134,2526311720,-144.77046203613281,-82.30696105957031,-139.16720581054688,9.72467327117920,-0.65349739789963,-1.04845809936523,-0.10969918966293,-0.03305318206549,1.53637135028839
135,2526328387,-144.74761962890625,-82.28375244140625,-139.22410583496094,9.72451591491699,-0.67765122652054,-1.12831997871399,-0.94766998291016,-0.37349721789360,1.50408673286438
136,2526345054,-144.72242736816406,-82.25975036621094,-139.28793334960938,9.75974845886230,-0.74315524101257,-1.20477771759033,-0.71665620803833,-0.41004654765129,1.51805841922760
137,2526361721,-144.70657348632812,-82.23833465576172,-139.31405639648438,9.68288135528564,-0.73560440540314,-1.18233978748322,-0.02790503762662,-0.39074736833572,1.29680299758911
138,2526378388,-144.69888305664062,-82.21288299560547,-139.32543945312500,9.64164352416992,-0.75191962718964,-1.11577570438385,0.14215686917305,-0.63254398107529,1.35938763618469
139,2526395055,-144.70904541015625,-82.18128967285156,-139.34144592285156,9.72111129760742,-0.71137624979019,-1.10144126415253,-0.36847707629204,-0.97681707143784,1.51127088069916
140,2526411722,-144.72369384765625,-82.14527130126953,-139.35159301757812,9.74906635284424,-0.65363556146622,-1.18791258335114,-0.61859798431396,-1.19519102573395,1.66187369823456
141,2526428389,-144.72575378417969,-82.10780334472656,-139.37240600585938,9.76507949829102,-0.64836257696152,-1.19852781295776,-0.51056361198425,-1.21725642681122,1.78687655925751
142,2526445056,-144.72038269042969,-82.07422637939453,-139.41055297851562,9.75463676452637,-0.65895891189575,-1.19800293445587,-1.03500926494598,-0.94555687904358,1.76245450973511
143,2526461723,-144.71229553222656,-82.04223632812500,-139.46389770507812,9.73401546478271,-0.74568891525269,-1.29073047637939,-1.58894777297974,-0.80920749902725,1.79014194011688
144,2526478390,-144.69210815429688,-82.01121520996094,-139.51757812500000,9.68407917022705,-0.76714050769806,-1.28306686878204,-0.93689984083176,-0.75528013706207,1.76820480823517
145,2526495057,-144.68516540527344,-81.98933410644531,-139.56300354003906,9.66025924682617,-0.79773139953613,-1.32552099227905,-1.38965535163879,-0.33935546875000,1.41642701625824
146,2526511724,-144.66236877441406,-81.97068023681641,-139.61056518554688,9.64160156250000,-0.79190886020660,-1.34998559951782,-0.62996989488602,-0.15795351564884,1.32236444950104
147,2526528391,-144.61029052734375,-81.95587921142578,-139.67012023925781,9.67599201202393,-0.79989391565323,-1.30727660655975,0.68974369764328,0.06583104282618,1.24177432060242
148,2526545058,-144.54208374023438,-81.93881225585938,-139.73892211914062,9.69381332397461,-0.72914052009583,-1.22747862339020,1.07004117965698,0.00336166704074,1.39122438430786
149,2526561725,-144.46469116210938,-81.92182922363281,-139.81799316406250,9.72107791900635,-0.71062463521957,-1.24628531932831,0.86776471138000,0.07215738296509,1.47624564170837
150,2526578392,-144.37280273437500,-81.90454101562500,-139.91300964355469,9.72814273834229,-0.71622866392136,-1.21228647232056,1.32417023181915,0.09632295370102,1.53619217872620
151,2526595059,-144.28875732421875,-81.88255310058594,-139.99215698242188,9.71683216094971,-0.72581958770752,-1.18312478065491,1.73225748538971,-0.20276293158531,1.60036480426788
152,2526611726,-144.21611022949219,-81.85652923583984,-140.04592895507812,9.68586349487305,-0.77091401815414,-1.14167082309723,2.42259597778320,-0.51344490051270,1.58543229103088
153,2526628393,-144.15298461914062,-81.82614898681641,-140.10086059570312,9.65857601165771,-0.73769211769104,-1.14828991889954,2.05271053314209,-0.74073207378387,1.71910500526428
154,2526645060,-144.12182617187500,-81.78986358642578,-140.14482116699219,9.67343902587891,-0.74581450223923,-1.17545711994171,0.59441316127777,-1.06027626991272,1.87290966510773
155,2526661727,-144.09977722167969,-81.75569152832031,-140.18733215332031,9.69024562835693,-0.79569298028946,-1.27988839149475,0.25560832023621,-0.97580534219742,1.77716910839081
156,2526678394,-144.05795288085938,-81.72735595703125,-140.22984313964844,9.70886516571045,-0.78952085971832,-1.37565565109253,0.97199535369873,-0.65250903367996,1.62999832630157
157,2526695061,-143.99868774414062,-81.70535278320312,-140.27763366699219,9.71248054504395,-0.79402250051498,-1.36803197860718,1.50876092910767,-0.29293245077133,1.46395134925842
158,2526711728,-143.93714904785156,-81.68275451660156,-140.34291076660156,9.66892433166504,-0.79738044738770,-1.26679110527039,1.43134653568268,-0.30885076522827,1.51831448078156
159,2526728395,-143.88760375976562,-81.65790557861328,-140.40763854980469,9.66551780700684,-0.80944979190826,-1.24294245243073,1.07436931133270,-0.44535353779793,1.55451762676239
160,2526745062,-143.83489990234375,-81.63379669189453,-140.46475219726562,9.71765041351318,-0.79617530107498,-1.28780722618103,1.37379467487335,-0.41890850663185,1.51912117004395
161,2526761729,-143.79652404785156,-81.61405181884766,-140.49546813964844,9.71856307983398,-0.81428200006485,-1.32467448711395,1.65135943889618,-0.29920750856400,1.22759735584259
162,2526778396,-143.74272155761719,-81.59594726562500,-140.54248046875000,9.73083877563477,-0.79519075155258,-1.24710428714752,1.80711054801941,-0.15189611911774,1.26312243938446
163,2526795063,-143.69287109375000,-81.57570648193359,-140.59136962890625,9.71275138854980,-0.76639729738235,-1.22667324542999,1.49478900432587,-0.25242593884468,1.35175490379333
164,2526811730,-143.65623474121094,-81.55538177490234,-140.62614440917969,9.70658397674561,-0.78784841299057,-1.27192437648773,0.97154736518860,-0.27469620108604,1.32084071636200
165,2526828397,-143.62823486328125,-81.53596496582031,-140.65895080566406,9.68666172027588,-0.81681984663010,-1.29491972923279,1.00690579414368,-0.28117623925209,1.22471606731415
166,2526845064,-143.60020446777344,-81.52122497558594,-140.68998718261719,9.65973663330078,-0.82328134775162,-1.31900525093079,1.07220518589020,-0.06441593915224,1.05476295948029
167,2526861731,-143.57109069824219,-81.50696563720703,-140.72180175781250,9.68439674377441,-0.83706343173981,-1.32622456550598,1.09396326541901,-0.02429364435375,1.03556632995605
168,2526878398,-143.51484680175781,-81.49259185791016,-140.76721191406250,9.68575668334961,-0.83461123704910,-1.32668626308441,1.56997513771057,0.06314170360565,1.18499064445496
169,2526895065,-143.46102905273438,-81.47585296630859,-140.81283569335938,9.67611217498779,-0.80735141038895,-1.25346636772156,1.64204919338226,-0.06679791957140,1.24373340606689
170,2526911732,-143.40728759765625,-81.45799255371094,-140.83857727050781,9.65718364715576,-0.80975037813187,-1.22154796123505,1.73184764385223,-0.12374776601791,1.26979434490204
171,2526928399,-143.34986877441406,-81.43966674804688,-140.88549804687500,9.69557285308838,-0.80823230743408,-1.23192751407623,2.06593966484070,-0.16095022857189,1.27893817424774
172,2526945066,-143.29017639160156,-81.41981506347656,-140.92720031738281,9.71502685546875,-0.79786401987076,-1.29767477512360,2.28351926803589,-0.23886401951313,1.32364499568939
173,2526961733,-143.25570678710938,-81.39920043945312,-140.95634460449219,9.69430923461914,-0.80753195285797,-1.27378261089325,1.67767679691315,-0.35050982236862,1.23986601829529
174,2526978400,-143.23590087890625,-81.37696075439453,-140.98251342773438,9.69820117950439,-0.81286585330963,-1.24929642677307,1.11121344566345,-0.46230927109718,1.26495373249054
175,2526995067,-143.22651672363281,-81.35614776611328,-141.00608825683594,9.72177600860596,-0.83243674039841,-1.30842161178589,0.51986730098724,-0.39627966284752,1.21071863174438
176,2527011734,-143.20574951171875,-81.33662414550781,-141.03234863281250,9.70072364807129,-0.84799104928970,-1.31383156776428,0.77850443124771,-0.29001259803772,1.21228110790253
177,2527028401,-143.18185424804688,-81.31925201416016,-141.06918334960938,9.66345214843750,-0.79176110029221,-1.34107077121735,0.44459167122841,-0.14145892858505,1.20204877853394
178,2527045068,-143.15859985351562,-81.30279541015625,-141.09419250488281,9.65745162963867,-0.87448745965958,-1.31616437435150,0.60873055458069,-0.11488575488329,1.14329314231873
179,2527061735,-143.13050842285156,-81.28458404541016,-141.12312316894531,9.67926311492920,-0.85937261581421,-1.26934623718262,0.96931910514832,-0.20600295066833,1.20016622543335
180,2527078402,-143.12156677246094,-81.26457214355469,-141.15937805175781,9.71140956878662,-0.83484512567520,-1.26916968822479,0.34584185481071,-0.33935546875000,1.20166456699371
181,2527095069,-143.11811828613281,-81.24585723876953,-141.17189025878906,9.70320796966553,-0.84844636917114,-1.28796482086182,0.31401807069778,-0.30171760916710,1.11583638191223
182,2527111736,-143.11317443847656,-81.22850799560547,-141.19137573242188,9.70541095733643,-0.80959612131119,-1.30574572086334,0.21214358508587,-0.22304821014404,1.09473168849945
183,2527128403,-143.09606933593750,-81.21456909179688,-141.23257446289062,9.70906352996826,-0.84245759248734,-1.40524506568909,-0.13606745004654,0.04325344413519,1.10364484786987
184,2527145070,-143.05639648437500,-81.20225524902344,-141.27915954589844,9.70401763916016,-0.85625904798508,-1.37392818927765,0.79511415958405,0.16201953589916,1.09784340858459
185,2527161737,-143.00579833984375,-81.18766784667969,-141.33454895019531,9.67369556427002,-0.86106663942337,-1.30613219738007,1.24944519996643,0.07062062621117,1.20694088935852
186,2527178404,-142.97709655761719,-81.17021179199219,-141.37545776367188,9.67570686340332,-0.86498779058456,-1.26497626304626,0.63874870538712,-0.12990762293339,1.22421669960022
187,2527195071,-142.96058654785156,-81.15220642089844,-141.40505981445312,9.68472385406494,-0.85211962461472,-1.27058005332947,-0.06072771176696,-0.15489280223846,1.23731744289398
188,2527211738,-142.96592712402344,-81.13288879394531,-141.42771911621094,9.71574211120605,-0.83865231275558,-1.29724264144897,-0.66277980804443,-0.29125481843948,1.20151090621948
189,2527228405,-142.96600341796875,-81.11643981933594,-141.46513366699219,9.69735145568848,-0.82702344655991,-1.37644863128662,-0.70086586475372,-0.11801051348448,1.14215350151062
190,2527245072,-142.93836975097656,-81.10317993164062,-141.51919555664062,9.66850948333740,-0.85023355484009,-1.39905071258545,-0.20605419576168,0.14857287704945,1.17101907730103
191,2527261739,-142.88514709472656,-81.09095764160156,-141.57482910156250,9.66297435760498,-0.88281613588333,-1.36748397350311,0.40627503395081,0.28367987275124,1.25072562694550
192,2527278406,-142.83300781250000,-81.07438659667969,-141.62875366210938,9.65303325653076,-0.87794864177704,-1.26256811618805,0.52697485685349,0.06213000416756,1.38493621349335
193,2527295073,-142.79576110839844,-81.05315399169922,-141.67691040039062,9.66955280303955,-0.85403031110764,-1.24948668479919,0.66770386695862,-0.25542265176773,1.42463600635529
194,2527311740,-142.76139831542969,-81.02884674072266,-141.72454833984375,9.66982746124268,-0.82898896932602,-1.24961805343628,0.63753217458725,-0.42025318741798,1.52347552776337
195,2527328407,-142.73754882812500,-81.00237274169922,-141.76602172851562,9.69274139404297,-0.84680998325348,-1.33764243125916,-0.07081912457943,-0.51312482357025,1.61130142211914
196,2527345074,-142.72186279296875,-80.97457122802734,-141.79493713378906,9.71296787261963,-0.84442371129990,-1.32053136825562,-0.17033724486828,-0.61314237117767,1.61213362216949
197,2527361741,-142.70933532714844,-80.95020294189453,-141.83940124511719,9.70760631561279,-0.89519369602203,-1.33736312389374,-0.31349945068359,-0.45408758521080,1.48430073261261
198,2527378408,-142.70610046386719,-80.92642974853516,-141.87699890136719,9.71640872955322,-0.89338594675064,-1.36083304882050,-0.62538528442383,-0.44397056102753,1.42939996719360
199,2527395075,-142.71801757812500,-80.90473937988281,-141.90197753906250,9.70602226257324,-0.87753927707672,-1.33684229850769,-1.09546804428101,-0.38503575325012,1.29690539836884
200,2527411742,-142.72517395019531,-80.88173675537109,-141.92097473144531,9.67094326019287,-0.92000550031662,-1.34088957309723,-0.64604187011719,-0.47291290760040,1.33093190193176
201,2527428409,-142.72763061523438,-80.85841369628906,-141.95210266113281,9.66116619110107,-0.87498152256012,-1.31086218357086,-0.50097167491913,-0.47120967507362,1.35756921768188
202,2527445076,-142.73049926757812,-80.83532714843750,-141.96710205078125,9.65988445281982,-0.88587832450867,-1.33919775485992,0.01054602861404,-0.50765651464462,1.27792644500732
203,2527461743,-142.75534057617188,-80.81068420410156,-141.96737670898438,9.66972923278809,-0.89783930778503,-1.33734905719757,-0.46348747611046,-0.66893965005875,1.22854518890381
204,2527478410,-142.79605102539062,-80.78761291503906,-141.95030212402344,9.68740844726562,-0.90305227041245,-1.35607910156250,-0.59771078824997,-0.67014342546463,1.06414997577667
205,2527495077,-142.84777832031250,-80.76294708251953,-141.92747497558594,9.65873336791992,-0.89831453561783,-1.35629081726074,-0.86271262168884,-0.78555428981781,1.06791508197784
206,2527511744,-142.91906738281250,-80.73462677001953,-141.89482116699219,9.64000797271729,-0.91880989074707,-1.36781704425812,-0.79054886102676,-1.09193360805511,1.04246890544891
207,2527528411,-142.98490905761719,-80.70333099365234,-141.84843444824219,9.64545249938965,-0.91679716110229,-1.36420559883118,-0.17524211108685,-1.25522732734680,1.10276126861572
208,2527545078,-143.03236389160156,-80.67073059082031,-141.82301330566406,9.69752597808838,-0.86052012443542,-1.37587833404541,-0.45900508761406,-1.18719971179962,1.33166170120239
209,2527561745,-143.07412719726562,-80.64199829101562,-141.81857299804688,9.69634437561035,-0.87171053886414,-1.38935267925262,-0.52841567993164,-0.96451032161713,1.24661493301392
210,2527578412,-143.10127258300781,-80.61728668212891,-141.83317565917969,9.68517017364502,-0.90706217288971,-1.46416676044464,-0.68694537878036,-0.66390675306320,1.23405182361603
211,2527595079,-143.14025878906250,-80.59960174560547,-141.83291625976562,9.66722393035889,-0.94182848930359,-1.48652505874634,-0.83743274211884,-0.38613700866699,0.90768200159073
212,2527611746,-143.16635131835938,-80.58608245849609,-141.83128356933594,9.63966274261475,-0.97123712301254,-1.46919178962708,-0.18667817115784,-0.17147700488567,0.77228045463562
213,2527628413,-143.18670654296875,-80.57126617431641,-141.82360839843750,9.64362239837646,-0.95679152011871,-1.41186976432800,0.34009182453156,-0.25255399942398,0.79408967494965
214,2527645080,-143.19335937500000,-80.55167388916016,-141.82804870605469,9.63697052001953,-0.90021282434464,-1.36399435997009,0.67641222476959,-0.43968042731285,1.03303074836731
215,2527661747,-143.19567871093750,-80.53224182128906,-141.83724975585938,9.68108844757080,-0.90116643905640,-1.41479873657227,0.93626588582993,-0.42734792828560,1.02597439289093
216,2527678414,-143.21229553222656,-80.51197814941406,-141.82406616210938,9.68553447723389,-0.86385136842728,-1.39410388469696,0.25047299265862,-0.48644918203354,1.03283846378326
217,2527695081,-143.23268127441406,-80.49560546875000,-141.83004760742188,9.68082714080811,-0.90958166122437,-1.44649004936218,-0.34615561366081,-0.25993049144745,0.94175970554352
218,2527711748,-143.25616455078125,-80.48308563232422,-141.82637023925781,9.66876316070557,-0.96549016237259,-1.45486187934875,0.08986856043339,-0.13998620212078,0.72064530849457
219,2527728415,-143.26312255859375,-80.47081756591797,-141.82560729980469,9.64348125457764,-0.95259433984756,-1.43751323223114,0.79487097263336,-0.09338390082121,0.74650138616562
220,2527745082,-143.25605773925781,-80.45964050292969,-141.83074951171875,9.65324497222900,-0.92922478914261,-1.44547128677368,0.92667394876480,0.02451775595546,0.80611491203308
221,2527761749,-143.26098632812500,-80.45006561279297,-141.83125305175781,9.64361572265625,-0.92874145507812,-1.48819005489349,0.67478573322296,0.05691782012582,0.68421119451523
222,2527778416,-143.27684020996094,-80.43992614746094,-141.83622741699219,9.63801479339600,-0.93315404653549,-1.47317206859589,0.32075423002243,-0.00644159363583,0.66775500774384
223,2527795083,-143.27185058593750,-80.43486785888672,-141.85328674316406,9.62434864044189,-0.95454144477844,-1.45414233207703,0.68190610408783,0.33276659250259,0.60241711139679
224,2527811750,-143.25288391113281,-80.42996215820312,-141.86770629882812,9.66013431549072,-0.93281483650208,-1.43201565742493,1.57878613471985,0.33616030216217,0.58756178617477
225,2527828417,-143.21499633789062,-80.42422485351562,-141.89984130859375,9.64002132415771,-0.92258316278458,-1.46267366409302,1.72194814682007,0.39755389094353,0.75159823894501
226,2527845084,-143.16841125488281,-80.41999816894531,-141.92787170410156,9.67318820953369,-0.95542973279953,-1.44898986816406,1.96183669567108,0.49549692869186,0.73779302835464
227,2527861751,-143.12930297851562,-80.41856384277344,-141.95207214355469,9.67001724243164,-0.93720120191574,-1.47142410278320,1.99056148529053,0.58069759607315,0.57314181327820
228,2527878418,-143.08152770996094,-80.42092132568359,-141.98562622070312,9.64159297943115,-0.95713448524475,-1.47896897792816,2.04418182373047,0.80966234207153,0.49958214163780
229,2527895085,-143.04545593261719,-80.42408752441406,-142.00785827636719,9.62762355804443,-0.95622920989990,-1.42652368545532,1.98743677139282,0.78179562091827,0.38354375958443
230,2527911752,-143.03193664550781,-80.42624664306641,-142.01435852050781,9.65790843963623,-0.91807889938354,-1.40203857421875,1.64964365959167,0.63938903808594,0.27848049998283
231,2527928419,-143.01701354980469,-80.42792510986328,-142.03370666503906,9.68020820617676,-0.91802024841309,-1.45146906375885,1.29401111602783,0.65831679105759,0.35661202669144
232,2527945086,-142.97894287109375,-80.43264770507812,-142.06248474121094,9.70461750030518,-0.94702309370041,-1.44896638393402,1.66440916061401,0.89862781763077,0.38875591754913
233,2527961753,-142.93399047851562,-80.43614196777344,-142.08343505859375,9.64753341674805,-0.92907983064651,-1.46461153030396,2.32998085021973,0.81929260492325,0.39503106474876
234,2527978420,-142.88116455078125,-80.43860626220703,-142.12724304199219,9.67377853393555,-0.90875709056854,-1.40022993087769,2.20829486846924,0.83008837699890,0.51348984241486
235,2527995087,-142.82873535156250,-80.43943023681641,-142.17059326171875,9.68371009826660,-0.91134005784988,-1.35003352165222,1.86302316188812,0.78749454021454,0.61279034614563
236,2528011754,-142.79612731933594,-80.43881988525391,-142.19869995117188,9.71480751037598,-0.89392149448395,-1.40765488147736,1.11865389347076,0.67190432548523,0.60615652799606
237,2528028421,-142.75352478027344,-80.43877410888672,-142.22889709472656,9.67100906372070,-0.90959697961807,-1.43603050708771,1.35431635379791,0.73734480142593,0.63313955068588
238,2528045088,-142.70001220703125,-80.44194030761719,-142.27738952636719,9.62720108032227,-0.92939716577530,-1.45835888385773,1.53788244724274,0.93876296281815,0.57994192838669
239,2528061755,-142.63937377929688,-80.44786834716797,-142.32966613769531,9.66974830627441,-0.96762156486511,-1.46070170402527,1.72732675075531,1.09453952312469,0.51138961315155
240,2528078422,-142.55833435058594,-80.45416259765625,-142.38510131835938,9.66163635253906,-0.93063217401505,-1.42650938034058,2.10136198997498,1.19745147228241,0.61099737882614
241,2528095089,-142.47177124023438,-80.46138000488281,-142.45683288574219,9.65842628479004,-0.93626368045807,-1.46268784999847,2.12910056114197,1.27419984340668,0.61665779352188
242,2528111756,-142.38665771484375,-80.47028350830078,-142.52449035644531,9.64515304565430,-0.91064709424973,-1.43828749656677,2.24116897583008,1.33122646808624,0.52688527107239
243,2528128423,-142.32025146484375,-80.48130035400391,-142.56970214843750,9.65327644348145,-0.93844246864319,-1.40233230590820,1.96593487262726,1.34777247905731,0.33402165770531
244,2528145090,-142.25514221191406,-80.49153137207031,-142.63529968261719,9.65831089019775,-0.91141211986542,-1.37942218780518,1.42818307876587,1.35740232467651,0.42269271612167
245,2528161757,-142.19111633300781,-80.49990844726562,-142.69743347167969,9.65030479431152,-0.95867455005646,-1.37863433361053,1.04228973388672,1.30040180683136,0.53299391269684
246,2528178424,-142.12452697753906,-80.50976562500000,-142.75663757324219,9.67891311645508,-0.96846538782120,-1.38908970355988,1.83126342296600,1.30617725849152,0.39253386855125
247,2528195091,-142.07286071777344,-80.51564788818359,-142.79791259765625,9.69808292388916,-0.93642503023148,-1.34636378288269,1.94929945468903,1.01595985889435,0.40235629677773
248,2528211758,-142.01902770996094,-80.52201080322266,-142.84457397460938,9.66208839416504,-0.91114395856857,-1.36539196968079,1.63804090023041,1.08253979682922,0.44273471832275
249,2528228425,-141.96673583984375,-80.52456665039062,-142.87498474121094,9.66241836547852,-0.95548117160797,-1.35809385776520,1.64575016498566,0.89006036520004,0.57093900442123
250,2528245092,-141.92156982421875,-80.52561950683594,-142.90921020507812,9.66944599151611,-0.94099569320679,-1.35590374469757,1.47409427165985,0.79375684261322,0.59227448701859
251,2528261759,-141.89710998535156,-80.52706909179688,-142.92387390136719,9.66781997680664,-0.95581370592117,-1.43348157405853,1.35181903839111,0.70074415206909,0.42743104696274
252,2528278426,-141.85847473144531,-80.53230285644531,-142.95181274414062,9.66445159912109,-0.98431414365768,-1.42570948600769,1.54127621650696,0.93858367204666,0.37954816222191
253,2528295093,-141.82443237304688,-80.54093933105469,-142.98219299316406,9.66615962982178,-0.98017394542694,-1.44708943367004,1.58764803409576,1.07041227817535,0.20871147513390
254,2528311760,-141.78088378906250,-80.55402374267578,-143.00994873046875,9.68396759033203,-0.97670620679855,-1.39228045940399,2.31648278236389,1.26871860027313,0.01933118514717
255,2528328427,-141.74252319335938,-80.56701660156250,-143.02995300292969,9.64620971679688,-0.95427721738815,-1.37345659732819,1.90656471252441,1.26841139793396,0.03800284489989
256,2528345094,-141.72486877441406,-80.57948303222656,-143.03981018066406,9.66686725616455,-0.95320343971252,-1.33058393001556,1.62710428237915,1.14589285850525,-0.07092156261206
257,2528361761,-141.70767211914062,-80.59324645996094,-143.03727722167969,9.68035888671875,-0.92959350347519,-1.38043224811554,1.48815548419952,1.21797990798950,-0.10453822463751
258,2528378428,-141.70066833496094,-80.60614776611328,-143.03565979003906,9.67325973510742,-0.95817530155182,-1.36315584182739,1.56409704685211,1.10730743408203,-0.16142402589321
259,2528395095,-141.69328308105469,-80.61996459960938,-143.02906799316406,9.67659282684326,-0.97347009181976,-1.39890980720520,1.67484629154205,1.13899028301239,-0.20673289895058
260,2528411762,-141.70362854003906,-80.63346862792969,-143.02117919921875,9.65357112884521,-0.91966944932938,-1.34672713279724,1.01954543590546,1.08955788612366,-0.25123497843742
261,2528428429,-141.72378540039062,-80.64804840087891,-143.00601196289062,9.65154552459717,-0.97963249683380,-1.36531186103821,0.97226452827454,1.07645714282990,-0.35631108283997
262,2528445096,-141.73037719726562,-80.66384124755859,-142.99130249023438,9.65371036529541,-0.93907552957535,-1.34714472293854,1.57905459403992,1.16021025180817,-0.37745428085327
263,2528461763,-141.74568176269531,-80.67814636230469,-142.96360778808594,9.67175483703613,-0.94768548011780,-1.35599291324615,1.89533352851868,1.00374257564545,-0.42907679080963
264,2528478430,-141.76770019531250,-80.69027709960938,-142.94168090820312,9.67846584320068,-0.92855292558670,-1.35152387619019,1.62830805778503,0.88688451051712,-0.36402049660683
265,2528495097,-141.79762268066406,-80.70348358154297,-142.90002441406250,9.66208457946777,-0.94077068567276,-1.34614241123199,1.51821196079254,0.90213686227798,-0.45278128981590
266,2528511764,-141.82212829589844,-80.71710205078125,-142.87663269042969,9.69371414184570,-0.94477647542953,-1.36156249046326,1.86823523044586,0.91919499635696,-0.46759828925133
267,2528528431,-141.84242248535156,-80.73322296142578,-142.84008789062500,9.69606781005859,-0.94527989625931,-1.38741230964661,2.40060758590698,1.01346242427826,-0.59924751520157
268,2528545098,-141.84666442871094,-80.75052642822266,-142.81245422363281,9.68879032135010,-0.93474406003952,-1.42564249038696,2.62963652610779,1.13628804683685,-0.54414176940918
269,2528561765,-141.87144470214844,-80.76801300048828,-142.76083374023438,9.65560245513916,-0.92975276708603,-1.36222267150879,2.55081367492676,1.03792273998260,-0.70349127054214
270,2528578432,-141.91415405273438,-80.78510284423828,-142.70301818847656,9.62439727783203,-0.92205643653870,-1.29264819622040,2.05323576927185,0.95933008193970,-0.76081240177155
271,2528595099,-141.98564147949219,-80.79642486572266,-142.63456726074219,9.70891761779785,-0.87296807765961,-1.25516808032990,1.22145044803619,0.59579616785049,-0.65664553642273
272,2528611766,-142.03282165527344,-80.80585479736328,-142.59452819824219,9.73570537567139,-0.86365687847137,-1.41246986389160,0.85440760850906,0.69030708074570,-0.35368576645851
273,2528628433,-142.05917358398438,-80.82157135009766,-142.57638549804688,9.68472671508789,-0.90738457441330,-1.46005511283875,0.67409425973892,1.13809394836426,-0.40815117955208
274,2528645100,-142.06422424316406,-80.84264373779297,-142.55404663085938,9.67505168914795,-0.98995202779770,-1.41077315807343,1.88023471832275,1.39273536205292,-0.59157663583755
275,2528661767,-142.06546020507812,-80.86457824707031,-142.54179382324219,9.67363452911377,-0.94639718532562,-1.36375832557678,2.05790996551514,1.43812084197998,-0.61579334735870
276,2528678434,-142.06443786621094,-80.88577270507812,-142.53955078125000,9.67199039459229,-0.87306845188141,-1.32747244834900,1.45580673217773,1.47510588169098,-0.49395373463631
277,2528695101,-142.08660888671875,-80.90353393554688,-142.52157592773438,9.65009498596191,-0.89696800708771,-1.30529975891113,1.18213486671448,1.20723533630371,-0.51087087392807
278,2528711768,-142.09985351562500,-80.91864776611328,-142.49861145019531,9.70816612243652,-0.84587872028351,-1.31226825714111,1.47529792785645,1.10623168945312,-0.38315317034721
279,2528728435,-142.09802246093750,-80.93096160888672,-142.48161315917969,9.71519088745117,-0.85654592514038,-1.29035067558289,2.10593366622925,0.99598193168640,-0.24214248359203
280,2528745102,-142.09751892089844,-80.94427490234375,-142.47105407714844,9.70459270477295,-0.87584745883942,-1.31684994697571,2.09348583221436,1.04001009464264,-0.28821972012520
281,2528761769,-142.10694885253906,-80.95536804199219,-142.46553039550781,9.65749454498291,-0.91500896215439,-1.34360861778259,1.85871994495392,0.89780831336975,-0.25062024593353
282,2528778436,-142.12390136718750,-80.96547698974609,-142.43499755859375,9.61693859100342,-0.92322158813477,-1.40766286849976,1.38620412349701,0.85969662666321,-0.21613276004791
283,2528795103,-142.15177917480469,-80.97644042968750,-142.41744995117188,9.65911769866943,-0.86879050731659,-1.38312387466431,0.76140791177750,0.89246815443039,-0.24863529205322
284,2528811770,-142.15983581542969,-80.98834228515625,-142.40666198730469,9.67460155487061,-0.92348039150238,-1.32204830646515,1.29123222827911,1.00156545639038,-0.19884419441223
285,2528828437,-142.16603088378906,-80.99924468994141,-142.39433288574219,9.73648262023926,-0.88424879312515,-1.29712867736816,1.25171184539795,0.97312247753143,-0.14510874450207
286,2528845104,-142.18183898925781,-81.01046752929688,-142.38500976562500,9.68731784820557,-0.86251652240753,-1.32643783092499,0.70973438024521,0.98023015260696,-0.15914452075958
287,2528861771,-142.19952392578125,-81.02561187744141,-142.38647460937500,9.64881134033203,-0.87564682960510,-1.39930772781372,0.02381340786815,1.22184729576111,-0.23157721757889
288,2528878438,-142.19252014160156,-81.03855895996094,-142.39863586425781,9.66289615631104,-0.90870678424835,-1.47840082645416,-0.23205104470253,1.28567421436310,0.06612558662891
289,2528895105,-142.08169555664062,-81.04722595214844,-142.49009704589844,9.60920810699463,-1.02519905567169,-1.44214439392090,1.80238497257233,1.48934650421143,0.74411940574646
290,2528911772,-141.93646240234375,-81.05101776123047,-142.60275268554688,9.60013866424561,-0.92202973365784,-1.38500869274139,2.39853334426880,1.40191757678986,1.10274851322174
291,2528928439,-141.81738281250000,-81.05104064941406,-142.68930053710938,9.63299083709717,-0.90355676412582,-1.32306861877441,3.66777062416077,0.95354169607162,0.88772994279861
292,2528945106,-141.81970214843750,-81.05205535888672,-142.70439147949219,9.71560764312744,-0.63089662790298,-1.30137467384338,0.12143621593714,0.63390791416168,0.38866630196571
293,2528961773,-141.90402221679688,-81.05600738525391,-142.73181152343750,9.79880142211914,-0.76725494861603,-1.28597402572632,-5.25203847885132,0.81921595335007,0.33657014369965
294,2528978440,-141.98689270019531,-81.06979370117188,-142.75662231445312,9.70043754577637,-0.98952966928482,-1.39613580703735,-5.65171194076538,1.32583498954773,0.03592821583152
295,2528995107,-142.02101135253906,-81.08231353759766,-142.78199768066406,9.64692974090576,-0.92271810770035,-1.35341513156891,-2.32809209823608,1.23277127742767,0.03007571399212
296,2529011774,-142.05873107910156,-81.08870697021484,-142.80718994140625,9.69406223297119,-0.79070812463760,-1.20236563682556,-2.21318078041077,0.90596604347229,0.21871326863766
297,2529028441,-142.16287231445312,-81.08359527587891,-142.78359985351562,9.68400287628174,-0.81048774719238,-1.11474716663361,-3.84008646011353,0.13583056628704,0.35001674294472
298,2529045108,-142.35588073730469,-81.06523132324219,-142.72048950195312,9.74224472045898,-0.83150696754456,-1.12229204177856,-6.61519765853882,-0.73215186595917,0.51389968395233
299,2529061775,-142.55162048339844,-81.04511260986328,-142.63575744628906,9.82420253753662,-0.83782613277435,-1.13895487785339,-5.60343170166016,-0.94226568937302,0.43277141451836
300,2529078442,-142.73484802246094,-81.03949737548828,-142.54492187500000,9.81492996215820,-0.85165548324585,-1.28094589710236,-4.64879512786865,-0.26141604781151,-0.13213592767715
301,2529095109,-142.92259216308594,-81.03744506835938,-142.45768737792969,9.65804862976074,-0.79955589771271,-1.35950589179993,-4.49432468414307,-0.14156138896942,-0.31019541621208
302,2529111776,-143.13563537597656,-81.02539062500000,-142.35911560058594,9.55998802185059,-0.87356501817703,-1.32404947280884,-5.55800771713257,-0.65193289518356,-0.01471449714154
303,2529128443,-143.34231567382812,-81.00225830078125,-142.24012756347656,9.63521289825439,-0.94576674699783,-1.18351602554321,-4.17561292648315,-1.28374707698822,0.25180488824844
304,2529145110,-143.57664489746094,-80.97209167480469,-142.07737731933594,9.66463470458984,-0.96651881933212,-1.19107174873352,-3.37115669250488,-1.85779178142548,0.17996124923229
305,2529161777,-143.85000610351562,-80.93577575683594,-141.87823486328125,9.67517662048340,-0.91895157098770,-1.18176579475403,-3.23981499671936,-2.38387703895569,0.06191230937839
306,2529178444,-144.17866516113281,-80.90335845947266,-141.63246154785156,9.69772434234619,-0.80835652351379,-1.32934510707855,-4.07380247116089,-2.43633127212524,-0.41506662964821
307,2529195111,-144.54251098632812,-80.87396240234375,-141.35211181640625,9.76299285888672,-0.68698042631149,-1.45692229270935,-5.36592531204224,-2.36551237106323,-0.65327757596970
308,2529211778,-144.91908264160156,-80.84625244140625,-141.11242675781250,9.69073200225830,-0.87327539920807,-1.44170355796814,-7.26016426086426,-2.17988443374634,-0.58400803804398
309,2529228445,-145.28097534179688,-80.81234741210938,-140.87425231933594,9.59545993804932,-0.93668210506439,-1.46607649326324,-6.40317583084106,-2.47841310501099,-0.39350077509880
310,2529245112,-145.66152954101562,-80.77108001708984,-140.60684204101562,9.62388992309570,-0.77505582571030,-1.31413733959198,-5.83507347106934,-2.99326729774475,-0.39818790555000
311,2529261779,-146.06831359863281,-80.71972656250000,-140.35334777832031,9.68498325347900,-0.72647464275360,-1.24858212471008,-7.67050552368164,-3.47823071479797,-0.05449102818966
312,2529278446,-146.52163696289062,-80.66276550292969,-140.06840515136719,9.73866844177246,-0.85692465305328,-1.28338146209717,-8.32756042480469,-3.96128654479980,-0.19930525124073
313,2529295113,-147.00207519531250,-80.60459899902344,-139.73219299316406,9.68159294128418,-0.89100080728531,-1.33648240566254,-7.77759265899658,-4.21425056457520,-0.51758152246475
314,2529311780,-147.48310852050781,-80.54258728027344,-139.37043762207031,9.64142417907715,-0.87948685884476,-1.35640370845795,-6.67322349548340,-4.52152538299561,-0.60677772760391
315,2529328447,-148.00720214843750,-80.47067260742188,-138.96205139160156,9.66468811035156,-0.81493830680847,-1.31172227859497,-6.58141517639160,-5.27127361297607,-0.73219031095505
316,2529345114,-148.55412292480469,-80.39438629150391,-138.54124450683594,9.64554786682129,-0.72599583864212,-1.39275562763214,-7.15841865539551,-5.56745910644531,-0.78972941637039
317,2529361781,-149.12130737304688,-80.31363677978516,-138.12525939941406,9.61677646636963,-0.75696098804474,-1.51721131801605,-7.98519659042358,-5.83850574493408,-0.79559469223022
318,2529378448,-149.71656799316406,-80.23305511474609,-137.69044494628906,9.68986511230469,-0.80494517087936,-1.53372085094452,-9.03196334838867,-5.88504505157471,-0.99341452121735
319,2529395115,-150.33059692382812,-80.15050506591797,-137.23262023925781,9.65888500213623,-0.84623622894287,-1.54637920856476,-9.36533927917480,-6.07209491729736,-1.14840996265411
320,2529411782,-150.96263122558594,-80.05995941162109,-136.76258850097656,9.65562534332275,-0.81469428539276,-1.45477366447449,-8.70634841918945,-6.63352441787720,-1.28674399852753
321,2529428449,-151.63093566894531,-79.95468902587891,-136.24804687500000,9.64481353759766,-0.75508195161819,-1.40022468566895,-8.49189472198486,-7.62093400955200,-1.35505342483521
322,2529445116,-152.31280517578125,-79.82726287841797,-135.70771789550781,9.62621021270752,-0.67522442340851,-1.31029903888702,-7.70609712600708,-8.93664741516113,-1.13356745243073
323,2529461783,-152.95643615722656,-79.67495727539062,-135.18217468261719,9.61984348297119,-0.63823354244232,-1.24801003932953,-6.39678764343262,-10.20282363891602,-0.46946820616722
324,2529478450,-153.59510803222656,-79.49045562744141,-134.66246032714844,9.64903640747070,-0.54803973436356,-1.22036218643188,-6.25499773025513,-11.93985557556152,0.21806028485298
325,2529495117,-154.23471069335938,-79.27132415771484,-134.14123535156250,9.65609550476074,-0.51363396644592,-1.25290989875793,-6.31686496734619,-13.86178302764893,0.89591366052628
326,2529511784,-154.85787963867188,-79.00846862792969,-133.62246704101562,9.58996486663818,-0.50677055120468,-1.26918482780457,-6.28131628036499,-16.21573638916016,1.90948629379272
327,2529528451,-155.44029235839844,-78.70757293701172,-133.14503479003906,9.60675334930420,-0.37599337100983,-1.32906317710876,-5.58034849166870,-18.21589088439941,2.86222910881042
328,2529545118,-155.99790954589844,-78.36037445068359,-132.71199035644531,9.68519115447998,-0.22084189951420,-1.36129689216614,-6.91083097457886,-20.61446952819824,4.19373512268066
329,2529561785,-156.54449462890625,-77.97332763671875,-132.31828308105469,9.72266292572021,-0.39900526404381,-1.41188681125641,-8.42302417755127,-22.71463203430176,5.21011495590210
330,2529578452,-156.99302673339844,-77.54364776611328,-131.98237609863281,9.81794357299805,-0.39393618702888,-1.46911299228668,-6.04664802551270,-24.88256645202637,6.56191968917847
331,2529595119,-157.38294982910156,-77.07711791992188,-131.71563720703125,9.77290058135986,-0.38997462391853,-1.57845747470856,-6.58398056030273,-26.67695808410645,7.92566013336182
332,2529611786,-157.74319458007812,-76.56872558593750,-131.53160095214844,9.80758953094482,-0.06512244790792,-1.65174734592438,-9.64304733276367,-28.66270828247070,9.62417793273926
333,2529628453,-158.05641174316406,-76.01383209228516,-131.44941711425781,10.02186298370361,-0.40880677103996,-1.93226063251495,-12.79710674285889,-30.79689025878906,11.75739955902100
334,2529645120,-158.19604492187500,-75.41109466552734,-131.52172851562500,10.16581058502197,0.10153109580278,-1.64103555679321,-11.37669277191162,-32.67351150512695,14.78157997131348
335,2529661787,-158.32368469238281,-74.74518585205078,-131.70468139648438,10.20139598846436,0.27353212237358,-1.81683468818665,-17.05681228637695,-35.57885360717773,17.74066925048828
336,2529678454,-158.45991516113281,-74.01203155517578,-131.93853759765625,10.47712039947510,0.54929417371750,-2.12283778190613,-20.47652053833008,-39.01670455932617,20.02763557434082
337,2529695121,-158.56169128417969,-73.22618103027344,-132.22178649902344,10.57143115997314,0.49557712674141,-2.33204269409180,-21.20583534240723,-41.63226318359375,22.05293846130371
338,2529711788,-158.55752563476562,-72.39343261718750,-132.56398010253906,10.50246143341064,0.06140805780888,-2.52333736419678,-18.15521621704102,-43.80223846435547,24.23160362243652
339,2529728455,-158.45402526855469,-71.49887084960938,-132.97061157226562,10.42630672454834,0.14021450281143,-2.41818189620972,-15.77700805664062,-46.68557739257812,27.02323722839355
340,2529745122,-158.41685485839844,-70.55204010009766,-133.33767700195312,10.32109355926514,-0.35225155949593,-2.52736973762512,-17.38596343994141,-49.71645355224609,27.86297035217285
341,2529761789,-158.37586975097656,-69.57275390625000,-133.63658142089844,10.24252605438232,-0.96956890821457,-2.79729652404785,-13.19241142272949,-51.89855957031250,27.64505958557129
342,2529778456,-158.28091430664062,-68.58025360107422,-133.87986755371094,10.09528350830078,-1.23936235904694,-2.85498809814453,-6.72514629364014,-52.93397140502930,27.15917968750000
343,2529795123,-158.16529846191406,-67.59707641601562,-134.03770446777344,9.70867919921875,-1.32476925849915,-2.96385836601257,-0.63903182744980,-52.99079132080078,25.49111175537109
344,2529811790,-158.08261108398438,-66.64901733398438,-134.12953186035156,9.38097190856934,-1.88314688205719,-3.43604731559753,1.09350168704987,-51.51210403442383,23.50773620605469
345,2529828457,-157.92517089843750,-65.77368927001953,-134.24841308593750,8.94277858734131,-2.49295783042908,-3.76114487648010,4.13008165359497,-47.14315032958984,22.66272926330566
346,2529845124,-157.64482116699219,-65.01302337646484,-134.44866943359375,8.66124439239502,-4.04419088363647,-4.13909816741943,7.10428047180176,-39.88396835327148,22.21063613891602
347,2529861791,-156.91390991210938,-64.40770721435547,-134.84541320800781,8.44333267211914,-3.85780978202820,-3.83452367782593,23.53976631164551,-29.09664344787598,23.72762107849121
348,2529878458,-156.22967529296875,-64.06673431396484,-135.27804565429688,7.64800834655762,-1.35268032550812,-2.75448775291443,18.87976074218750,-13.81195831298828,18.80658531188965
349,2529895125,-155.98544311523438,-64.07238006591797,-135.60325622558594,7.45342397689819,0.09307207912207,-1.99954915046692,-1.68721127510071,4.23940896987915,7.98307657241821
350,2529911792,-156.31217956542969,-64.44242095947266,-135.75149536132812,7.27144956588745,0.60878175497055,-1.79594814777374,-26.41023445129395,22.33839607238770,-5.12262487411499
351,2529928459,-157.09552001953125,-65.15159606933594,-135.64480590820312,7.85853242874146,-0.18121017515659,-2.32420897483826,-40.00337600708008,38.47025299072266,-19.00522232055664
352,2529945126,-158.00541687011719,-66.15689086914062,-135.36871337890625,8.26104736328125,0.23743540048599,-2.20862030982971,-38.29468917846680,53.60295486450195,-29.01806640625000
353,2529961793,-159.15046691894531,-67.40592193603516,-134.84454345703125,8.72134876251221,0.03610174730420,-2.33274316787720,-38.59075546264648,65.69813537597656,-38.58348464965820
354,2529978460,-160.50996398925781,-68.85664367675781,-134.00990295410156,8.92823410034180,-0.09465420991182,-2.51275396347046,-33.88891601562500,75.73145294189453,-47.18961715698242
355,2529995127,-162.21867370605469,-70.46801757812500,-132.74720764160156,9.10034751892090,-0.05639950558543,-2.70290040969849,-30.27495384216309,83.64952850341797,-55.50879287719727
356,2530011794,-164.36170959472656,-72.18068695068359,-130.99966430664062,9.47869014739990,0.07426445186138,-2.84276604652405,-28.04423713684082,89.20844268798828,-61.36276245117188
357,2530028461,-167.07191467285156,-73.94526672363281,-128.73143005371094,9.80269432067871,-0.15661355853081,-3.01866221427917,-31.20481300354004,93.25172424316406,-64.19976043701172
358,2530045128,-170.31399536132812,-75.72142028808594,-125.90267944335938,9.89335823059082,-0.81526982784271,-3.12471127510071,-29.49633216857910,96.21155548095703,-64.09184265136719
359,2530061795,-173.83064270019531,-77.44661712646484,-122.57796478271484,10.31336116790771,-2.34522867202759,-3.24079418182373,-15.74445724487305,96.54052734375000,-59.77296829223633
360,2530078462,-177.68122863769531,-79.02033233642578,-118.53122711181641,9.67063426971436,-1.09516334533691,-3.39695096015930,7.86990356445312,90.87870025634766,-56.02318572998047
361,2530095129,177.68829345703125,-80.45503234863281,-113.51381683349609,9.99708271026611,-1.49655210971832,-2.85882544517517,19.60652351379395,86.43560791015625,-53.30165100097656
362,2530111796,172.66401672363281,-81.73333740234375,-107.87355041503906,9.87256526947021,-1.60870003700256,-2.52275443077087,34.08698654174805,81.17905426025391,-45.43118286132812
363,2530128463,166.37326049804688,-82.81462860107422,-100.85672760009766,9.73005867004395,-1.42337775230408,-2.33612465858459,40.95176315307617,74.40540313720703,-43.54450225830078
364,2530145130,158.63786315917969,-83.64979553222656,-92.26070404052734,9.88716697692871,-0.86761295795441,-2.12463378906250,49.26219177246094,66.36044311523438,-42.61675262451172
365,2530161797,149.99383544921875,-84.23622894287109,-82.78473663330078,9.78688907623291,-0.13894428312778,-1.74189293384552,47.97942352294922,58.03815841674805,-38.54400634765625
366,2530178464,141.42494201660156,-84.60478973388672,-73.51705169677734,9.58606433868408,0.16846643388271,-1.46679341793060,40.53300476074219,49.11798477172852,-31.93774032592773
367,2530195131,133.69166564941406,-84.82399749755859,-65.31517791748047,9.61664104461670,0.36846294999123,-1.35717606544495,27.27103424072266,40.74362564086914,-24.30480003356934
368,2530211798,127.35427093505859,-84.96331787109375,-58.75883483886719,9.63034820556641,0.63889700174332,-1.29999876022339,12.81181240081787,32.52791595458984,-16.10625648498535
369,2530228465,122.68682098388672,-85.08522796630859,-54.10789108276367,9.49604606628418,0.61384123563766,-1.30621743202209,-0.81453704833984,24.50732040405273,-7.60705423355103
370,2530245132,119.60312652587891,-85.20343780517578,-51.19097137451172,9.43262577056885,0.36147832870483,-1.36410987377167,-9.41866016387939,16.83122253417969,-1.29865515232086
371,2530261799,117.83528900146484,-85.30723571777344,-49.65143203735352,9.42428684234619,0.24925282597542,-1.37721657752991,-12.81249713897705,10.18223094940186,2.10387420654297
372,2530278466,117.07391357421875,-85.37848663330078,-49.03297042846680,9.51292324066162,0.00809823721647,-1.43822836875916,-7.50160217285156,5.12408399581909,2.71401810646057
373,2530295133,116.96549987792969,-85.41721343994141,-48.85833358764648,9.64942169189453,-0.03001617826521,-1.50650298595428,5.12793827056885,2.28819394111633,2.00932288169861
374,2530311800,117.29158782958984,-85.44181823730469,-48.92038726806641,9.53824710845947,0.14724558591843,-1.38247108459473,17.04822158813477,0.88730812072754,1.76039469242096
375,2530328467,117.96042633056641,-85.47702026367188,-49.21996307373047,9.54947757720947,0.39752385020256,-1.26168441772461,23.39664840698242,0.19500903785229,2.84016561508179
376,2530345134,118.94221496582031,-85.54346466064453,-49.81709671020508,9.74455928802490,0.63979017734528,-1.15773952007294,24.37365531921387,-0.08220413327217,5.16356325149536
377,2530361801,120.30318450927734,-85.64315795898438,-50.83255386352539,9.90400028228760,0.75213515758514,-0.92387211322784,22.09303855895996,-0.63976800441742,7.82505941390991
378,2530378468,121.96774291992188,-85.75951385498047,-52.23272705078125,9.80706977844238,0.75238114595413,-0.74144893884659,17.27684783935547,-1.30746603012085,9.54487323760986
379,2530395135,123.88774871826172,-85.87535858154297,-53.99005126953125,9.82428455352783,0.89955639839172,-0.72940731048584,11.21814632415771,-2.20794439315796,10.32756710052490
380,2530411802,126.08647155761719,-85.98907470703125,-56.11947631835938,9.76355457305908,1.04057240486145,-0.70899254083633,5.65583086013794,-3.04894995689392,11.09880161285400
381,2530428469,128.75248718261719,-86.09355163574219,-58.80471420288086,9.95433521270752,0.94522339105606,-0.66698223352432,0.39594054222107,-4.56342983245850,12.05692195892334
382,2530445136,131.94252014160156,-86.18376159667969,-62.05639648437500,10.07783699035645,0.89837139844894,-0.60479837656021,-2.09678554534912,-6.04414129257202,12.96209239959717
383,2530461803,135.44734191894531,-86.25681304931641,-65.64338684082031,10.01312828063965,1.17188870906830,-0.66167014837265,-3.30397677421570,-6.77639532089233,13.29512214660645
384,2530478470,139.11038208007812,-86.31240844726562,-69.42520141601562,9.98501300811768,1.56079590320587,-0.70453637838364,-5.49961566925049,-7.05927658081055,13.40638542175293
385,2530495137,142.93209838867188,-86.33809661865234,-73.37166595458984,9.94295787811279,1.62104129791260,-0.65032577514648,-5.84482383728027,-7.89085769653320,13.10493564605713
386,2530511804,146.91209411621094,-86.30281829833984,-77.35694122314453,10.01135921478271,1.44871437549591,-0.62362259626389,1.32896077632904,-10.07902812957764,11.69326305389404
387,2530528471,150.93521118164062,-86.20233917236328,-81.17533111572266,10.11400318145752,1.44124376773834,-0.58830755949020,13.94262123107910,-12.40207290649414,10.07239627838135
388,2530545138,154.79310607910156,-86.04373931884766,-84.63478851318359,9.93998908996582,1.79119074344635,-0.43419578671455,25.55600929260254,-14.36509704589844,8.51112174987793
389,2530561805,158.60975646972656,-85.83538818359375,-87.91429901123047,9.66575336456299,1.98196125030518,-0.19925922155380,33.90217971801758,-16.48409843444824,8.21200561523438
390,2530578472,162.43717956542969,-85.57021331787109,-91.09394073486328,9.11472415924072,1.86367583274841,-0.03255344927311,40.57762527465820,-19.25973701477051,8.52829074859619
391,2530595139,166.24508666992188,-85.24651336669922,-94.10510253906250,8.02333641052246,1.83802676200867,0.05957492068410,49.58407592773438,-22.07481002807617,9.04253864288330
392,2530611806,170.04235839843750,-84.87458801269531,-96.94722747802734,6.16829967498779,2.05657362937927,0.25178432464600,59.13610076904297,-24.33959197998047,10.13551044464111
393,2530628473,173.58654785156250,-84.47303009033203,-99.39124298095703,3.38922286033630,2.01459169387817,0.13719010353088,67.83603668212891,-25.27228355407715,10.38961029052734
394,2530645140,177.01969909667969,-84.03050994873047,-101.52370452880859,1.21319365501404,2.12992215156555,-0.00425413623452,79.87799835205078,-26.99983024597168,10.94262027740479
395,2530661807,-179.39361572265625,-83.54864501953125,-103.78870391845703,0.18674637377262,2.94252181053162,0.11182714253664,81.30834960937500,-28.68690490722656,14.44179439544678
396,2530678474,-175.86781311035156,-82.99330139160156,-106.38442230224609,0.55880194902420,3.58911967277527,0.60418760776520,58.08027648925781,-32.01530838012695,19.95421028137207
397,2530695141,-172.55659484863281,-82.35298919677734,-109.45682525634766,2.70285058021545,2.78703451156616,0.58322387933731,17.04491233825684,-35.32794570922852,27.60854530334473
398,2530711808,-169.09361267089844,-81.66464233398438,-113.47129058837891,4.14117336273193,1.95072424411774,0.18764525651932,-29.54519271850586,-34.90293502807617,39.98540496826172
399,2530728475,-165.85182189941406,-81.00846099853516,-118.06315612792969,3.36189603805542,0.45234006643295,-0.43351998925209,-76.64195251464844,-28.89574813842773,49.38933181762695
400,2530745142,-162.90780639648438,-80.40986633300781,-122.71467590332031,2.10992193222046,-1.58790993690491,-0.99025064706802,-97.57723236083984,-21.93747711181641,53.40370178222656
401,2530761809,-160.42546081542969,-79.79816436767578,-126.82579803466797,1.11668753623962,-2.94310736656189,-1.17555260658264,-92.83628845214844,-20.98595809936523,52.11923980712891
402,2530778476,-158.35084533691406,-79.14688873291016,-129.98272705078125,0.81691676378250,-1.76632368564606,-0.43039608001709,-60.54069900512695,-23.88914680480957,46.48599243164062
403,2530795143,-156.48483276367188,-78.33396148681641,-132.53575134277344,1.16247165203094,0.51425242424011,0.86059719324112,-37.05317306518555,-33.04293823242188,46.67730331420898
404,2530811810,-155.28063964843750,-77.25828552246094,-134.36968994140625,1.11661052703857,1.62613821029663,1.36396491527557,-34.08689498901367,-48.90531921386719,47.93657684326172
405,2530828477,-154.98112487792969,-75.95433044433594,-135.04536437988281,1.76943600177765,0.82526051998138,2.22308397293091,-20.24470710754395,-66.54090881347656,41.75611495971680
406,2530845144,-157.50903320312500,-74.03255462646484,-134.99223327636719,0.71937036514282,-18.76798629760742,-9.32616043090820,-147.34883117675781,-105.39063262939453,46.02869033813477
407,2530861811,-147.77925109863281,-67.79454803466797,-137.67515563964844,25.93338584899902,-49.53498840332031,-32.92792510986328,432.22094726562500,-307.82473754882812,219.14903259277344
408,2530878478,-147.82743835449219,-63.91805267333984,-138.10853576660156,27.74008941650391,39.06418228149414,31.81549453735352,-25.41597747802734,-190.63240051269531,133.18475341796875
409,2530895145,-147.91645812988281,-60.63581848144531,-139.88542175292969,52.59548187255859,-19.29883384704590,-12.97952651977539,-98.51235961914062,-139.91230773925781,147.03791809082031
410,2530911812,-149.98075866699219,-56.84687805175781,-139.33801269531250,35.87115859985352,8.73281288146973,-17.53580284118652,-94.52239227294922,-203.09690856933594,102.96083068847656
411,2530928479,-148.04046630859375,-53.57854461669922,-139.72373962402344,-6.88189649581909,-10.12249374389648,-7.83632898330688,98.58609008789062,-160.85868835449219,112.61543273925781
412,2530945146,-148.84584045410156,-51.21044921875000,-139.39758300781250,-1.69547462463379,-10.67887687683105,-12.57968330383301,-31.60183143615723,-126.85852813720703,64.49473571777344
413,2530961813,-148.80187988281250,-49.29779434204102,-138.99400329589844,20.12222099304199,-2.37816166877747,-14.59486865997314,22.46353149414062,-105.72299957275391,46.46351242065430
414,2530978480,-148.68650817871094,-47.72532653808594,-139.35073852539062,10.30177211761475,-5.25632476806641,-11.32760047912598,-7.90115690231323,-72.82148742675781,61.38336944580078
415,2530995147,-148.64625549316406,-46.81133651733398,-140.11456298828125,6.17954492568970,-5.51833152770996,-13.96500110626221,-30.03374290466309,-30.19107246398926,55.38856124877930
416,2531011814,-148.45965576171875,-46.56204223632812,-140.81005859375000,10.37658977508545,-4.17002058029175,-17.39447784423828,-17.95184707641602,2.65738797187805,32.53270339965820
417,2531028481,-147.92221069335938,-46.83378982543945,-141.49954223632812,11.09057140350342,-4.20812082290649,-16.68106269836426,3.35847187042236,29.30109786987305,15.82646179199219
418,2531045148,-147.39886474609375,-47.63561630249023,-142.31187438964844,10.66169548034668,-5.19642400741577,-15.41903400421143,-3.15974926948547,58.84591293334961,2.53820490837097
419,2531061815,-146.95449829101562,-48.97941207885742,-143.33805847167969,10.71205997467041,-5.21087551116943,-15.24442958831787,-18.09222984313965,90.45283508300781,-8.97392368316650
420,2531078482,-146.62727355957031,-51.00688552856445,-144.55407714843750,12.24077796936035,-7.14440393447876,-16.38880920410156,-35.02729415893555,127.97267913818359,-27.06127357482910
421,2531095149,-146.41242980957031,-54.10887527465820,-145.68542480468750,16.87587356567383,-10.21198177337646,-17.52816581726074,-39.78707504272461,178.51232910156250,-67.92198944091797
422,2531111816,-146.84269714355469,-58.33831787109375,-146.21441650390625,25.30459594726562,-7.04027986526489,-15.24756813049316,-50.97221755981445,222.14817810058594,-124.52582550048828
423,2531128483,-149.80497741699219,-63.59428024291992,-145.40917968750000,32.14448165893555,-6.54875469207764,-12.87460327148438,-134.13360595703125,256.58645629882812,-185.23524475097656
424,2531145150,-158.95327758789062,-71.12145233154297,-137.69058227539062,32.59670639038086,-8.93443870544434,-10.64833641052246,-119.06809234619141,329.75646972656250,-355.30490112304688
425,2531161817,178.73645019531250,-78.27391815185547,-115.45233917236328,43.84267807006836,-1.00164175033569,3.12502336502075,-46.78973388671875,355.28762817382812,-417.14324951171875
426,2531178484,164.53843688964844,-80.59715270996094,-106.17504882812500,-3.13109302520752,-4.65417528152466,3.55691576004028,-303.26007080078125,152.80885314941406,-80.37959289550781
427,2531195151,168.01254272460938,-80.75505828857422,-117.33492279052734,-15.52509021759033,3.10625433921814,7.95969438552856,-451.10498046875000,-16.06176757812500,107.90474700927734
428,2531211818,176.38139343261719,-78.17929077148438,-130.74884033203125,2.46632647514343,-18.09341049194336,-5.97909450531006,-288.13110351562500,-171.53201293945312,125.02367401123047
429,2531228485,-177.23698425292969,-76.00490570068359,-133.92599487304688,3.10913920402527,-11.12599754333496,-5.94707489013672,198.22421264648438,-130.22328186035156,41.93365478515625
430,2531245152,-172.29391479492188,-75.00770568847656,-133.37875366210938,4.21488761901855,6.83612632751465,-1.14265012741089,329.54925537109375,-59.84053039550781,-2.42646908760071
431,2531261819,-172.10539245605469,-75.41532135009766,-129.08517456054688,1.28798210620880,6.59568691253662,2.28062057495117,261.57211303710938,15.79299736022949,-68.16424560546875
432,2531278486,-174.01167297363281,-76.26875305175781,-123.89170837402344,1.23936963081360,4.33590650558472,7.39380121231079,188.95927429199219,42.06741714477539,-81.52156066894531
433,2531295153,-178.08778381347656,-77.00435638427734,-119.92687988281250,-0.86443006992340,11.22619533538818,6.83783578872681,-11.91721439361572,40.69951629638672,-57.56785583496094
434,2531311820,178.24085998535156,-77.66902923583984,-118.95658111572266,-0.87164378166199,4.71192741394043,3.34491682052612,-162.27085876464844,40.33887481689453,-12.48621082305908
435,2531328487,175.15771484375000,-78.42502593994141,-118.90684509277344,-1.06218850612640,-0.90750032663345,0.81971192359924,-180.86230468750000,45.79026412963867,2.33319973945618
436,2531345154,171.86424255371094,-79.33847808837891,-118.25141906738281,0.00352400634438,0.08059333264828,-1.66867697238922,-157.81321716308594,55.77927780151367,-1.00557708740234
437,2531361821,167.39144897460938,-80.28890228271484,-115.43843841552734,-0.01909601502120,-1.57580339908600,-1.45434606075287,-101.03792572021484,61.91503906250000,-18.76493263244629
438,2531378488,161.76885986328125,-80.96853637695312,-110.08930206298828,0.00817565061152,-2.02273154258728,-0.63007801771164,-19.48397445678711,53.61708450317383,-39.21356964111328
439,2531395155,156.13964843750000,-81.26871490478516,-104.05764770507812,0.02492712810636,-0.42767566442490,0.16268815100193,21.01583099365234,37.31367492675781,-45.35226440429688
440,2531411822,151.58032226562500,-81.39302825927734,-99.11937713623047,0.32047927379608,-0.86034768819809,0.37238165736198,20.56179237365723,26.84554672241211,-36.47850799560547
441,2531428489,148.13485717773438,-81.59643554687500,-95.47976684570312,0.55880445241928,-1.72960424423218,0.66278582811356,10.44885730743408,27.24168968200684,-21.48248100280762
442,2531445156,145.02340698242188,-81.99786376953125,-92.48284912109375,1.44100153446198,-2.19874024391174,0.44753214716911,-7.51623487472534,34.69215011596680,-7.83739376068115
443,2531461823,140.90063476562500,-82.56169891357422,-88.68473815917969,1.74205493927002,-2.98262763023376,-1.04516649246216,-20.33935356140137,45.89262390136719,-3.76358890533447
444,2531478490,135.55014038085938,-83.21692657470703,-83.36137390136719,1.31586289405823,-2.49969696998596,-2.09422802925110,-2.86725831031799,56.09964752197266,-3.01849007606506
445,2531495157,129.85617065429688,-83.86205291748047,-77.26128387451172,-0.01910541206598,-1.70761263370514,-2.53169703483582,23.25612068176270,56.93716430664062,0.75924098491669
446,2531511824,125.21223449707031,-84.25605010986328,-71.98812866210938,-2.13422989845276,0.55007594823837,-2.00484132766724,37.26481246948242,40.83909988403320,-0.93178725242615
447,2531528491,123.75814056396484,-84.43085479736328,-69.83515167236328,-1.84110879898071,-0.41444575786591,-1.77524340152740,42.50038909912109,16.92155838012695,1.73839175701141
448,2531545158,125.29361724853516,-84.51613616943359,-70.62392425537109,-0.36396664381027,-1.79822683334351,-2.01041913032532,46.20138549804688,-0.38315618038177,7.10462808609009
449,2531561825,128.63345336914062,-84.53001403808594,-72.93106842041016,-0.23745767772198,-2.31918716430664,-2.52567172050476,63.77001571655273,-9.57037830352783,8.94169902801514
450,2531578492,133.70487976074219,-84.45871734619141,-76.57283782958984,0.21634168922901,-2.08046555519104,-2.23585033416748,87.95330810546875,-18.11302947998047,10.91072940826416
451,2531595159,140.17907714843750,-84.37210845947266,-81.36942291259766,1.02245187759399,-0.58480262756348,-0.68475186824799,103.17748260498047,-22.43541717529297,17.24094390869141
452,2531611826,147.81681823730469,-84.23374176025391,-87.63132476806641,1.41436791419983,1.57429659366608,-0.14919009804726,85.55874633789062,-28.12684440612793,25.63262176513672
453,2531628493,156.79539489746094,-83.93854522705078,-95.97825622558594,0.20783962309361,2.56234383583069,-0.27925792336464,41.71173095703125,-39.11064529418945,37.79476547241211
454,2531645160,166.68179321289062,-83.24512481689453,-105.79563903808594,-1.41874420642853,0.63039970397949,-1.00258922576904,8.97150802612305,-59.42825317382812,49.73159790039062
455,2531661827,176.30822753906250,-81.96495819091797,-114.84655761718750,-0.47515302896500,-3.84476804733276,-2.18690276145935,40.19675827026367,-85.51616668701172,58.08399200439453
456,2531678494,-175.17057800292969,-80.20331573486328,-121.41236114501953,-0.35488748550415,-5.40126848220825,-4.95631647109985,123.22646331787109,-104.37344360351562,62.39229583740234
457,2531695161,-169.40954589843750,-77.80110931396484,-125.35651397705078,3.35528182983398,-5.49055004119873,-16.14505004882812,114.50100708007812,-136.15219116210938,64.35494232177734
458,2531711828,-164.98155212402344,-70.47074127197266,-130.68811035156250,28.83778381347656,-72.47793579101562,-69.02079772949219,-41.36143875122070,-408.45828247070312,182.93829345703125
459,2531728495,-144.16548156738281,-65.90196990966797,-139.34939575195312,41.33689117431641,53.84437942504883,62.28680801391602,766.54479980468750,-163.77331542968750,292.47015380859375
460,2531745162,-152.48300170898438,-64.13220977783203,-135.09217834472656,76.28399658203125,-24.14562606811523,7.88673448562622,-266.22805786132812,-146.48852539062500,-35.82691574096680
461,2531761829,-150.80998229980469,-61.03824615478516,-134.41908264160156,68.38767242431641,56.09933090209961,-9.16690254211426,137.38410949707031,-171.74836730957031,72.05200195312500
462,2531778496,-150.11547851562500,-58.42422485351562,-133.29920959472656,13.04256534576416,-23.73179817199707,-36.34125137329102,100.90379333496094,-152.71717834472656,48.17678451538086
463,2531795163,-150.59001159667969,-56.52042770385742,-134.25016784667969,-0.22579461336136,14.68919467926025,-7.48423147201538,-75.36933898925781,-83.63085937500000,83.47675323486328
464,2531811830,-150.51347351074219,-55.63809204101562,-136.19041442871094,-4.11339426040649,-8.44102478027344,-20.37943649291992,-90.79405212402344,-13.68736839294434,82.91960906982422
465,2531828497,-149.94683837890625,-55.62482070922852,-138.33518981933594,1.75838077068329,-4.68407773971558,-15.66312408447266,-71.00694274902344,35.86051559448242,63.76881790161133
466,2531845164,-148.80110168457031,-56.04191970825195,-140.34957885742188,10.33834457397461,-4.03487730026245,-11.96519947052002,-30.04500961303711,56.60603713989258,45.97454833984375
467,2531861831,-147.60493469238281,-56.45938110351562,-142.01661682128906,14.32838630676270,-3.00936841964722,-5.38841438293457,-10.18181610107422,51.06295776367188,34.34494400024414
468,2531878498,-146.52903747558594,-56.73124313354492,-143.51872253417969,13.71806716918945,-2.68730664253235,-0.92472475767136,-9.47021293640137,41.15948104858398,33.09329605102539
469,2531895165,-146.39619445800781,-57.03497314453125,-144.84317016601562,8.62672901153564,-5.07457542419434,-0.41707432270050,-57.37057113647461,39.66392135620117,26.43566894531250
470,2531911832,-146.48535156250000,-57.57723236083984,-146.09968566894531,3.90081191062927,-10.19654560089111,-2.80144596099854,-67.58473205566406,50.10395812988281,16.26558113098145
471,2531928499,-146.52307128906250,-58.48697280883789,-147.33207702636719,1.82617187500000,-9.82119274139404,-3.78359603881836,-63.78696060180664,67.60236358642578,2.83495759963989
472,2531945166,-146.84060668945312,-59.74001693725586,-148.50489807128906,2.23873448371887,-7.77673149108887,-4.44667482376099,-78.24033355712891,83.14700317382812,-10.80592060089111
473,2531961833,-147.47058105468750,-61.25129318237305,-149.51420593261719,4.11979341506958,-6.21863937377930,-5.30464792251587,-89.30281829833984,92.84007263183594,-23.82225036621094
474,2531978500,-148.15773010253906,-62.87244415283203,-150.31671142578125,5.85340023040771,-4.35904312133789,-5.87894678115845,-82.56848907470703,94.82069396972656,-32.42198944091797
475,2531995167,-148.66342163085938,-64.54540252685547,-150.85897827148438,7.81613636016846,-2.39659857749939,-6.44034814834595,-58.31785583496094,93.53636932373047,-40.00704193115234
476,2532011834,-148.90240478515625,-66.16853332519531,-151.08114624023438,9.07735443115234,-1.06039953231812,-6.62877464294434,-25.26253509521484,86.65180206298828,-45.42335891723633
477,2532028501,-149.17037963867188,-67.66080474853516,-150.76261901855469,8.90367889404297,1.38885402679443,-6.27264833450317,2.69469285011292,73.40619659423828,-52.19322204589844
478,2532045168,-149.47021484375000,-69.01473236083984,-149.92910766601562,9.09114742279053,1.57979643344879,-4.18479013442993,29.68357849121094,60.93126296997070,-57.02602386474609
479,2532061835,-149.67221069335938,-70.24289703369141,-149.04190063476562,9.20713043212891,-1.14659774303436,-2.08861804008484,38.97365188598633,54.63849639892578,-52.99565124511719
480,2532078502,-149.81983947753906,-71.34510040283203,-148.24472045898438,8.70650386810303,-1.34034419059753,-0.39934152364731,37.50321960449219,49.68083572387695,-46.60968399047852
481,2532095169,-150.44621276855469,-72.31677246093750,-147.28808593750000,8.56017684936523,-1.87951493263245,0.23812150955200,18.14208793640137,42.12328720092773,-44.24992370605469
482,2532111836,-151.12284851074219,-73.19998168945312,-146.39584350585938,9.57677555084229,-1.87720251083374,0.19059070944786,11.71988296508789,38.98147964477539,-39.41190338134766
483,2532128503,-151.82780456542969,-73.98936462402344,-145.55311584472656,10.14120578765869,-0.86553210020065,-0.46505713462830,7.39762067794800,35.26879501342773,-34.86394882202148
484,2532145170,-152.38659667968750,-74.67062377929688,-144.75712585449219,10.27154350280762,0.22043617069721,-2.31008076667786,13.64074897766113,30.56269645690918,-30.22163772583008
485,2532161837,-152.81539916992188,-75.27143096923828,-144.12699890136719,10.67821979522705,3.39772510528564,-3.38794708251953,11.97467517852783,27.96356582641602,-24.99144554138184
486,2532178504,-153.02415466308594,-75.77209472656250,-143.77720642089844,10.59601306915283,1.48943912982941,-2.92454743385315,8.98950767517090,24.83365631103516,-18.04528617858887
487,2532195171,-152.91880798339844,-76.18553161621094,-143.67388916015625,10.49100971221924,-0.64002048969269,-1.07110226154327,13.52046298980713,21.88456916809082,-12.30294132232666
488,2532211838,-152.95507812500000,-76.51924133300781,-143.66523742675781,9.61073398590088,-0.59737432003021,-0.40789997577667,-0.47999548912048,18.24459838867188,-8.91305351257324
489,2532228505,-153.22363281250000,-76.80011749267578,-143.63232421875000,9.40210056304932,-1.41551351547241,-1.14216578006744,-13.00137329101562,15.29060840606689,-7.72769641876221
490,2532245172,-153.37399291992188,-77.04125976562500,-143.48464965820312,9.53369140625000,-1.29021978378296,-1.53480017185211,0.79615223407745,12.49111270904541,-7.98561143875122
491,2532261839,-153.46047973632812,-77.23468017578125,-143.33335876464844,9.55625820159912,-0.24138052761555,-1.64074242115021,4.85663747787476,9.94745826721191,-6.70065736770630
492,2532278506,-153.48779296875000,-77.38610839843750,-143.23132324218750,9.52465343475342,-0.34770488739014,-1.72961652278900,5.52377128601074,7.99678039550781,-4.95748090744019
493,2532295173,-153.46127319335938,-77.51797485351562,-143.15653991699219,9.45682048797607,-0.85877603292465,-2.10334372520447,7.16676282882690,7.11393642425537,-4.10366868972778
494,2532311840,-153.37896728515625,-77.65247344970703,-143.08741760253906,9.40874862670898,-0.93852162361145,-2.24993515014648,10.17522048950195,7.28372478485107,-4.10343837738037
495,2532328507,-153.32795715332031,-77.79178619384766,-142.98025512695312,9.22291183471680,-1.15672731399536,-1.82623589038849,10.53203201293945,7.32392501831055,-4.66804552078247
496,2532345174,-153.34576416015625,-77.92424011230469,-142.79981994628906,9.12681102752686,-1.16269373893738,-1.47509706020355,10.70882415771484,6.54723167419434,-5.29975748062134
497,2532361841,-153.47610473632812,-78.03644561767578,-142.54869079589844,9.39952278137207,-0.80828225612640,-1.42782378196716,8.10671138763428,5.08068418502808,-5.51706743240356
498,2532378508,-153.69328308105469,-78.13797760009766,-142.29505920410156,9.68409824371338,-0.90167099237442,-1.90828406810760,3.05106830596924,4.52528429031372,-5.22331380844116
499,2532395175,-153.82778930664062,-78.25487518310547,-142.04924011230469,9.56498050689697,-0.98763155937195,-2.50968170166016,7.55213069915771,5.42085838317871,-5.50446510314941
500,2532411842,-153.91029357910156,-78.39694976806641,-141.78135681152344,9.68387413024902,-0.90554779767990,-2.40192794799805,11.98302078247070,6.68933248519897,-6.37395668029785
501,2532428509,-153.93495178222656,-78.55690002441406,-141.56245422363281,9.88566017150879,-0.70221632719040,-2.21309781074524,12.58007907867432,7.93378973007202,-6.27568054199219
502,2532445176,-153.94578552246094,-78.73194885253906,-141.35815429687500,9.74810600280762,-0.81192475557327,-1.90805828571320,12.55684947967529,8.84062290191650,-6.48080062866211
503,2532461843,-153.96513366699219,-78.91297912597656,-141.14151000976562,9.60421943664551,-0.81739741563797,-1.75137388706207,12.78257560729980,9.11904621124268,-6.73349618911743
504,2532478510,-154.01432800292969,-79.09075164794922,-140.89108276367188,9.65322971343994,-0.72065186500549,-1.71880352497101,12.98221206665039,8.79008769989014,-6.95097255706787
505,2532495177,-154.08117675781250,-79.26481628417969,-140.63656616210938,9.66054534912109,-0.66562253236771,-1.64722263813019,12.17471981048584,8.59693050384521,-6.84608888626099
506,2532511844,-154.15472412109375,-79.44758605957031,-140.36036682128906,9.59245586395264,-0.93983352184296,-1.81775712966919,13.06308460235596,8.99408054351807,-7.24034547805786
507,2532528511,-154.17745971679688,-79.64153289794922,-140.08837890625000,9.69803810119629,-0.76153630018234,-1.94954144954681,15.87079811096191,9.64890098571777,-7.43699073791504
508,2532545178,-154.15338134765625,-79.82946777343750,-139.85163879394531,9.57984828948975,-0.49436149001122,-1.65737009048462,16.60872650146484,9.50744247436523,-6.89030027389526
509,2532561845,-154.07527160644531,-80.00691986083984,-139.70886230468750,9.53472328186035,-0.63568812608719,-1.40658688545227,14.30835342407227,9.38739109039307,-5.69691133499146
510,2532578512,-153.90921020507812,-80.18222045898438,-139.65658569335938,9.59273624420166,-0.88917970657349,-1.61104345321655,14.23516273498535,9.67741584777832,-4.79521512985229
511,2532595179,-153.67388916015625,-80.36728668212891,-139.63247680664062,9.43919944763184,-0.81284332275391,-1.76111245155334,16.73129272460938,10.31536769866943,-4.82078981399536
512,2532611846,-153.45683288574219,-80.57963562011719,-139.61459350585938,9.52526664733887,-0.67728167772293,-1.89522945880890,15.27418613433838,11.79516983032227,-5.53218412399292
513,2532628513,-153.23271179199219,-80.82952117919922,-139.67016601562500,9.66887855529785,-0.66047292947769,-2.12133574485779,11.34211730957031,14.10368156433105,-5.94381856918335
514,2532645180,-152.95672607421875,-81.10256195068359,-139.78498840332031,9.81974601745605,-0.66417098045349,-1.99200701713562,10.93480014801025,15.55647659301758,-6.14376497268677
515,2532661847,-152.58882141113281,-81.37246704101562,-139.93594360351562,9.89065074920654,-0.48098182678223,-1.35999023914337,14.30947494506836,15.49352645874023,-5.88023757934570
516,2532678514,-152.28651428222656,-81.62323760986328,-140.11048889160156,9.76030254364014,-0.24243910610676,-0.95975798368454,8.96539592742920,14.51696777343750,-5.28762006759644
517,2532695181,-152.09162902832031,-81.84741210937500,-140.28515625000000,9.80308341979980,-0.25419101119041,-0.87741994857788,2.50131869316101,13.05692005157471,-4.63756656646729
518,2532711848,-152.01354980468750,-82.05354309082031,-140.43237304687500,9.78972339630127,-0.26966699957848,-1.08338284492493,-2.88016200065613,11.96289730072021,-4.39876556396484
519,2532728515,-151.92582702636719,-82.23658752441406,-140.62588500976562,9.58301639556885,-0.62357199192047,-1.26888155937195,-5.04640865325928,10.90236473083496,-3.45907330513000
520,2532745182,-151.67263793945312,-82.40240478515625,-140.83062744140625,9.78302764892578,-0.63919776678085,-1.20841658115387,4.20088768005371,10.00208854675293,-2.95062279701233
521,2532761849,-151.35997009277344,-82.55247497558594,-141.04359436035156,9.80188083648682,-0.24182523787022,-1.07558786869049,7.28021430969238,9.17751312255859,-2.52369713783264
522,2532778516,-151.06898498535156,-82.68375396728516,-141.30551147460938,9.59709072113037,-0.36059290170670,-1.18051338195801,3.05894470214844,8.33462333679199,-1.71984183788300
523,2532795183,-150.64123535156250,-82.77980041503906,-141.63571166992188,9.57834339141846,-0.84078150987625,-1.08272290229797,7.20065975189209,6.71565771102905,-0.31570217013359
524,2532811850,-150.15696716308594,-82.85562896728516,-141.93212890625000,9.70813655853271,-0.29294034838676,-0.75761991739273,12.59837532043457,5.51978969573975,-0.01398454420269
525,2532828517,-149.77362060546875,-82.90870666503906,-142.22033691406250,9.71857833862305,-0.13703504204750,-0.91231060028076,7.02599477767944,4.28890514373779,0.56394696235657
526,2532845184,-149.43566894531250,-82.94945526123047,-142.49380493164062,9.77245712280273,-0.35506185889244,-1.12120866775513,5.18573331832886,3.59622192382812,0.80498802661896
527,2532861851,-149.07482910156250,-82.98843383789062,-142.77717590332031,9.73623371124268,-0.64266812801361,-1.29274547100067,5.95415449142456,3.53130745887756,0.89853858947754
528,2532878518,-148.71266174316406,-83.03097534179688,-143.05847167968750,9.69674968719482,-0.51917034387589,-1.24916601181030,6.17601013183594,3.71478295326233,0.73706310987473
529,2532895185,-148.37896728515625,-83.07569885253906,-143.32437133789062,9.83835792541504,-0.43604841828346,-0.99672889709473,5.37385845184326,3.76101374626160,0.54514712095261
530,2532911852,-148.17388916015625,-83.12882232666016,-143.53051757812500,9.83602333068848,-0.52938115596771,-1.03674495220184,1.21514976024628,3.95426130294800,-0.11153049021959
531,2532928519,-148.03012084960938,-83.18418884277344,-143.70993041992188,9.65921401977539,-0.73346859216690,-1.29009449481964,-0.87487864494324,3.96051168441772,-0.36539080739021
532,2532945186,-147.85423278808594,-83.23738098144531,-143.86039733886719,9.71531867980957,-0.59266644716263,-1.02667617797852,2.77965044975281,3.73424887657166,-0.48939475417137
533,2532961853,-147.74247741699219,-83.29241180419922,-143.96463012695312,9.81227588653564,-0.41803589463234,-0.89562672376633,1.68383646011353,3.64779233932495,-0.83914881944656
534,2532978520,-147.75335693359375,-83.35049438476562,-144.00189208984375,9.71213912963867,-0.50572425127029,-1.14564442634583,-1.68586623668671,3.54561066627502,-1.33704686164856
535,2532995187,-147.68980407714844,-83.40105438232422,-144.08457946777344,9.66537952423096,-0.70178532600403,-1.11264765262604,0.06352590024471,3.32584095001221,-0.83182358741760
536,2533011854,-147.63265991210938,-83.44584655761719,-144.15022277832031,9.74304771423340,-0.43646627664566,-0.87928467988968,0.71339696645737,2.97880220413208,-0.75985205173492
537,2533028521,-147.62632751464844,-83.48783111572266,-144.20066833496094,9.74839591979980,-0.39839744567871,-1.02058112621307,-1.43675720691681,2.77464270591736,-0.75830233097076
538,2533045188,-147.61340332031250,-83.52891540527344,-144.24642944335938,9.73917770385742,-0.52084583044052,-1.08895909786224,-0.76616549491882,2.71171259880066,-0.75854569673538
539,2533061855,-147.62113952636719,-83.56520080566406,-144.27102661132812,9.70208454132080,-0.40132504701614,-0.94189763069153,-0.73710787296295,2.39154100418091,-0.72772085666656
540,2533078522,-147.65602111816406,-83.59140014648438,-144.28997802734375,9.74119567871094,-0.39069861173630,-0.92036908864975,-2.03569746017456,1.85641491413116,-0.43341809511185
541,2533095189,-147.69631958007812,-83.61481475830078,-144.30644226074219,9.75688171386719,-0.42096355557442,-0.95214241743088,-2.21607470512390,1.70451867580414,-0.35572198033333
542,2533111856,-147.77378845214844,-83.64559936523438,-144.29719543457031,9.76263427734375,-0.52340334653854,-1.15170669555664,-2.90124011039734,1.99535083770752,-0.74196141958237
543,2533128523,-147.81822204589844,-83.68453979492188,-144.32014465332031,9.73900318145752,-0.50024271011353,-1.21857643127441,-2.85650801658630,2.51075577735901,-0.81011700630188
544,2533145190,-147.85240173339844,-83.73262023925781,-144.34489440917969,9.81711387634277,-0.41869786381721,-0.96945488452911,-2.33448266983032,2.99194169044495,-1.09933555126190
545,2533161857,-148.03388977050781,-83.78627777099609,-144.27156066894531,9.71672630310059,-0.61830759048462,-1.01659345626831,-5.32233238220215,2.93907690048218,-1.81681132316589
546,2533178524,-148.27586364746094,-83.82562255859375,-144.11180114746094,9.69746685028076,-0.62908178567886,-1.05602848529816,-3.79704427719116,1.92344343662262,-1.82639050483704
547,2533195191,-148.51551818847656,-83.85414123535156,-143.93222045898438,9.71142196655273,-0.35148519277573,-0.78360909223557,-2.47417378425598,1.31538498401642,-1.58442711830139
548,2533211858,-148.85289001464844,-83.86633300781250,-143.70268249511719,9.76189041137695,-0.37547698616982,-0.77493458986282,-5.36632204055786,0.31520909070969,-1.33675241470337
549,2533228525,-149.22895812988281,-83.87139129638672,-143.44381713867188,9.72837734222412,-0.38058143854141,-0.90802496671677,-5.93707466125488,-0.13392880558968,-1.27831697463989
550,2533245192,-149.62817382812500,-83.87116241455078,-143.19224548339844,9.76335620880127,-0.31735733151436,-0.97309690713882,-7.73832845687866,-0.35777109861374,-1.09080672264099
551,2533261859,-150.06832885742188,-83.87168121337891,-142.90522766113281,9.75985240936279,-0.46965017914772,-0.92194926738739,-8.08905601501465,-0.43153569102287,-1.31038451194763
552,2533278526,-150.57054138183594,-83.87596893310547,-142.56408691406250,9.71336269378662,-0.51639020442963,-1.07049775123596,-8.60571479797363,-0.40730598568916,-1.71995687484741
553,2533295193,-151.05894470214844,-83.87760162353516,-142.22625732421875,9.70452308654785,-0.58651322126389,-1.23369765281677,-7.95875167846680,-0.50551801919937,-1.63876485824585
554,2533311860,-151.44161987304688,-83.87193298339844,-141.92190551757812,9.65036296844482,-0.57057058811188,-1.09659719467163,-3.60039043426514,-0.76306641101837,-1.25308859348297
555,2533328527,-151.71098327636719,-83.85343170166016,-141.67070007324219,9.69080352783203,-0.38851395249367,-0.85105842351913,0.00327202258632,-1.28833162784576,-0.58662045001984
556,2533345194,-151.94514465332031,-83.81893157958984,-141.47900390625000,9.71746826171875,-0.26989495754242,-0.84564208984375,-1.41410279273987,-1.94013643264771,0.18380315601826
557,2533361861,-152.16963195800781,-83.77420806884766,-141.30242919921875,9.72159576416016,-0.35716471076012,-0.96964162588120,-1.74202227592468,-2.44063425064087,0.54138201475143
558,2533378528,-152.34179687500000,-83.71896362304688,-141.16754150390625,9.77052783966064,-0.42756578326225,-1.00124049186707,-1.09220230579376,-2.87959742546082,1.06033372879028
559,2533395195,-152.53646850585938,-83.66871643066406,-141.01821899414062,9.74814891815186,-0.52304387092590,-1.24107408523560,-1.57931745052338,-2.66345167160034,0.81894683837891
560,2533411862,-152.66152954101562,-83.62905120849609,-140.91067504882812,9.71547698974609,-0.46264964342117,-1.26172697544098,0.10079238563776,-1.97567403316498,0.75755327939987
561,2533428529,-152.73428344726562,-83.60028076171875,-140.84060668945312,9.69132423400879,-0.39476838707924,-1.26041615009308,1.00215458869934,-1.28603923320770,0.67596399784088
562,2533445196,-152.81085205078125,-83.57700347900391,-140.75114440917969,9.73365688323975,-0.44125106930733,-1.18318462371826,1.93203616142273,-1.05085062980652,0.40242031216621
563,2533461863,-152.83888244628906,-83.55411529541016,-140.67388916015625,9.71078205108643,-0.54250568151474,-1.16851747035980,4.11253499984741,-0.99779385328293,0.46412128210068
564,2533478530,-152.82928466796875,-83.52897644042969,-140.62306213378906,9.71530055999756,-0.44479638338089,-1.04817008972168,4.79796981811523,-1.03221750259399,0.68007487058640
565,2533495197,-152.84190368652344,-83.50339508056641,-140.59642028808594,9.69526290893555,-0.37970817089081,-1.09127771854401,2.02953147888184,-0.98058229684830,0.83590251207352
566,2533511864,-152.86135864257812,-83.47887420654297,-140.57090759277344,9.75966930389404,-0.39531204104424,-1.13511121273041,1.54733347892761,-0.92347848415375,0.81414437294006
567,2533528531,-152.83961486816406,-83.45581817626953,-140.57516479492188,9.70012855529785,-0.52674585580826,-1.23658514022827,2.23685336112976,-0.75414037704468,0.95624381303787
568,2533545198,-152.74800109863281,-83.43236541748047,-140.60523986816406,9.74145317077637,-0.45679897069931,-1.15265381336212,4.89313411712646,-0.69628131389618,1.12674760818481
569,2533561865,-152.68772888183594,-83.40935516357422,-140.62393188476562,9.73836326599121,-0.32068336009979,-1.08910000324249,3.70629286766052,-0.69630694389343,1.04020226001740
570,2533578532,-152.64413452148438,-83.38775634765625,-140.66423034667969,9.69791793823242,-0.51818907260895,-1.22962605953217,1.40314686298370,-0.56212192773819,1.14151322841644
571,2533595199,-152.36502075195312,-83.35488891601562,-140.88012695312500,9.60957527160645,-0.69578599929810,-1.13951992988586,5.05737543106079,-0.60329431295395,2.54172110557556
572,2533611866,-152.11524963378906,-83.31922149658203,-141.02357482910156,9.73831748962402,-0.24434559047222,-0.90254354476929,7.63702344894409,-0.95741569995880,2.17526745796204
573,2533628533,-151.97224426269531,-83.27547454833984,-141.11293029785156,9.73844718933105,-0.25911709666252,-1.02443909645081,4.45344114303589,-1.55866098403931,2.07975792884827
574,2533645200,-151.91003417968750,-83.23503112792969,-141.15676879882812,9.79662990570068,-0.41822415590286,-1.13399636745453,2.31152677536011,-1.52973139286041,1.71115255355835
575,2533661867,-151.87364196777344,-83.19231414794922,-141.19270324707031,9.68673229217529,-0.62252700328827,-1.32984304428101,1.23562717437744,-1.67495536804199,1.72981142997742
576,2533678534,-151.82733154296875,-83.16264343261719,-141.21340942382812,9.79124450683594,-0.48872902989388,-1.21412873268127,2.73769640922546,-1.03420233726501,1.26720750331879
577,2533695201,-151.84120178222656,-83.14456939697266,-141.20574951171875,9.74641036987305,-0.44846975803375,-1.27133989334106,0.81830650568008,-0.51642882823944,0.76063948869705
578,2533711868,-151.80754089355469,-83.13067626953125,-141.25392150878906,9.65496635437012,-0.71595698595047,-1.28709816932678,0.33453387022018,-0.11202995479107,0.99959325790405
579,2533728535,-151.71252441406250,-83.11581420898438,-141.29252624511719,9.75477790832520,-0.46650135517120,-1.07047355175018,4.59758901596069,-0.18734411895275,0.96298003196716
580,2533745202,-151.68719482421875,-83.09487915039062,-141.30630493164062,9.72873020172119,-0.34138965606689,-1.04086530208588,1.88820028305054,-0.59758269786835,0.98336762189865
581,2533761869,-151.70014953613281,-83.07445526123047,-141.29742431640625,9.76035690307617,-0.47005274891853,-1.16016709804535,0.94401371479034,-0.64227688312531,0.82132893800735
582,2533778536,-151.74201965332031,-83.05912780761719,-141.25862121582031,9.74468231201172,-0.55353844165802,-1.29405164718628,0.99650698900223,-0.47666519880295,0.48470118641853
583,2533795203,-151.77549743652344,-83.05223083496094,-141.21943664550781,9.76650142669678,-0.48947739601135,-1.28050398826599,1.51566338539124,-0.03159326314926,0.24255867302418
584,2533811870,-151.83345031738281,-83.05175018310547,-141.16563415527344,9.73705768585205,-0.42678728699684,-1.19646859169006,0.92425352334976,0.25770857930183,-0.03466678783298
585,2533828537,-151.91607666015625,-83.05076599121094,-141.10644531250000,9.71184921264648,-0.56874573230743,-1.13989460468292,-0.24942925572395,0.20325596630573,-0.04842080175877
586,2533845204,-151.88796997070312,-83.04117584228516,-141.12977600097656,9.66210651397705,-0.60556381940842,-1.12808763980865,1.48933362960815,0.03686307743192,0.71899324655533
587,2533861871,-151.85375976562500,-83.02191925048828,-141.13603210449219,9.71941184997559,-0.35205122828484,-1.07300710678101,2.86843729019165,-0.53406327962875,0.88437467813492
588,2533878538,-151.85330200195312,-82.99803161621094,-141.12338256835938,9.71412658691406,-0.43174967169762,-1.11430811882019,1.97299110889435,-0.84252983331680,0.89281392097473
589,2533895205,-151.88220214843750,-82.97476196289062,-141.07949829101562,9.73110675811768,-0.44834196567535,-1.10911285877228,2.06697678565979,-0.91816395521164,0.67353069782257
590,2533911872,-151.97216796875000,-82.95249176025391,-141.00218200683594,9.72224807739258,-0.53799384832382,-1.20094704627991,0.39800211787224,-0.98233658075333,0.42624011635780
591,2533928539,-152.05752563476562,-82.93419647216797,-140.92387390136719,9.73064041137695,-0.51983159780502,-1.28591704368591,0.74068725109100,-0.76925188302994,0.30016162991524
592,2533945206,-152.15930175781250,-82.92457580566406,-140.83459472656250,9.72084045410156,-0.48685097694397,-1.27725660800934,0.39757952094078,-0.35518407821655,-0.01424066070467
593,2533961873,-152.27677917480469,-82.91844940185547,-140.72492980957031,9.75026416778564,-0.49164626002312,-1.22673571109772,0.67337703704834,-0.23990131914616,-0.24641978740692
594,2533978540,-152.38453674316406,-82.91011810302734,-140.62986755371094,9.70198917388916,-0.54434525966644,-1.22953224182129,0.38461947441101,-0.30400994420052,-0.09291005879641
595,2533995207,-152.45727539062500,-82.90068817138672,-140.56335449218750,9.68959808349609,-0.47707319259644,-1.17677605152130,0.78271770477295,-0.27043169736862,0.12736555933952
596,2534011874,-152.55270385742188,-82.88906860351562,-140.47964477539062,9.74251174926758,-0.44553464651108,-1.15171039104462,0.45370978116989,-0.43754175305367,0.06721413135529
597,2534028541,-152.67601013183594,-82.87512207031250,-140.37419128417969,9.72996616363525,-0.44045642018318,-1.14717221260071,0.06903262436390,-0.64112430810928,-0.01055243145674
598,2534045208,-152.80828857421875,-82.85814666748047,-140.25727844238281,9.67052936553955,-0.55815851688385,-1.20978724956512,0.21671546995640,-0.83896964788437,-0.01012982334942
599,2534061875,-152.90985107421875,-82.83757019042969,-140.15486145019531,9.70839405059814,-0.43247860670090,-1.17884647846222,1.19929540157318,-0.97700917720795,0.17754082381725
600,2534078542,-153.05703735351562,-82.82083129882812,-140.03468322753906,9.74684143066406,-0.42454898357391,-1.22407484054565,-0.48542469739914,-0.83928972482681,-0.04724262654781
601,2534095209,-153.22599792480469,-82.80748748779297,-139.91093444824219,9.74370288848877,-0.49951744079590,-1.27737057209015,-1.58223724365234,-0.67540681362152,-0.16445913910866
602,2534111876,-153.38775634765625,-82.79883575439453,-139.78297424316406,9.69073390960693,-0.61236441135406,-1.32792055606842,-0.89912098646164,-0.42832118272781,-0.32862371206284
603,2534128543,-153.51541137695312,-82.79127502441406,-139.66793823242188,9.68655395507812,-0.49688181281090,-1.25977623462677,0.38769301772118,-0.32406467199326,-0.27500352263451
604,2534145210,-153.66590881347656,-82.78703308105469,-139.54309082031250,9.74325561523438,-0.39201310276985,-1.20482778549194,-0.41573256254196,-0.18556401133537,-0.42797544598579
605,2534161877,-153.83506774902344,-82.78083038330078,-139.41574096679688,9.72242546081543,-0.41627016663551,-1.19430291652679,-1.37300729751587,-0.29090905189514,-0.39910989999771
606,2534178544,-154.00869750976562,-82.77284240722656,-139.28968811035156,9.70057106018066,-0.49510222673416,-1.21672749519348,-1.72939515113831,-0.38792997598648,-0.34181430935860
607,2534195211,-154.18392944335938,-82.76432800292969,-139.15260314941406,9.69882869720459,-0.52250850200653,-1.27519798278809,-1.15445411205292,-0.43951395153999,-0.41354265809059
608,2534211878,-154.31604003906250,-82.75380706787109,-139.03306579589844,9.71292877197266,-0.44057443737984,-1.21988010406494,0.37808820605278,-0.49610513448715,-0.24082340300083
609,2534228545,-154.45886230468750,-82.73920440673828,-138.89997863769531,9.72205638885498,-0.41700109839439,-1.16096162796021,0.54166364669800,-0.76350170373917,-0.22946415841579
610,2534245212,-154.59590148925781,-82.71994018554688,-138.78358459472656,9.68631649017334,-0.42873135209084,-1.20937669277191,-0.09967181831598,-0.95595550537109,-0.00358577771112
611,2534261879,-154.71282958984375,-82.69669342041016,-138.68705749511719,9.68838500976562,-0.40372237563133,-1.22600877285004,-0.08278024941683,-1.11299991607666,0.23340210318565
612,2534278546,-154.83309936523438,-82.66912841796875,-138.59782409667969,9.72034549713135,-0.39781334996223,-1.24048602581024,-0.70431083440781,-1.31513535976410,0.38341572880745
613,2534295213,-154.92391967773438,-82.63787841796875,-138.53369140625000,9.72960948944092,-0.42246225476265,-1.31252920627594,-0.44633969664574,-1.44454348087311,0.65195208787918
614,2534311880,-154.99404907226562,-82.60898590087891,-138.48405456542969,9.69959068298340,-0.48007532954216,-1.29865837097168,-0.06555570662022,-1.26494717597961,0.68668287992477
615,2534328547,-155.04713439941406,-82.58000183105469,-138.44438171386719,9.67549133300781,-0.47660344839096,-1.31467652320862,0.36763828992844,-1.24394476413727,0.75697690248489
616,2534345214,-155.07646179199219,-82.55381774902344,-138.42962646484375,9.73126506805420,-0.43949985504150,-1.31542658805847,0.31625920534134,-0.99929231405258,0.85447174310684
617,2534361881,-155.09608459472656,-82.52824401855469,-138.42463684082031,9.74409866333008,-0.39071902632713,-1.30708789825439,0.30144223570824,-0.94745212793350,0.91311186552048
618,2534378548,-155.09481811523438,-82.50260925292969,-138.43716430664062,9.70250320434570,-0.50235015153885,-1.31824946403503,0.53006124496460,-0.88559758663177,1.03495156764984
619,2534395215,-155.07409667968750,-82.47940063476562,-138.45233154296875,9.70566368103027,-0.47969582676888,-1.36437833309174,1.53512918949127,-0.74449712038040,0.99274176359177
620,2534411882,-155.06068420410156,-82.46298217773438,-138.46960449218750,9.73231983184814,-0.42385432124138,-1.35672354698181,0.96748775243759,-0.36996260285378,0.83880949020386
621,2534428549,-155.06594848632812,-82.45197296142578,-138.48150634765625,9.73159885406494,-0.45756497979164,-1.35175263881683,0.16381242871284,-0.09623971581459,0.66469436883926
622,2534445216,-155.05308532714844,-82.44283294677734,-138.50497436523438,9.66702365875244,-0.56479966640472,-1.36286652088165,0.57770091295242,0.05262769758701,0.69582664966583
623,2534461883,-154.98173522949219,-82.43625640869141,-138.56192016601562,9.70203399658203,-0.49217712879181,-1.32004964351654,2.08143496513367,0.29824069142342,0.87464177608490
624,2534478550,-154.91030883789062,-82.43257904052734,-138.62210083007812,9.70242595672607,-0.40904676914215,-1.33675241470337,1.89566648006439,0.46870604157448,0.82442796230316
625,2534495217,-154.83692932128906,-82.42731475830078,-138.69042968750000,9.71356391906738,-0.40699368715286,-1.24303483963013,1.52716338634491,0.40655675530434,0.92563641071320
626,2534511884,-154.78242492675781,-82.41905212402344,-138.74792480468750,9.71857261657715,-0.46715310215950,-1.24498665332794,1.04430031776428,0.21207955479622,0.92223006486893
627,2534528551,-154.72723388671875,-82.40699768066406,-138.80062866210938,9.69748401641846,-0.46905285120010,-1.30116474628448,1.37206578254700,-0.00512253958732,0.98348289728165
628,2534545218,-154.65643310546875,-82.39459991455078,-138.86456298828125,9.70878791809082,-0.45679312944412,-1.34184157848358,1.63985919952393,0.01181385573000,1.07664895057678
629,2534561885,-154.57975769042969,-82.38397979736328,-138.94081115722656,9.74898433685303,-0.42218866944313,-1.33018243312836,1.25240361690521,0.14891865849495,1.12258541584015
630,2534578552,-154.49105834960938,-82.37478637695312,-139.03219604492188,9.69936656951904,-0.52794319391251,-1.36512351036072,1.07880055904388,0.28043985366821,1.19494128227234
631,2534595219,-154.37747192382812,-82.36576080322266,-139.12553405761719,9.66796779632568,-0.50992619991302,-1.31783890724182,2.45841574668884,0.29863765835762,1.20571148395538
632,2534611886,-154.25846862792969,-82.35409545898438,-139.22274780273438,9.70968437194824,-0.43096759915352,-1.28846526145935,2.54496145248413,0.17205971479416,1.30357754230499
633,2534628553,-154.16317749023438,-82.34317016601562,-139.31317138671875,9.72944831848145,-0.42950117588043,-1.31605875492096,1.53523159027100,0.19233213365078,1.23551177978516
634,2534645220,-154.05102539062500,-82.33107757568359,-139.42803955078125,9.70833301544189,-0.50157546997070,-1.33948731422424,1.09223437309265,0.21741980314255,1.44411444664001
635,2534661887,-153.93524169921875,-82.31852722167969,-139.54180908203125,9.69792938232422,-0.50485044717789,-1.35591793060303,1.37305176258087,0.19029591977596,1.45026123523712
636,2534678554,-153.80018615722656,-82.30961608886719,-139.67524719238281,9.72018527984619,-0.51086372137070,-1.37597107887268,1.36150074005127,0.45957505702972,1.49742734432220
637,2534695221,-153.66979980468750,-82.30186462402344,-139.79910278320312,9.71447086334229,-0.45730528235435,-1.31829619407654,1.65468919277191,0.49050241708755,1.39886975288391
638,2534711888,-153.54747009277344,-82.29410552978516,-139.92079162597656,9.68397235870361,-0.49966526031494,-1.28171861171722,1.29301226139069,0.48397114872932,1.38588392734528
639,2534728555,-153.42175292968750,-82.28398895263672,-140.04711914062500,9.68829250335693,-0.54216456413269,-1.28925454616547,1.23338592052460,0.38949871063232,1.47564351558685
640,2534745222,-153.27557373046875,-82.27304840087891,-140.18104553222656,9.68537521362305,-0.49816220998764,-1.31131732463837,1.99153459072113,0.35731634497643,1.56507015228271
641,2534761889,-153.11102294921875,-82.25960540771484,-140.32965087890625,9.71374511718750,-0.47856068611145,-1.28031885623932,2.22559618949890,0.28795719146729,1.73731577396393
642,2534778556,-152.93553161621094,-82.24427795410156,-140.49182128906250,9.69957542419434,-0.50394833087921,-1.30970203876495,2.08165287971497,0.24410821497440,1.88668906688690
643,2534795223,-152.77116394042969,-82.22905731201172,-140.63883972167969,9.70033264160156,-0.54618853330612,-1.34255516529083,2.30822300910950,0.19552093744278,1.78130578994751
644,2534811890,-152.60028076171875,-82.21555328369141,-140.79435729980469,9.71561622619629,-0.54340690374374,-1.35916173458099,2.20682215690613,0.33135786652565,1.79157614707947
645,2534828557,-152.43002319335938,-82.20372009277344,-140.94549560546875,9.69825744628906,-0.56531053781509,-1.33502638339996,2.42232775688171,0.40680015087128,1.71975839138031
646,2534845224,-152.26075744628906,-82.19058227539062,-141.09507751464844,9.67753887176514,-0.51941055059433,-1.32117664813995,2.45993971824646,0.34030956029892,1.74327087402344
647,2534861891,-152.07089233398438,-82.17301177978516,-141.25776672363281,9.69308853149414,-0.47931337356567,-1.26189208030701,2.91094064712524,0.15478391945362,1.96870088577271
648,2534878558,-151.88153076171875,-82.14875030517578,-141.41996765136719,9.69321060180664,-0.49885949492455,-1.22416281700134,2.91794633865356,-0.19000782072544,2.15564799308777
649,2534895225,-151.68647766113281,-82.11947631835938,-141.59136962890625,9.71759986877441,-0.50041550397873,-1.27903389930725,2.70828080177307,-0.41349142789841,2.37204980850220
650,2534911892,-151.50752258300781,-82.08879852294922,-141.74998474121094,9.69881629943848,-0.58289676904678,-1.35092318058014,2.50104784965515,-0.53161716461182,2.32887935638428
651,2534928559,-151.31478881835938,-82.05898284912109,-141.91253662109375,9.68984127044678,-0.57520252466202,-1.33942639827728,3.09169030189514,-0.46018347144127,2.34002161026001
652,2534945226,-151.11203002929688,-82.03070068359375,-142.08332824707031,9.70392227172852,-0.55036783218384,-1.34690332412720,3.21104526519775,-0.33290109038353,2.36029362678528
653,2534961893,-150.90821838378906,-82.00006866455078,-142.26057434082031,9.68984889984131,-0.53153032064438,-1.31272447109222,2.88838958740234,-0.42117533087730,2.48395204544067
654,2534978560,-150.68988037109375,-81.96809387207031,-142.45294189453125,9.67895412445068,-0.60868954658508,-1.33602440357208,2.86318635940552,-0.42358285188675,2.64478683471680
655,2534995227,-150.46281433105469,-81.92963409423828,-142.64485168457031,9.71535491943359,-0.52094823122025,-1.30894267559052,3.42140197753906,-0.74304997920990,2.83648467063904
656,2535011894,-150.23371887207031,-81.88468170166016,-142.84703063964844,9.69513416290283,-0.49088117480278,-1.28908252716064,2.92853689193726,-1.02833712100983,3.11953067779541
657,2535028561,-150.01327514648438,-81.83689880371094,-143.04806518554688,9.67757415771484,-0.62385958433151,-1.34544110298157,2.47808647155762,-1.16419982910156,3.21090435981750
658,2535045228,-149.76931762695312,-81.78534698486328,-143.25640869140625,9.69361114501953,-0.63612931966782,-1.33870065212250,3.45606923103333,-1.31462311744690,3.39463686943054
659,2535061895,-149.51969909667969,-81.73656463623047,-143.47508239746094,9.71328926086426,-0.58870542049408,-1.36863589286804,3.19091391563416,-1.10157692432404,3.39950394630432
660,2535078562,-149.26283264160156,-81.68525695800781,-143.70549011230469,9.68779277801514,-0.61840975284576,-1.39301216602325,2.92673158645630,-1.16295742988586,3.58483672142029
661,2535095229,-148.98361206054688,-81.63590240478516,-143.95269775390625,9.69734668731689,-0.62320280075073,-1.38599228858948,3.27081203460693,-0.96699470281601,3.66761660575867
662,2535111896,-148.70655822753906,-81.58800506591797,-144.19763183593750,9.69445896148682,-0.63210844993591,-1.37144267559052,3.27103018760681,-0.88169163465500,3.62591958045959
663,2535128563,-148.41751098632812,-81.53903198242188,-144.45118713378906,9.71727943420410,-0.63324642181396,-1.36569917201996,3.48636889457703,-0.87372606992722,3.74001145362854
664,2535145230,-148.12495422363281,-81.49185180664062,-144.72262573242188,9.69395828247070,-0.67050296068192,-1.39645361900330,2.63954925537109,-0.67326831817627,3.83486866950989
665,2535161897,-147.80793762207031,-81.44983673095703,-145.01924133300781,9.69561958312988,-0.74976933002472,-1.51456677913666,2.61753487586975,-0.26345223188400,3.87463235855103
666,2535178564,-147.45175170898438,-81.41208648681641,-145.33517456054688,9.68290710449219,-0.68541151285172,-1.47573268413544,3.81779694557190,0.06909665465355,3.90143537521362
