sep=,
DeviceTag:,Xsens_DOT_2
FirmwareVersion:,3.0.0
AppVersion:,2023.6.0
StartTime: ,2025-04-09_11:04:29_000 CEST
© Movella Technologies B. V. 2005-2025

PacketCounter,SampleTimeFine,Euler_X,Euler_Y,Euler_Z,Acc_X,Acc_Y,Acc_Z,Gyr_X,Gyr_Y,Gyr_Z
0,2524061675,82.74388885498047,-86.41428375244141,-54.15768814086914,0.00000000000000,0.00000000000000,0.00000000000000,0.00000000000000,0.00000000000000,0.00000000000000
1,2524078342,82.35903930664062,-86.41253662109375,-53.76275253295898,9.82235813140869,0.48883372545242,0.19490970671177,1.08258461952209,0.46264216303825,0.77502739429474
2,2524095009,81.97083282470703,-86.41100311279297,-53.36784362792969,9.77248382568359,0.48660400509834,0.21533083915710,0.90124678611755,0.46221956610680,0.80792701244354
3,2524111676,81.67626953125000,-86.41007995605469,-53.06443786621094,9.74781513214111,0.46967312693596,0.20845517516136,1.06612873077393,0.12037968635559,0.79924428462982
4,2524128343,81.51457214355469,-86.41024017333984,-52.88934326171875,9.75777053833008,0.45996013283730,0.19034568965435,1.33111751079559,-0.36703637242317,0.81082117557526
5,2524145010,81.30124664306641,-86.40926361083984,-52.66512298583984,9.76598548889160,0.49513417482376,0.20816150307655,1.24147319793701,-0.16935756802559,0.75393545627594
6,2524161677,81.12899780273438,-86.41155242919922,-52.48667526245117,9.75692558288574,0.48674157261848,0.19140908122063,0.97365403175354,-0.36957204341888,0.93728405237198
7,2524178344,80.96103668212891,-86.41264343261719,-52.30429840087891,9.80288505554199,0.45761629939079,0.14209906756878,1.20133805274963,-0.36187544465065,0.86322486400604
8,2524195011,80.73852539062500,-86.40931701660156,-52.06808853149414,9.84895801544189,0.47203743457794,0.24558889865875,1.26078498363495,-0.11178021878004,0.61991691589355
9,2524211678,80.33525848388672,-86.40408325195312,-51.64639282226562,9.84601497650146,0.50379127264023,0.22184267640114,1.61558485031128,0.59874796867371,0.64492768049240
10,2524228345,79.93592834472656,-86.40152740478516,-51.24578857421875,9.80655670166016,0.53661060333252,0.22039154171944,0.55748599767685,0.49248096346855,0.80089622735977
11,2524245012,79.65673065185547,-86.40447235107422,-50.97188568115234,9.72764396667480,0.52207154035568,0.26792749762535,0.28504371643066,-0.02637467533350,1.05024874210358
12,2524261679,79.59439086914062,-86.41105651855469,-50.91988372802734,9.68491458892822,0.52906066179276,0.27441498637199,-0.07432164996862,-0.88970190286636,1.11266672611237
13,2524278346,79.70032501220703,-86.42116546630859,-51.03866195678711,9.75110244750977,0.48789048194885,0.18456652760506,-0.12183319032192,-1.55193078517914,1.22460699081421
14,2524295013,79.60515594482422,-86.42581939697266,-50.95416259765625,9.80424404144287,0.46025398373604,0.22722454369068,-0.00873393006623,-0.74534237384796,1.02916312217712
15,2524311680,79.49761962890625,-86.42510986328125,-50.84868240356445,9.76748275756836,0.43130242824554,0.23968690633774,0.35779657959938,-0.61871957778931,0.71518337726593
16,2524328347,79.41679382324219,-86.42313385009766,-50.76736068725586,9.78107547760010,0.43972858786583,0.23085168004036,0.61301434040070,-0.68739998340607,0.63247996568680
17,2524345014,79.29405975341797,-86.42193603515625,-50.63960647583008,9.80827903747559,0.44906523823738,0.24891963601112,0.85490065813065,-0.52802503108978,0.72028034925461
18,2524361681,79.17266845703125,-86.42198944091797,-50.51205062866211,9.79275894165039,0.47705280780792,0.22758795320988,1.02117836475372,-0.53532469272614,0.78648918867111
19,2524378348,79.20298767089844,-86.42346191406250,-50.53999328613281,9.75931453704834,0.46500465273857,0.28634327650070,0.99554008245468,-1.10968947410583,0.78036779165268
20,2524395015,79.36447906494141,-86.42971038818359,-50.69165802001953,9.76217555999756,0.47419917583466,0.26083931326866,1.11821210384369,-1.63800263404846,0.96173119544983
21,2524411682,79.50812530517578,-86.43503570556641,-50.82268524169922,9.78885555267334,0.46390205621719,0.22520376741886,1.37679791450500,-1.54344058036804,0.92059737443924
22,2524428349,79.63188171386719,-86.43805694580078,-50.93427276611328,9.79700565338135,0.44592976570129,0.25746148824692,1.32643055915833,-1.44667565822601,0.79924428462982
23,2524445016,79.78704071044922,-86.43811798095703,-51.07543182373047,9.77770423889160,0.43781927227974,0.26333630084991,1.33031094074249,-1.53013479709625,0.59511107206345
24,2524461683,79.88125610351562,-86.43904876708984,-51.15189743041992,9.78901004791260,0.46046304702759,0.25649201869965,1.17115342617035,-1.32651364803314,0.67068129777908
25,2524478350,79.95288085937500,-86.43927001953125,-51.21492767333984,9.79029941558838,0.47360563278198,0.22312094271183,1.22016334533691,-1.23351395130157,0.67941522598267
26,2524495017,80.01300048828125,-86.44268035888672,-51.26488113403320,9.78508090972900,0.50860434770584,0.23524297773838,1.24041032791138,-1.22066926956177,0.85892188549042
27,2524511684,80.05361938476562,-86.44322967529297,-51.29682922363281,9.80560398101807,0.47472521662712,0.25386705994606,1.08159875869751,-1.13099920749664,0.71024018526077
28,2524528351,80.08007049560547,-86.44163513183594,-51.31819534301758,9.78291034698486,0.46373423933983,0.29778096079826,0.90362882614136,-1.06571245193481,0.58085757493973
29,2524545018,80.16670989990234,-86.44229125976562,-51.40813827514648,9.75183391571045,0.48653358221054,0.24759148061275,0.38535588979721,-1.34071588516235,0.66873472929001
30,2524561685,80.21942901611328,-86.44245910644531,-51.46589279174805,9.81137371063232,0.46940281987190,0.24124704301357,0.18985415995121,-1.22615039348602,0.67480498552322
31,2524578352,80.22326660156250,-86.44091796875000,-51.47665405273438,9.79296779632568,0.43591362237930,0.27567172050476,0.03432101756334,-1.03720545768738,0.58682531118393
32,2524595019,80.28615570068359,-86.43838500976562,-51.54930114746094,9.78186893463135,0.43502098321915,0.26507949829102,-0.04124284908175,-1.24904811382294,0.49942204356194
33,2524611686,80.47885894775391,-86.44097900390625,-51.74637603759766,9.81409835815430,0.45995441079140,0.27392241358757,0.12757045030594,-1.76746821403503,0.72462809085846
34,2524628353,80.61325073242188,-86.44438171386719,-51.88732528686523,9.84502601623535,0.47014155983925,0.22700493037701,0.15494404733181,-1.55619573593140,0.80033284425735
35,2524645020,80.61579132080078,-86.44273376464844,-51.90458297729492,9.81091403961182,0.47939932346344,0.23217667639256,-0.34226888418198,-1.05500626564026,0.58800351619720
36,2524661687,80.58981323242188,-86.43959808349609,-51.88159942626953,9.77285289764404,0.42787098884583,0.24382080137730,0.24574102461338,-0.90144526958466,0.51833695173264
37,2524678354,80.49961090087891,-86.43745422363281,-51.79560470581055,9.77044010162354,0.44912219047546,0.27375477552414,0.17330192029476,-0.67704606056213,0.60139256715775
38,2524695021,80.40975952148438,-86.43421173095703,-51.71526336669922,9.79267311096191,0.46642547845840,0.27939423918724,-0.05155836045742,-0.68266814947128,0.55101239681244
39,2524711688,80.34849548339844,-86.43212127685547,-51.66279220581055,9.77863979339600,0.45483812689781,0.22941893339157,0.07450093328953,-0.78911453485489,0.60883307456970
40,2524728355,80.16654968261719,-86.42900085449219,-51.49316024780273,9.80276012420654,0.43857520818710,0.26351648569107,-0.11900299787521,-0.34792929887772,0.62087744474411
41,2524745022,80.04861450195312,-86.41931152343750,-51.37850189208984,9.83496379852295,0.40371805429459,0.29366025328636,0.13098332285881,-0.49853193759918,0.17904557287693
42,2524761689,79.86848449707031,-86.41231536865234,-51.20205688476562,9.82869434356689,0.44340652227402,0.23103399574757,0.60253876447678,-0.26393246650696,0.38936424255371
43,2524778356,79.43564605712891,-86.41122436523438,-50.76124572753906,9.84682178497314,0.44167503714561,0.17470787465572,0.26579582691193,0.58040940761566,0.90410274267197
44,2524795023,78.93005371093750,-86.40696716308594,-50.25929260253906,9.77503204345703,0.41651695966721,0.27774634957314,0.21453195810318,0.88399678468704,0.78309553861618
45,2524811690,78.39831542968750,-86.39570617675781,-49.74035644531250,9.72068977355957,0.47440963983536,0.32529708743095,-0.23464435338974,1.03976035118103,0.40786948800087
46,2524828357,78.00886535644531,-86.38491058349609,-49.36947631835938,9.76943492889404,0.47319009900093,0.26671186089516,-0.61303359270096,0.49134120345116,0.34660387039185
47,2524845024,77.62889862060547,-86.37847137451172,-49.00512313842773,9.80175685882568,0.44478300213814,0.29331153631210,-0.45728272199631,0.41625759005547,0.60413950681686
48,2524861691,77.37528228759766,-86.37135314941406,-48.76203155517578,9.76568031311035,0.41661378741264,0.32468363642693,-0.17925687134266,-0.02056059613824,0.47073578834534
49,2524878358,77.25675201416016,-86.36374664306641,-48.65823745727539,9.76662540435791,0.42565450072289,0.33126050233841,-0.30765333771706,-0.52032840251923,0.33845904469490
50,2524895025,77.28967285156250,-86.35830688476562,-48.70612335205078,9.77769756317139,0.43692496418953,0.24995020031929,-0.19202479720116,-1.09884238243103,0.32952013611794
51,2524911692,77.24149322509766,-86.35482025146484,-48.66597366333008,9.78671646118164,0.43480053544044,0.28035116195679,0.08343336731195,-0.80853527784348,0.51925903558731
52,2524928359,77.02603912353516,-86.35009765625000,-48.45372009277344,9.80951881408691,0.41501885652542,0.32773435115814,-0.06107988208532,-0.18212549388409,0.58238160610199
53,2524945026,76.88484954833984,-86.34864807128906,-48.32371139526367,9.80658626556396,0.47036573290825,0.36686635017395,-0.32384055852890,-0.51534670591354,0.71285259723663
54,2524961693,76.82400512695312,-86.34783935546875,-48.27544403076172,9.81447792053223,0.50518858432770,0.33111122250557,-0.53095769882202,-0.83612018823624,0.66773587465286
55,2524978360,76.86106109619141,-86.35025787353516,-48.32930374145508,9.81872177124023,0.49847331643105,0.28162175416946,-0.45811516046524,-1.23893105983734,0.78757768869400
56,2524995027,76.71372222900391,-86.34794616699219,-48.19725036621094,9.81371021270752,0.46159517765045,0.29518938064575,-0.40216419100761,-0.48432973027229,0.66431653499603
57,2525011694,76.51452636718750,-86.33937835693359,-48.01997756958008,9.75796413421631,0.45023733377457,0.30491459369659,-0.49987667798996,-0.20834010839462,0.35784780979156
58,2525028361,76.37688446044922,-86.33264923095703,-47.88856124877930,9.77602005004883,0.44444745779037,0.30756455659866,-0.32587677240372,-0.45395305752754,0.39188706874847
59,2525045028,76.19126892089844,-86.32944488525391,-47.71112823486328,9.82634353637695,0.43683019280434,0.32485172152519,-0.22337475419044,-0.31655374169350,0.65168952941895
60,2525061695,75.97705078125000,-86.32411193847656,-47.51248168945312,9.81889152526855,0.45569106936455,0.31463113427162,0.04192798584700,-0.15744766592979,0.56984412670135
61,2525078362,75.72370910644531,-86.31719970703125,-47.26966857910156,9.79506015777588,0.47599676251411,0.36662560701370,-0.30872905254364,-0.01470809243619,0.51505851745605
62,2525095029,75.53854370117188,-86.31369018554688,-47.09645462036133,9.77443599700928,0.46897667646408,0.33412861824036,-0.32076704502106,-0.31751424074173,0.65076744556427
63,2525111696,75.33235931396484,-86.31087493896484,-46.89839553833008,9.78781509399414,0.46881932020187,0.28760215640068,-0.12707100808620,-0.23529748618603,0.71323692798615
64,2525128363,75.10213470458984,-86.30673217773438,-46.67616653442383,9.79590797424316,0.48631772398949,0.31012153625488,0.00936144124717,-0.11449517309666,0.65761882066727
65,2525145030,74.96809387207031,-86.30021667480469,-46.56102371215820,9.77497863769531,0.46749988198280,0.31461668014526,-0.25731796026230,-0.45229458808899,0.44822856783867
66,2525161697,74.94055175781250,-86.29434967041016,-46.54228973388672,9.78789615631104,0.45242026448250,0.29380953311920,0.15073072910309,-0.83207327127457,0.37006506323814
67,2525178364,74.96674346923828,-86.28754425048828,-46.57245635986328,9.82931900024414,0.48470056056976,0.35665017366409,0.16535559296608,-1.02007067203522,0.25820165872574
68,2525195031,75.12627410888672,-86.28237915039062,-46.74409866333008,9.74952030181885,0.51635056734085,0.39520937204361,-0.09890985488892,-1.56144630908966,0.22180598974228
69,2525211698,75.53730010986328,-86.28443145751953,-47.18330764770508,9.71425342559814,0.49725681543350,0.38295808434486,-1.07257652282715,-2.67963266372681,0.37103834748268
70,2525228365,76.01106262207031,-86.28865051269531,-47.68671035766602,9.70206737518311,0.50575035810471,0.42694008350372,-1.45169568061829,-2.97351264953613,0.43952670693398
71,2525245032,76.67176818847656,-86.29261016845703,-48.38108062744141,9.73840618133545,0.48392534255981,0.39767527580261,-1.42103755474091,-3.67240667343140,0.29471254348755
72,2525261699,77.40220642089844,-86.29620361328125,-49.14889526367188,9.79165172576904,0.53164654970169,0.35746628046036,-1.73634266853333,-3.94866514205933,0.20911489427090
73,2525278366,78.19677734375000,-86.29905700683594,-49.98746109008789,9.84424304962158,0.48873004317284,0.33003303408623,-1.77321231365204,-4.19117975234985,0.19108358025551
74,2525295033,78.82678222656250,-86.29482269287109,-50.65957260131836,9.92112350463867,0.45721790194511,0.37649148702621,-1.88116991519928,-3.49543619155884,-0.07188845425844
75,2525311700,79.49716949462891,-86.28717041015625,-51.37142944335938,9.93779087066650,0.48574447631836,0.33766379952431,-1.92407095432281,-3.62534284591675,-0.28553679585457
76,2525328367,80.03826141357422,-86.28137207031250,-51.93989562988281,9.92603492736816,0.52033889293671,0.20834060013294,-1.05138206481934,-3.10940051078796,-0.04400901868939
77,2525345034,80.28547668457031,-86.27764129638672,-52.21935272216797,9.87979602813721,0.50043237209320,0.26889830827713,-1.33121371269226,-2.03160595893860,0.27838441729546
78,2525361701,80.46267700195312,-86.27290344238281,-52.41790008544922,9.84014034271240,0.43732243776321,0.25779318809509,-0.88633376359940,-1.72686553001404,0.26779356598854
79,2525378368,80.55888366699219,-86.27149200439453,-52.53367614746094,9.81064701080322,0.48876541852951,0.31362903118134,-0.36316886544228,-1.41615808010101,0.54633170366287
80,2525395035,80.54169464111328,-86.27474975585938,-52.53867721557617,9.80080986022949,0.51499420404434,0.28432562947273,-0.65982794761658,-1.04643881320953,0.88733911514282
81,2525411702,80.52932739257812,-86.27632904052734,-52.53402709960938,9.74579906463623,0.46985143423080,0.30569627881050,-0.56463837623596,-1.04337823390961,0.74822384119034
82,2525428369,80.60593414306641,-86.27327728271484,-52.62677383422852,9.71591281890869,0.47220298647881,0.33564308285713,-0.45972871780396,-1.33199477195740,0.45682814717293
83,2525445036,81.05145263671875,-86.27658843994141,-53.07622909545898,9.75041103363037,0.44984042644501,0.29370167851448,-0.32435283064842,-2.80285549163818,0.56575894355774
84,2525461703,81.86173248291016,-86.28405761718750,-53.86411666870117,9.78390979766846,0.45928612351418,0.19157944619656,1.45174062252045,-4.12904214859009,0.66751819849014
85,2525478370,82.30252075195312,-86.28422546386719,-54.29584121704102,9.82502365112305,0.46120187640190,0.14823481440544,0.94261133670807,-2.67374157905579,0.46147677302361
86,2525495037,82.38549041748047,-86.27632904052734,-54.36526870727539,9.82472705841064,0.47083702683449,0.23963619768620,1.39637851715088,-1.20430254936218,0.18907290697098
87,2525511704,82.51875305175781,-86.27043914794922,-54.48714447021484,9.82945346832275,0.52862119674683,0.22839838266373,1.33063089847565,-1.42060184478760,0.28071516752243
88,2525528371,82.96303558349609,-86.26666259765625,-54.92510604858398,9.82384872436523,0.52863365411758,0.21414332091808,0.86290472745895,-2.66942596435547,0.22397024929523
89,2525545038,83.47282409667969,-86.26781463623047,-55.42597198486328,9.77409839630127,0.55245000123978,0.17906318604946,1.08103513717651,-2.94937252998352,0.52666103839874
90,2525561705,83.88661193847656,-86.26943969726562,-55.83964538574219,9.72392940521240,0.53688514232635,0.17210167646408,0.53000360727310,-2.61750912666321,0.60744357109070
91,2525578372,84.16160583496094,-86.26839447021484,-56.12048339843750,9.71141338348389,0.48772197961807,0.19413013756275,-0.08994539827108,-2.10424351692200,0.49864083528519
92,2525595039,84.45380401611328,-86.26676177978516,-56.43082809448242,9.75146675109863,0.49317198991776,0.18809629976749,-0.40032008290291,-2.18605041503906,0.47359165549278
93,2525611706,84.56002807617188,-86.26414489746094,-56.55760574340820,9.77077293395996,0.44656920433044,0.18081669509411,-0.85659110546112,-1.48992896080017,0.48116651177406
94,2525628373,84.54579925537109,-86.26115417480469,-56.59436416625977,9.76620006561279,0.45017513632774,0.22164769470692,-0.86650961637497,-1.01487123966217,0.55205613374710
95,2525645040,84.62730407714844,-86.26068878173828,-56.70339965820312,9.77968692779541,0.47126755118370,0.21051736176014,-0.97848820686340,-1.41358411312103,0.61784231662750
96,2525661707,84.85023498535156,-86.26555633544922,-56.94749450683594,9.77373600006104,0.46467006206512,0.20353361964226,-0.61906540393829,-1.97118556499481,0.90862339735031
97,2525678374,85.07338714599609,-86.27510833740234,-57.18399429321289,9.75903320312500,0.52650916576385,0.19169223308563,-0.33525106310844,-1.97355461120605,1.17440640926361
98,2525695041,85.46138000488281,-86.28632354736328,-57.59122848510742,9.73041725158691,0.52067303657532,0.22482341527939,-0.89105957746506,-2.65368723869324,1.22724545001984
99,2525711708,85.96063995361328,-86.30514526367188,-58.12237548828125,9.77106380462646,0.47324404120445,0.16536878049374,-0.97969222068787,-3.10838937759399,1.66415965557098
100,2525728375,86.45938110351562,-86.32688140869141,-58.65230178833008,9.81574821472168,0.42690637707710,0.12117432802916,-0.94838064908981,-3.09778523445129,1.87273645401001
101,2525745042,86.75724029541016,-86.34618377685547,-58.96496200561523,9.80881690979004,0.46810626983643,0.14382402598858,-0.49973577260971,-2.27402973175049,1.76694333553314
102,2525761709,87.12747955322266,-86.36670684814453,-59.34763717651367,9.84639644622803,0.49983236193657,0.15065538883209,-0.34746828675270,-2.53028512001038,1.82799124717712
103,2525778376,87.47055053710938,-86.38887023925781,-59.71069717407227,9.78881072998047,0.49946352839470,0.15967868268490,-0.45826241374016,-2.42196273803711,1.96208012104034
104,2525795043,87.82582092285156,-86.40921020507812,-60.08201217651367,9.71498489379883,0.49293130636215,0.12151049822569,-0.44870257377625,-2.44691562652588,1.85309207439423
105,2525811710,88.23554229736328,-86.42351531982422,-60.50917816162109,9.70651435852051,0.56626290082932,0.12550373375416,-0.35081073641777,-2.61712479591370,1.50050711631775
106,2525828377,88.64039611816406,-86.43817138671875,-60.93671417236328,9.78409004211426,0.62619221210480,0.06058046966791,-0.31285274028778,-2.58334159851074,1.52994906902313
107,2525845044,88.66109466552734,-86.45364379882812,-60.98131561279297,9.83108806610107,0.56454813480377,0.11958235502243,-0.95160788297653,-1.18969070911407,1.63891816139221
108,2525861711,88.61989593505859,-86.46559143066406,-60.96572113037109,9.84501171112061,0.51127344369888,0.23274324834347,-1.23885440826416,-0.97495388984680,1.38859260082245
109,2525878378,88.72628021240234,-86.47780609130859,-61.08660507202148,9.84788799285889,0.47382345795631,0.13905100524426,-0.64552325010300,-1.48239278793335,1.40393447875977
110,2525895045,88.51898193359375,-86.48119354248047,-60.90833663940430,9.81375122070312,0.53467166423798,0.06158941611648,-1.23347556591034,-0.35145106911659,0.90095233917236
111,2525911712,88.32608795166016,-86.48052978515625,-60.74805831909180,9.81224346160889,0.52510887384415,0.09216355532408,-1.48590147495270,-0.41320326924324,0.67006659507751
112,2525928379,88.19721221923828,-86.48731994628906,-60.65418243408203,9.88580131530762,0.54640322923660,0.10240402817726,-1.63436555862427,-0.67131525278091,1.11406290531158
113,2525945046,88.18987274169922,-86.50094604492188,-60.68815231323242,9.85302639007568,0.43091672658920,0.15529803931713,-1.73761045932770,-1.13589119911194,1.50210797786713
114,2525961713,88.57968902587891,-86.51946258544922,-61.10671997070312,9.81719684600830,0.28439098596573,0.12297466397285,-1.05445563793182,-2.54529380798340,1.76748108863831
115,2525978380,89.18544006347656,-86.54385375976562,-61.72763824462891,9.86004638671875,0.30853319168091,0.07790341228247,0.10265570878983,-3.24407267570496,2.11347031593323
116,2525995047,89.69459533691406,-86.55429077148438,-62.25093078613281,9.81810188293457,0.30346959829330,0.14313846826553,-0.04075621441007,-2.87259912490845,1.30769491195679
117,2526011714,90.52725219726562,-86.55508422851562,-63.08969497680664,9.76477336883545,0.34003615379333,0.11757789552212,0.56958800554276,-3.98838996887207,0.75817430019379
118,2526028381,91.28181457519531,-86.56066131591797,-63.83169174194336,9.86083316802979,0.43558859825134,0.06896686553955,1.12297630310059,-3.66978168487549,1.05044090747833
119,2526045048,91.49053192138672,-86.58516693115234,-64.02722930908203,9.83541011810303,0.55772078037262,0.14018428325653,1.25045025348663,-1.66673982143402,2.17459511756897
120,2526061715,91.34147644042969,-86.62519073486328,-63.87535476684570,9.65830326080322,0.25362300872803,0.12195161730051,0.83419275283813,-0.39162456989288,3.08945488929749
121,2526078382,88.50345611572266,-86.51648712158203,-61.00555801391602,9.27296733856201,-0.02872786670923,-0.08171170949936,2.01026463508606,9.25759792327881,-5.84385347366333
122,2526095049,87.84482574462891,-86.47796630859375,-60.30296325683594,9.61416435241699,1.06408309936523,0.39403578639030,2.94790649414062,1.62972342967987,-1.56551861763000
123,2526111716,87.76026916503906,-86.46387481689453,-60.21765899658203,10.18460273742676,0.31436213850975,0.15940417349339,0.63020044565201,-0.64782840013504,-0.14033837616444
124,2526128383,87.69979095458984,-86.43778991699219,-60.15911865234375,9.90821266174316,0.60848903656006,0.15065909922123,0.83668369054794,-0.69204229116440,-0.86113733053207
125,2526145050,87.99908447265625,-86.42040252685547,-60.45996856689453,9.71921539306641,0.73950320482254,0.25350478291512,0.30797991156578,-2.08616089820862,-0.40363693237305
126,2526161717,88.68425750732422,-86.42478179931641,-61.17448806762695,9.85207748413086,0.63441705703735,0.15023286640644,-1.24658942222595,-3.67583870887756,0.86318647861481
127,2526178384,88.68492126464844,-86.45751953125000,-61.21518325805664,9.60943126678467,0.58910572528839,0.06361216306686,-1.93691575527191,-1.19856560230255,2.64767456054688
128,2526195051,88.22232055664062,-86.51648712158203,-60.81618118286133,9.55794143676758,0.34413281083107,0.13294565677643,-2.97082400321960,0.38994061946869,4.27694988250732
129,2526211718,87.50279998779297,-86.57194519042969,-60.15933609008789,9.62491607666016,0.27048859000206,0.10553330928087,-3.13881778717041,1.25219237804413,4.13455629348755
130,2526228385,86.91498565673828,-86.59561920166016,-59.62811279296875,9.72521686553955,0.42575308680534,0.16734541952610,-2.98928999900818,0.81791591644287,2.19217801094055
131,2526245052,87.01634216308594,-86.59078979492188,-59.79177093505859,9.92829227447510,0.48133659362793,0.15981712937355,-3.49681925773621,-1.58036148548126,0.36801615357399
132,2526261719,87.14363098144531,-86.58241271972656,-59.99641799926758,9.92364597320557,0.34760278463364,0.15839892625809,-4.22866964340210,-1.70661270618439,0.14246425032616
133,2526278386,87.39189910888672,-86.59233856201172,-60.34237289428711,9.89813423156738,0.03174366429448,0.08411404490471,-4.04496955871582,-2.17516517639160,1.27283620834351
134,2526295053,87.35298156738281,-86.60627746582031,-60.35969924926758,9.72746753692627,0.15843690931797,0.09256841987371,-2.74393343925476,-1.08951950073242,1.51837205886841
135,2526311720,87.25302124023438,-86.61338043212891,-60.29412460327148,9.78159618377686,0.13667896389961,-0.02188991382718,-1.47656571865082,-0.78080952167511,1.13076221942902
136,2526328387,86.67128753662109,-86.60448455810547,-59.71842956542969,9.86795043945312,0.37158000469208,-0.02106568589807,0.41300478577614,1.08212375640869,0.24324379861355
137,2526345054,85.63694763183594,-86.56595611572266,-58.67216491699219,9.80761337280273,0.57900935411453,0.08441028743982,1.09674859046936,2.87240004539490,-1.36521434783936
138,2526361721,84.41712951660156,-86.51024627685547,-57.43348312377930,9.74860191345215,0.64003217220306,0.13955174386501,1.52857899665833,3.74830412864685,-2.28641390800476
139,2526378388,83.41761016845703,-86.44052886962891,-56.40219497680664,9.61393928527832,0.69528895616531,0.17372654378414,1.39193499088287,3.15714979171753,-3.11962056159973
140,2526395055,82.76333618164062,-86.36083984375000,-55.73579788208008,9.63246536254883,0.71240454912186,0.29047206044197,0.90557551383972,2.04639077186584,-3.78405237197876
141,2526411722,82.87036895751953,-86.30165100097656,-55.84704971313477,9.80730628967285,0.69764387607574,0.36676040291786,0.48794755339622,-0.95825451612473,-2.89574003219604
142,2526428389,83.41342163085938,-86.27249145507812,-56.39596557617188,9.91969585418701,0.69599407911301,0.17560087144375,0.47900870442390,-2.88051271438599,-1.29760956764221
143,2526445056,83.81018066406250,-86.26319885253906,-56.81068801879883,9.87244033813477,0.58378368616104,0.13145659863949,-0.33235034346581,-2.52415680885315,-0.05271093174815
144,2526461723,84.05869293212891,-86.25948333740234,-57.08747482299805,9.81054973602295,0.43112376332283,0.13880228996277,-0.22878544032574,-1.98252534866333,0.37749275565147
145,2526478390,84.17451477050781,-86.25498199462891,-57.19983291625977,9.79280662536621,0.36181095242500,0.19871275126934,-0.11385485529900,-1.46249139308929,0.35340401530266
146,2526495057,84.62363433837891,-86.25148010253906,-57.65000915527344,9.75723743438721,0.29528710246086,0.21821980178356,0.23942753672600,-2.74335694313049,0.28537669777870
147,2526511724,85.16503906250000,-86.24005889892578,-58.18384933471680,9.71915721893311,0.24087285995483,0.15317948162556,1.23601758480072,-3.00175046920776,-0.17768168449402
148,2526528391,85.48329162597656,-86.21752929687500,-58.46364593505859,9.74093341827393,0.40013778209686,0.20658253133297,2.09627127647400,-2.03304004669189,-0.79172050952911
149,2526545058,86.04717254638672,-86.19697570800781,-59.00159835815430,9.79554557800293,0.56849789619446,0.26292231678963,2.26155042648315,-3.01838660240173,-0.70065474510193
150,2526561725,86.56233215332031,-86.18669891357422,-59.49161911010742,9.84394931793213,0.60307103395462,0.16080033779144,2.07020378112793,-2.89855074882507,-0.06106067076325
151,2526578392,86.86346435546875,-86.18273925781250,-59.79234313964844,9.85935306549072,0.57341045141220,0.21386133134365,1.47994005680084,-2.11278510093689,0.40576919913292
152,2526595059,87.03823852539062,-86.17792510986328,-59.95195770263672,9.85424709320068,0.54412841796875,0.22917148470879,1.46945178508759,-1.61304306983948,0.37151220440865
153,2526611726,87.06029510498047,-86.17618560791016,-59.95952606201172,9.81679248809814,0.57979035377502,0.21785709261894,1.35929179191589,-1.02190208435059,0.57658034563065
154,2526628393,86.82159423828125,-86.17848205566406,-59.71609115600586,9.75613307952881,0.55481255054474,0.21876412630081,0.84798520803452,-0.02912804298103,0.88112801313400
155,2526645060,86.57963562011719,-86.18238830566406,-59.48311233520508,9.65473079681396,0.52916455268860,0.29138547182083,-0.10448059439659,-0.08597542345524,0.96166718006134
156,2526661727,86.58397674560547,-86.18181610107422,-59.48823547363281,9.67541790008545,0.51277744770050,0.22714754939079,0.41528433561325,-1.01697146892548,0.64595222473145
157,2526678394,86.54132080078125,-86.17776489257812,-59.43526840209961,9.71598434448242,0.53750580549240,0.20788532495499,0.67677712440491,-0.80150455236435,0.44837588071823
158,2526695061,86.20925140380859,-86.17182922363281,-59.10040664672852,9.76084327697754,0.55303543806076,0.19938786327839,0.62801063060760,0.35983282327652,0.39716333150864
159,2526711728,85.94185638427734,-86.17019653320312,-58.84070205688477,9.76492977142334,0.51181238889694,0.26040160655975,0.04811345413327,0.04758839681745,0.66750532388687
160,2526728395,85.99605560302734,-86.17684936523438,-58.89146804809570,9.80251789093018,0.46369737386703,0.24647848308086,0.29434117674828,-1.25573301315308,1.04843044281006
161,2526745062,86.11631774902344,-86.18433380126953,-59.01276016235352,9.83907318115234,0.51536798477173,0.22602415084839,0.54957163333893,-1.50253689289093,1.10066723823547
162,2526761729,86.31979370117188,-86.18798065185547,-59.21469497680664,9.83746719360352,0.54210245609283,0.19257071614265,0.83029973506927,-1.79876720905304,0.85373532772064
163,2526778396,86.39173889160156,-86.18695068359375,-59.28945159912109,9.86392879486084,0.53514683246613,0.18822306394577,0.46118223667145,-1.27993702888489,0.61425656080246
164,2526795063,86.49216461181641,-86.18176269531250,-59.40322113037109,9.84678745269775,0.52368915081024,0.19635906815529,0.14752915501595,-1.39807558059692,0.36550605297089
165,2526811730,86.39049530029297,-86.17653656005859,-59.31206512451172,9.85676002502441,0.52900332212448,0.16088640689850,0.25775340199471,-0.58657562732697,0.40731880068779
166,2526828397,86.22355651855469,-86.17581939697266,-59.14598464965820,9.80009269714355,0.54205304384232,0.16781269013882,0.50594049692154,-0.32681167125702,0.67796820402145
167,2526845064,86.06329345703125,-86.17623138427734,-58.99522781372070,9.75926876068115,0.50458145141602,0.18495416641235,0.15213942527771,-0.38050863146782,0.76211857795715
168,2526861731,85.75913238525391,-86.17643737792969,-58.69226074218750,9.76875877380371,0.50985431671143,0.14412666857243,0.27609211206436,0.19959978759289,0.78173804283142
169,2526878398,85.34205627441406,-86.17469787597656,-58.27609634399414,9.75110435485840,0.52141594886780,0.18590694665909,0.45831364393234,0.67152655124664,0.70195442438126
170,2526895065,84.84052276611328,-86.17208862304688,-57.77966308593750,9.73053169250488,0.56831645965576,0.22374430298805,0.39137482643127,1.01057457923889,0.71135431528091
171,2526911732,84.51096343994141,-86.17029571533203,-57.45604324340820,9.72844314575195,0.52519333362579,0.19069795310497,0.40548744797707,0.32293769717216,0.70516872406006
172,2526928399,84.15039825439453,-86.16625976562500,-57.08990859985352,9.74616432189941,0.46492224931717,0.16576793789864,0.77874773740768,0.48318994045258,0.59315800666809
173,2526945066,83.82708740234375,-86.16008758544922,-56.76065063476562,9.78812408447266,0.48715466260910,0.23220182955265,0.84676861763000,0.35654157400131,0.44884973764420
174,2526961733,83.62617492675781,-86.15299987792969,-56.55776596069336,9.82463359832764,0.52460265159607,0.19821862876415,1.22545242309570,-0.09607963263988,0.37902951240540
175,2526978400,83.23304748535156,-86.14537048339844,-56.15611267089844,9.85755538940430,0.57528102397919,0.13869909942150,0.67511236667633,0.63965159654617,0.39601075649261
176,2526995067,82.82247161865234,-86.13801574707031,-55.74653244018555,9.78701972961426,0.54649674892426,0.19031706452370,0.40544906258583,0.69608920812607,0.44779959321022
177,2527011734,82.45491790771484,-86.13097381591797,-55.38141632080078,9.73857116699219,0.51060879230499,0.20746828615665,0.67671310901642,0.54657500982285,0.45650792121887
178,2527028401,82.15100097656250,-86.12192535400391,-55.07696533203125,9.70397377014160,0.53696393966675,0.25418609380722,0.68946826457977,0.30888918042183,0.32891830801964
179,2527045068,81.98572540283203,-86.11395263671875,-54.90513992309570,9.72070026397705,0.54514831304550,0.24028119444847,0.86054825782776,-0.23963885009289,0.29550650715828
180,2527061735,81.72293853759766,-86.10182952880859,-54.64115142822266,9.76082515716553,0.53161752223969,0.23924826085567,0.58368778228760,0.17467859387398,0.10653601586819
181,2527078402,81.44528961181641,-86.08518218994141,-54.36990356445312,9.80247592926025,0.50111263990402,0.26974242925644,0.06805294007063,0.24309012293816,-0.12840285897255
182,2527095069,81.27745819091797,-86.07265472412109,-54.19710540771484,9.82714939117432,0.51157671213150,0.26214319467545,0.41889569163322,-0.20810958743095,0.03177255392075
183,2527111736,81.14832305908203,-86.06403350830078,-54.06151199340820,9.86373424530029,0.50409883260727,0.16086439788342,0.92774319648743,-0.36115831136703,0.24991592764854
184,2527128403,80.73106384277344,-86.04745483398438,-53.63813018798828,9.89183235168457,0.45051619410515,0.19161145389080,0.62844592332840,0.87001216411591,-0.03660694882274
185,2527145070,80.09249114990234,-86.02349090576172,-52.99832153320312,9.82010078430176,0.47662720084190,0.27794975042343,0.57979470491409,1.86154377460480,-0.30277410149574
186,2527161737,79.59230804443359,-86.00291442871094,-52.48292541503906,9.77762699127197,0.53028684854507,0.23332069814205,1.54078316688538,1.34803462028503,-0.14643420279026
187,2527178404,79.14951324462891,-85.98756408691406,-52.02059555053711,9.81869411468506,0.55305248498917,0.26661711931229,1.35392594337463,1.05532014369965,0.11861242353916
188,2527195071,78.74067687988281,-85.97980499267578,-51.60860443115234,9.80818557739258,0.58747947216034,0.25616186857224,0.89046400785446,0.80819594860077,0.57030522823334
189,2527211738,78.37578582763672,-85.97869110107422,-51.23223495483398,9.81459999084473,0.58716654777527,0.17182095348835,1.23115122318268,0.57401895523071,0.93047094345093
190,2527228405,78.02545166015625,-85.97610473632812,-50.86941528320312,9.74329948425293,0.56702411174774,0.20764538645744,1.03161561489105,0.51608312129974,0.83046615123749
191,2527245072,77.75868225097656,-85.97591400146484,-50.60129547119141,9.72211551666260,0.53858286142349,0.25699204206467,0.60892909765244,0.11243975162506,0.92054599523544
192,2527261739,77.58009338378906,-85.97542572021484,-50.42662048339844,9.73170375823975,0.52344095706940,0.26099956035614,0.14912353456020,-0.27875578403473,0.81382429599762
193,2527278406,77.44918823242188,-85.97649383544922,-50.30099868774414,9.74800777435303,0.50629055500031,0.28162732720375,0.24529282748699,-0.48549509048462,0.85550254583359
194,2527295073,77.44329833984375,-85.98151397705078,-50.30368041992188,9.75150871276855,0.53856569528580,0.29519456624985,0.19092984497547,-1.05460917949677,0.98077428340912
195,2527311740,77.48013305664062,-85.98624420166016,-50.35025024414062,9.75669574737549,0.56122195720673,0.30160474777222,-0.09161022305489,-1.24848461151123,0.93000990152359
196,2527328407,77.70693206787109,-85.99288177490234,-50.59983062744141,9.71736049652100,0.60085260868073,0.33952277898788,-0.70580279827118,-2.08695483207703,0.83560156822205
197,2527345074,78.30866241455078,-86.00453186035156,-51.22117996215820,9.80844116210938,0.60837560892105,0.22801768779755,-0.61875802278519,-3.67911720275879,0.83156758546829
198,2527361741,78.94668579101562,-86.01375579833984,-51.89164352416992,9.84247112274170,0.58263963460922,0.20543037354946,-1.32870352268219,-3.83681440353394,0.67264068126678
199,2527378408,79.37607574462891,-86.02024841308594,-52.35054397583008,9.83695220947266,0.54179900884628,0.13280324637890,-1.14767301082611,-2.93613100051880,0.72117680311203
200,2527395075,79.55261230468750,-86.02807617187500,-52.54833602905273,9.83087062835693,0.54866069555283,0.17762920260429,-0.90947502851486,-1.89601206779480,0.98013406991959
201,2527411742,79.79141998291016,-86.03784942626953,-52.81853866577148,9.81105327606201,0.54988908767700,0.26469385623932,-1.28009068965912,-2.19432330131531,1.06712758541107
202,2527428409,80.12124633789062,-86.05132293701172,-53.17658615112305,9.82456684112549,0.54151755571365,0.20647636055946,-1.38097918033600,-2.60634183883667,1.21817839145660
203,2527445076,80.31781005859375,-86.06040191650391,-53.40058517456055,9.75326251983643,0.51563161611557,0.18022294342518,-1.06596863269806,-1.98934495449066,1.06398987770081
204,2527461743,80.27062225341797,-86.06204223632812,-53.37178421020508,9.73725891113281,0.51345217227936,0.21158879995346,-0.53697675466537,-0.88633394241333,0.80381625890732
205,2527478410,80.08351898193359,-86.05687713623047,-53.19830703735352,9.78896236419678,0.48304188251495,0.29587036371231,-0.44378486275673,-0.24395456910133,0.48603942990303
206,2527495077,79.92454528808594,-86.04963684082031,-53.04512405395508,9.81167507171631,0.51662963628769,0.25303095579147,0.26122391223907,-0.28707352280617,0.37493151426315
207,2527511744,79.55448913574219,-86.04532623291016,-52.68516159057617,9.76815032958984,0.58808630704880,0.22085803747177,-0.14580029249191,0.51493686437607,0.68973076343536
208,2527528411,79.28054809570312,-86.04403686523438,-52.43510437011719,9.71620941162109,0.57726341485977,0.29743355512619,-0.79189980030060,0.04810064658523,0.81183284521103
209,2527545078,79.05122375488281,-86.03992462158203,-52.22291946411133,9.75834274291992,0.53626298904419,0.21047410368919,-0.48449626564980,-0.07833003997803,0.59876084327698
210,2527561745,78.66788482666016,-86.03118896484375,-51.85269546508789,9.74679279327393,0.55281388759613,0.27066892385483,-0.19119241833687,0.62227338552475,0.47094073891640
211,2527578412,78.37710571289062,-86.02246093750000,-51.56626892089844,9.71181774139404,0.52906751632690,0.31028228998184,0.13413369655609,0.27068778872490,0.40447571873665
212,2527595079,78.19351959228516,-86.00943756103516,-51.37839508056641,9.75890827178955,0.48064941167831,0.31815728545189,0.66736447811127,-0.07177318632603,0.05620706826448
213,2527611746,78.20421600341797,-85.99346923828125,-51.38616943359375,9.79918956756592,0.47144928574562,0.36984860897064,1.05444920063019,-0.79918670654297,-0.24184152483940
214,2527628413,78.25771331787109,-85.97766113281250,-51.42849731445312,9.86016559600830,0.47249096632004,0.36427032947540,1.36998486518860,-0.95895868539810,-0.26883730292320
215,2527645080,78.26821899414062,-85.96842193603516,-51.42365646362305,9.82717609405518,0.51860123872757,0.33975476026535,1.38766396045685,-0.85937005281448,0.12817233800888
216,2527661747,78.20297241210938,-85.96356964111328,-51.33523941040039,9.79129886627197,0.51469540596008,0.36779442429543,1.56720280647278,-0.59167259931564,0.46496015787125
217,2527678414,78.16983795166016,-85.95983886718750,-51.28671264648438,9.75137329101562,0.53656786680222,0.37056854367256,1.63295030593872,-0.73100560903549,0.51810640096664
218,2527695081,78.16725158691406,-85.95484161376953,-51.26554870605469,9.78652191162109,0.54305368661880,0.33338758349419,1.67376399040222,-0.83695244789124,0.39903301000595
219,2527711748,78.07099914550781,-85.94841003417969,-51.15192413330078,9.85362052917480,0.51377213001251,0.35271576046944,1.49337410926819,-0.44556495547295,0.39729142189026
220,2527728415,77.91493225097656,-85.93977355957031,-50.97568130493164,9.81876373291016,0.51945501565933,0.37094563245773,1.67189455032349,-0.15644878149033,0.33393839001656
221,2527745082,77.71611785888672,-85.92946624755859,-50.75564956665039,9.77613258361816,0.55621004104614,0.34982356429100,1.82705640792847,0.05744928121567,0.27365887165070
222,2527761749,77.62922668457031,-85.91985321044922,-50.65003585815430,9.75921344757080,0.54223853349686,0.37000772356987,1.59262335300446,-0.43211823701859,0.21427583694458
223,2527778416,77.54861450195312,-85.91218566894531,-50.54207229614258,9.80045032501221,0.51159268617630,0.34733185172081,2.23643708229065,-0.43570408225060,0.33310601115227
224,2527795083,77.30989074707031,-85.90213012695312,-50.28144073486328,9.76318359375000,0.50421380996704,0.38029611110687,1.84506189823151,0.22878545522690,0.34857603907585
225,2527811750,77.07630157470703,-85.89062500000000,-50.02240753173828,9.78775882720947,0.51815670728683,0.40170159935951,1.90685260295868,0.23728883266449,0.24095146358013
226,2527828417,76.93992614746094,-85.88220214843750,-49.86116409301758,9.77391910552979,0.54479593038559,0.39488112926483,1.94500243663788,-0.20594529807568,0.34144288301468
227,2527845084,76.91156005859375,-85.87802124023438,-49.80938720703125,9.81365013122559,0.54850947856903,0.34097456932068,1.96822082996368,-0.71478003263474,0.49259629845619
228,2527861751,76.76963043212891,-85.87403106689453,-49.64438629150391,9.81282806396484,0.56047028303146,0.34974533319473,1.89800333976746,-0.24336546659470,0.61081159114838
229,2527878418,76.66220855712891,-85.87071228027344,-49.51478195190430,9.78226375579834,0.54382455348969,0.38982456922531,1.78031301498413,-0.40555787086487,0.61033785343170
230,2527895085,76.55872344970703,-85.86454772949219,-49.39379501342773,9.79214286804199,0.55568963289261,0.32769286632538,1.56941819190979,-0.39659345149994,0.44090980291367
231,2527911752,76.50130462646484,-85.85674285888672,-49.31005859375000,9.78199958801270,0.51909053325653,0.33343705534935,2.10375046730042,-0.52856290340424,0.30570039153099
232,2527928419,76.39907073974609,-85.84744262695312,-49.17851638793945,9.77044773101807,0.55787986516953,0.33211565017700,2.20891618728638,-0.31098300218582,0.26991945505142
233,2527945086,76.33106994628906,-85.84027862548828,-49.08211135864258,9.78286457061768,0.51815712451935,0.32200428843498,2.17211079597473,-0.48732647299767,0.36882287263870
234,2527961753,76.30093383789062,-85.83500671386719,-49.02633666992188,9.79282855987549,0.50089079141617,0.33844283223152,2.04991269111633,-0.68090724945068,0.43134349584579
235,2527978420,76.19773101806641,-85.83045196533203,-48.89556121826172,9.79216003417969,0.46368178725243,0.34679353237152,2.06139969825745,-0.37999644875526,0.54286122322083
236,2527995087,76.00298309326172,-85.82758331298828,-48.67396163940430,9.84130191802979,0.47090336680412,0.38625952601433,2.17378830909729,-0.00789511483163,0.74641811847687
237,2528011754,75.90321350097656,-85.82505035400391,-48.54553222656250,9.79225921630859,0.50158363580704,0.41385430097580,2.22062110900879,-0.41248613595963,0.67390853166580
238,2528028421,75.97958374023438,-85.82702636718750,-48.58543014526367,9.76722431182861,0.54648202657700,0.34893411397934,2.69106245040894,-1.19227766990662,0.76305359601974
239,2528045088,75.96667480468750,-85.82932281494141,-48.54770278930664,9.76981544494629,0.56758213043213,0.29426372051239,2.05252504348755,-0.86166888475418,0.85551548004150
240,2528061755,75.95326232910156,-85.83670043945312,-48.50933074951172,9.78378009796143,0.55564421415329,0.31510019302368,1.90808212757111,-0.94415456056595,1.13958597183228
241,2528078422,75.82735443115234,-85.84545898437500,-48.37164688110352,9.76806735992432,0.60573935508728,0.32879891991615,1.50730752944946,-0.52035403251648,1.36341524124146
242,2528095089,75.74147033691406,-85.85830688476562,-48.27751922607422,9.72706699371338,0.64979535341263,0.35220965743065,0.96645671129227,-0.78830122947693,1.53010261058807
243,2528111756,75.74246215820312,-85.87441253662109,-48.28035354614258,9.69490242004395,0.64391839504242,0.36362478137016,0.53186058998108,-1.23174679279327,1.61760854721069
244,2528128423,75.84629058837891,-85.88929748535156,-48.39411926269531,9.73277568817139,0.59115767478943,0.34136724472046,0.07061421871185,-1.67480802536011,1.43209564685822
245,2528145090,76.00575256347656,-85.90050506591797,-48.56545257568359,9.83266258239746,0.54897344112396,0.34164136648178,-0.38131549954414,-1.88496041297913,1.15825736522675
246,2528161757,76.20353698730469,-85.91188812255859,-48.77830886840820,9.79629325866699,0.52058917284012,0.33912768959999,-0.22442486882210,-2.02790474891663,1.13552618026733
247,2528178424,76.41114807128906,-85.92749023437500,-48.98932647705078,9.76261711120605,0.50278919935226,0.32528346776962,0.08996461331844,-2.10640764236450,1.37244379520416
248,2528195091,76.67568206787109,-85.94681549072266,-49.25210952758789,9.79271316528320,0.49993097782135,0.34094318747520,0.69573056697845,-2.34066128730774,1.54671239852905
249,2528211758,76.86206054687500,-85.96721649169922,-49.42599487304688,9.77011394500732,0.52356171607971,0.32630148530006,1.29497814178467,-1.98518276214600,1.70458924770355
250,2528228425,77.08448791503906,-85.98502349853516,-49.64920043945312,9.82063007354736,0.54578417539597,0.32895186543465,0.72311055660248,-2.13017606735229,1.52550518512726
251,2528245092,77.28392028808594,-85.99958038330078,-49.84405899047852,9.81799983978271,0.54971081018448,0.28812184929848,0.67481780052185,-1.99012613296509,1.34918749332428
252,2528261759,77.37123107910156,-86.01233673095703,-49.91778182983398,9.80067443847656,0.52951490879059,0.24774236977100,1.19059360027313,-1.47128951549530,1.36075150966644
253,2528278426,77.29718017578125,-86.02542114257812,-49.83488464355469,9.82345771789551,0.51592761278152,0.28955927491188,1.44851350784302,-0.79950690269470,1.55384576320648
254,2528295093,77.25099182128906,-86.03800201416016,-49.77138519287109,9.81229972839355,0.54498738050461,0.28575575351715,1.53729987144470,-0.90028011798859,1.46698009967804
255,2528311760,77.20285797119141,-86.04824829101562,-49.70963287353516,9.80440139770508,0.58011275529861,0.30549103021622,1.35049366950989,-0.87763845920563,1.34394967556000
256,2528328427,77.15053558349609,-86.05682373046875,-49.65067291259766,9.82734298706055,0.57718300819397,0.30879780650139,0.96477919816971,-0.86376917362213,1.23719596862793
257,2528345094,77.05371093750000,-86.06517791748047,-49.55817031860352,9.78502368927002,0.57911020517349,0.30932933092117,0.42405664920807,-0.72172099351883,1.27625513076782
258,2528361761,77.01995849609375,-86.07484436035156,-49.53443908691406,9.78066062927246,0.55990892648697,0.30362769961357,0.04998318478465,-1.01693296432495,1.27613997459412
259,2528378428,77.01140594482422,-86.08648681640625,-49.54136657714844,9.78791427612305,0.55648058652878,0.28003051877022,-0.02166194282472,-1.14812135696411,1.37675952911377
260,2528395095,76.91899108886719,-86.09951782226562,-49.46831512451172,9.77079200744629,0.55723387002945,0.29100316762924,-0.33600661158562,-0.85518890619278,1.52609431743622
261,2528411762,76.84973907470703,-86.10947418212891,-49.41857528686523,9.76393318176270,0.54319697618484,0.29441756010056,-0.69311171770096,-0.93177092075348,1.30588924884796
262,2528428429,76.83972930908203,-86.11229705810547,-49.42464447021484,9.78962802886963,0.51997905969620,0.31126263737679,-0.77608406543732,-1.07653379440308,0.83009469509125
263,2528445096,76.87420654296875,-86.11319732666016,-49.48072433471680,9.78929901123047,0.51520812511444,0.28990843892097,-0.75395458936691,-1.22451114654541,0.68748331069946
264,2528461763,76.96372985839844,-86.11289215087891,-49.58367538452148,9.77451229095459,0.49882778525352,0.28463760018349,-0.24751472473145,-1.38904714584351,0.56330013275146
265,2528478430,77.05052947998047,-86.11138916015625,-49.68115234375000,9.79932880401611,0.49081104993820,0.32112738490105,-0.17560707032681,-1.36203861236572,0.51175457239151
266,2528495097,77.16909790039062,-86.11203765869141,-49.81739807128906,9.80854606628418,0.50554877519608,0.26927289366722,-0.23245444893837,-1.51571464538574,0.60358881950378
267,2528511764,77.19429016113281,-86.11405944824219,-49.85326004028320,9.78692245483398,0.50969827175140,0.24995945394039,-0.26175540685654,-1.16868829727173,0.76430857181549
268,2528528431,77.18223571777344,-86.11562347412109,-49.84375381469727,9.80430507659912,0.47669112682343,0.24975699186325,-0.05192334204912,-1.00219297409058,0.75963419675827
269,2528545098,77.16820526123047,-86.11223602294922,-49.82849502563477,9.84161663055420,0.48048639297485,0.31310293078423,0.31612470746040,-0.90455728769302,0.48614180088043
270,2528561765,77.18379211425781,-86.10736083984375,-49.83095169067383,9.80956172943115,0.50761580467224,0.27188426256180,0.87151056528091,-0.96363306045532,0.36621040105820
271,2528578432,77.15625762939453,-86.10791015625000,-49.80592346191406,9.81738090515137,0.54218620061874,0.22241868078709,0.50441646575928,-0.88892066478729,0.74296033382416
272,2528595099,77.10475158691406,-86.11254882812500,-49.74722671508789,9.77217483520508,0.49484962224960,0.23496165871620,0.34128922224045,-0.86419159173965,0.98683148622513
273,2528611766,76.90773773193359,-86.11380004882812,-49.54513931274414,9.77117347717285,0.48774832487106,0.23296944797039,0.65172791481018,-0.21747101843357,0.92979216575623
274,2528628433,76.68994903564453,-86.11259460449219,-49.33156967163086,9.75796794891357,0.49481835961342,0.27105146646500,0.17069584131241,-0.13478043675423,0.80437958240509
275,2528645100,76.53419494628906,-86.10861968994141,-49.15404891967773,9.78263282775879,0.45518323779106,0.25751194357872,0.38123220205307,-0.33423927426338,0.55589795112610
276,2528661767,76.40868377685547,-86.10489654541016,-49.03215789794922,9.81334972381592,0.48897150158882,0.27231895923615,0.87192028760910,-0.41287028789520,0.59520071744919
277,2528678434,76.33341979980469,-86.10072326660156,-48.94851684570312,9.82482242584229,0.47075489163399,0.30470445752144,0.80015349388123,-0.61661928892136,0.51936149597168
278,2528695101,76.31801605224609,-86.10157775878906,-48.92801284790039,9.79395580291748,0.49329915642738,0.29351717233658,0.46953201293945,-0.94444912672043,0.72713178396225
279,2528711768,76.31655883789062,-86.10283660888672,-48.93027877807617,9.75552177429199,0.49128514528275,0.25166770815849,0.56992095708847,-0.99613553285599,0.76037698984146
280,2528728435,76.29885864257812,-86.10449218750000,-48.90858840942383,9.76040935516357,0.48110824823380,0.26015430688858,0.84529590606689,-0.92211484909058,0.81062912940979
281,2528745102,76.33757781982422,-86.10479736328125,-48.93241500854492,9.75673484802246,0.48898762464523,0.24300152063370,1.19252729415894,-1.10127568244934,0.65594130754471
282,2528761769,76.31688690185547,-86.10324096679688,-48.90069961547852,9.81182098388672,0.48141327500343,0.23943504691124,1.19928288459778,-0.84164607524872,0.62632662057877
283,2528778436,76.21316528320312,-86.09901428222656,-48.80823135375977,9.83192729949951,0.46215367317200,0.28441253304482,0.63171803951263,-0.50545382499695,0.55854249000549
284,2528795103,76.05839538574219,-86.08829498291016,-48.64485549926758,9.80172443389893,0.48103505373001,0.25287774205208,0.82407575845718,-0.20200094580650,0.21369954943657
285,2528811770,75.81822204589844,-86.07539367675781,-48.38712310791016,9.83154010772705,0.53996640443802,0.27110859751701,1.05766355991364,0.18780513107777,0.15996411442757
286,2528828437,75.56381988525391,-86.06438446044922,-48.13876342773438,9.81383895874023,0.57492178678513,0.26167467236519,0.53109210729599,0.18968763947487,0.31148883700371
287,2528845104,75.29683685302734,-86.05905914306641,-47.87798690795898,9.84996986389160,0.52250897884369,0.24698351323605,0.10341126471758,0.12819154560566,0.63642436265945
288,2528861771,74.82245635986328,-86.04993438720703,-47.40794372558594,9.83267784118652,0.49154135584831,0.22972151637077,0.20039378106594,1.02434146404266,0.64355748891830
289,2528878438,74.22686004638672,-86.03202819824219,-46.81155395507812,9.83892822265625,0.51467889547348,0.21280026435852,0.34145572781563,1.66153430938721,0.29265072941780
290,2528895105,73.48577117919922,-86.00600433349609,-46.08141708374023,9.85721969604492,0.53013169765472,0.26126903295517,0.38397279381752,2.40213823318481,0.06109909713268
291,2528911772,72.67113494873047,-85.97912597656250,-45.27555084228516,9.84335708618164,0.53389555215836,0.26340344548225,0.05825608596206,2.71930050849915,0.11719090491533
292,2528928439,71.78512573242188,-85.94995880126953,-44.39091110229492,9.82393360137939,0.55248135328293,0.32766589522362,-0.09835917502642,3.06321501731873,0.13271220028400
293,2528945106,70.85771179199219,-85.91851043701172,-43.47890853881836,9.82207775115967,0.57036876678467,0.27528038620949,0.30144870281219,3.34272646903992,0.17184841632843
294,2528961773,69.91952514648438,-85.88510894775391,-42.54804611206055,9.77636909484863,0.62685239315033,0.32934725284576,0.05169923231006,3.44366574287415,0.12593764066696
295,2528978440,69.13005828857422,-85.85404968261719,-41.76905059814453,9.77041816711426,0.59773963689804,0.29820349812508,-0.08819092810154,2.82248115539551,0.10802157223225
296,2528995107,68.18770599365234,-85.82036590576172,-40.82498550415039,9.79387378692627,0.55428773164749,0.27282148599625,0.37340754270554,3.56197071075439,0.27538773417473
297,2529011774,67.12405395507812,-85.78750610351562,-39.73501968383789,9.82464790344238,0.54188418388367,0.40755298733711,0.79479408264160,4.09057235717773,0.61241888999939
298,2529028441,66.28514099121094,-85.76890563964844,-38.89538574218750,9.73666954040527,0.61230713129044,0.47337448596954,0.51617270708084,2.86005473136902,1.11434447765350
299,2529045108,65.66872406005859,-85.76640319824219,-38.28546524047852,9.69811153411865,0.66955423355103,0.40475982427597,0.15657044947147,1.54038619995117,1.65628373622894
300,2529061775,65.29997253417969,-85.78290557861328,-37.93490982055664,9.65628719329834,0.70416998863220,0.42737400531769,-0.70403552055359,0.00189533981029,2.21878981590271
301,2529078442,65.27021789550781,-85.81273651123047,-37.94341659545898,9.68522644042969,0.64405912160873,0.33242166042328,-1.37917971611023,-1.74416077136993,2.32429480552673
302,2529095109,65.21810150146484,-85.83853912353516,-37.90798950195312,9.79066848754883,0.60810232162476,0.29767841100693,-0.81860119104385,-1.51799428462982,2.12803125381470
303,2529111776,64.87729644775391,-85.84767913818359,-37.57750701904297,9.84950351715088,0.63210165500641,0.28927770256996,-0.26117911934853,0.07116489112377,1.78119695186615
304,2529128443,64.45905303955078,-85.85626983642578,-37.17739486694336,9.83465003967285,0.63961446285248,0.32858386635780,-0.67826908826828,0.35116288065910,1.89257347583771
305,2529145110,64.11894989013672,-85.87251281738281,-36.86615753173828,9.75908851623535,0.60031425952911,0.32814282178879,-1.23806023597717,-0.20037455856800,2.14780426025391
306,2529161777,63.67681503295898,-85.88982391357422,-36.45416259765625,9.72020435333252,0.57023859024048,0.31302613019943,-1.27555739879608,0.15133263170719,2.39893674850464
307,2529178444,63.37164306640625,-85.90695953369141,-36.18171691894531,9.71585369110107,0.60257095098495,0.28822240233421,-0.82814180850983,-0.35609975457191,2.16119980812073
308,2529195111,63.22158432006836,-85.92335510253906,-36.04721069335938,9.78246784210205,0.67906272411346,0.29348123073578,-0.66270941495895,-0.93001639842987,1.79970216751099
309,2529211778,63.13516998291016,-85.94493103027344,-35.98058700561523,9.80686187744141,0.66360574960709,0.27262330055237,-0.59075051546097,-1.31246519088745,1.97309994697571
310,2529228445,62.81613159179688,-85.95944976806641,-35.68693923950195,9.80871868133545,0.62735438346863,0.27399286627769,-0.92926067113876,-0.27078387141228,2.03446817398071
311,2529245112,62.37357330322266,-85.97109985351562,-35.24763107299805,9.80748844146729,0.62776708602905,0.29040288925171,-0.91367548704147,0.25418043136597,2.08392596244812
312,2529261779,61.89425277709961,-85.98316955566406,-34.80149078369141,9.82074260711670,0.62549579143524,0.31707382202148,-1.04949963092804,0.36149764060974,2.23404192924500
313,2529278446,61.43434143066406,-86.00904083251953,-34.37544631958008,9.85122871398926,0.66019791364670,0.31349292397499,-1.43112874031067,-0.14779168367386,2.90783524513245
314,2529295113,60.92498779296875,-86.04166412353516,-33.91819381713867,9.82867240905762,0.67711675167084,0.33709585666656,-1.91794955730438,-0.21813696622849,3.35817146301270
315,2529311780,60.36643600463867,-86.06946563720703,-33.39748764038086,9.82698822021484,0.69704836606979,0.28569135069847,-2.54286098480225,0.02065664716065,3.13722324371338
316,2529328447,59.72475814819336,-86.08999633789062,-32.82699966430664,9.75963115692139,0.70269232988358,0.32609117031097,-2.98973798751831,0.46887889504433,2.98551869392395
317,2529345114,59.10552215576172,-86.11425781250000,-32.27938461303711,9.71251773834229,0.70561265945435,0.21253775060177,-3.39033412933350,0.22147302329540,3.09845829010010
318,2529361781,58.23218536376953,-86.13082122802734,-31.46625900268555,9.76011848449707,0.71411818265915,0.23031161725521,-3.23480153083801,1.30444240570068,3.24496316909790
319,2529378448,57.29072570800781,-86.14430999755859,-30.59899902343750,9.78724575042725,0.70620679855347,0.30818217992783,-3.60948896408081,1.56384754180908,3.26748943328857
320,2529395115,56.35775756835938,-86.16161346435547,-29.74612236022949,9.78264713287354,0.71500790119171,0.37119135260582,-4.32506990432739,1.32162833213806,3.42404675483704
321,2529411782,55.54201126098633,-86.18735504150391,-29.02314376831055,9.80110263824463,0.68579071760178,0.35042706131935,-4.93944120407104,0.54663896560669,3.60684442520142
322,2529428449,54.58367919921875,-86.22078704833984,-28.16822433471680,9.79412174224854,0.72443747520447,0.38872563838959,-5.78563356399536,0.64464604854584,4.26451492309570
323,2529445116,53.73320007324219,-86.26357269287109,-27.44336509704590,9.70539855957031,0.75553739070892,0.46091964840889,-7.09551858901978,-0.18263776600361,4.43031835556030
324,2529461783,53.07869338989258,-86.31809997558594,-26.92419433593750,9.67821979522705,0.70758581161499,0.41480916738510,-7.66341781616211,-1.33960223197937,4.53825187683105
325,2529478450,52.53747940063477,-86.37847137451172,-26.51948356628418,9.63252544403076,0.65145266056061,0.44810625910759,-7.70252752304077,-1.93901622295380,4.49692535400391
326,2529495117,52.34424209594727,-86.45917510986328,-26.47214508056641,9.59919548034668,0.63580095767975,0.47683984041214,-8.22836875915527,-3.80454349517822,4.65110063552856
327,2529511784,52.21217346191406,-86.54481506347656,-26.47805786132812,9.67670631408691,0.58785796165466,0.34910479187965,-7.75246095657349,-4.15785789489746,4.75875139236450
328,2529528451,52.01928710937500,-86.62113189697266,-26.40846061706543,9.72595119476318,0.48461896181107,0.37281295657158,-6.86985921859741,-3.60288166999817,4.46234798431396
329,2529545118,51.77646255493164,-86.68489074707031,-26.26185417175293,9.75316429138184,0.49979573488235,0.35377475619316,-5.28029489517212,-2.94718313217163,4.02198791503906
330,2529561785,51.28067016601562,-86.73091888427734,-25.83811759948730,9.76781368255615,0.53276950120926,0.44572860002518,-3.84835362434387,-1.57051312923431,3.76683449745178
331,2529578452,51.21422958374023,-86.79845428466797,-25.83591842651367,9.72849941253662,0.50858014822006,0.56201326847076,-3.30960273742676,-3.51121306419373,3.85483932495117
332,2529595119,51.43220901489258,-86.89026641845703,-26.10241889953613,9.71388149261475,0.45176368951797,0.54309523105621,-2.36193299293518,-5.13869524002075,4.48404121398926
333,2529611786,51.55252838134766,-86.99079132080078,-26.25827598571777,9.67521572113037,0.46372687816620,0.49069142341614,-1.59525537490845,-5.13722419738770,5.11585617065430
334,2529628453,51.51131439208984,-87.08899688720703,-26.24878883361816,9.72513866424561,0.45107460021973,0.55225175619125,-1.37406384944916,-4.63774967193604,5.33997964859009
335,2529645120,51.15834808349609,-87.18770599365234,-25.91775321960449,9.81641674041748,0.50049972534180,0.67294281721115,-0.81127589941025,-3.92572903633118,5.94824266433716
336,2529661787,50.27909088134766,-87.29644012451172,-25.07472801208496,9.86485195159912,0.51766896247864,0.65424227714539,-1.71753013134003,-3.27498745918274,7.31333541870117
337,2529678454,48.80698394775391,-87.41260528564453,-23.66378402709961,9.82243633270264,0.52120631933212,0.80231732130051,-3.24858117103577,-2.58681273460388,8.55071258544922
338,2529695121,47.15842056274414,-87.55007934570312,-22.12187957763672,9.69188785552979,0.56516194343567,0.83131879568100,-5.97411966323853,-3.53555965423584,9.54880142211914
339,2529711788,45.49063110351562,-87.70996093750000,-20.59220504760742,9.72668743133545,0.40419763326645,0.73864132165909,-7.87276649475098,-4.96556949615479,10.30659484863281
340,2529728455,44.02579879760742,-87.88956451416016,-19.28248214721680,9.69705009460449,0.15889517962933,0.65568172931671,-8.87800121307373,-6.61397838592529,10.47759914398193
341,2529745122,42.82766342163086,-88.07328796386719,-18.25238609313965,9.68067359924316,-0.05443005636334,0.40400573611259,-9.62370681762695,-7.60137653350830,9.91311073303223
342,2529761789,40.44852447509766,-88.21897125244141,-16.03996086120605,9.75021839141846,-0.21950244903564,0.18002608418465,-9.59529972076416,-4.80493974685669,9.74663829803467
343,2529778456,36.76869201660156,-88.32031250000000,-12.53855133056641,9.60170745849609,-0.22849713265896,0.13588833808899,-10.32007408142090,-1.92209994792938,9.41410827636719
344,2529795123,32.35735321044922,-88.40750122070312,-8.34068107604980,9.55558395385742,-0.29574742913246,-0.11527451872826,-12.43094158172607,-1.36837244033813,9.51509284973145
345,2529811790,26.77394294738770,-88.48534393310547,-3.01726675033569,9.59801483154297,-0.39773771166801,-0.32034412026405,-15.22130203247070,-0.92260903120041,10.39178276062012
346,2529828457,20.21863365173340,-88.54586029052734,3.25701785087585,9.61103534698486,-0.49640005826950,-0.57210665941238,-16.50253486633301,-0.60268682241440,10.90088176727295
347,2529845124,14.83454418182373,-88.60212707519531,8.34750461578369,9.91903972625732,-0.65487128496170,-0.72898823022842,-17.20244026184082,-2.04496526718140,8.78657531738281
348,2529861791,11.15610408782959,-88.63283538818359,11.75748825073242,10.24866676330566,-0.65416121482849,-0.73156017065048,-15.64829444885254,-1.74259376525879,5.78846311569214
349,2529878458,9.06251907348633,-88.65258789062500,13.62261676788330,10.50324821472168,-0.55308681726456,-0.73157030344009,-13.21892070770264,-1.74334871768951,3.43632960319519
350,2529895125,7.82008504867554,-88.66558074951172,14.69218921661377,10.56267642974854,-0.49560034275055,-0.72987174987793,-9.86014366149902,-1.55080473423004,2.24189329147339
351,2529911792,5.64211082458496,-88.65245056152344,16.76111412048340,10.49723339080811,-0.48580753803253,-0.62069547176361,-6.00756883621216,0.20985770225525,3.38293862342834
352,2529928459,1.70943212509155,-88.60184478759766,20.64191055297852,10.34459781646729,-0.46254909038544,-0.37150722742081,-2.60989570617676,2.48080158233643,5.89548683166504
353,2529945126,-3.14891242980957,-88.51905822753906,25.46650695800781,10.07042503356934,-0.45627513527870,-0.17241236567497,-1.52547359466553,4.00637769699097,7.83159732818604
354,2529961793,-8.24172973632812,-88.41131591796875,30.51348876953125,9.70451545715332,-0.51629370450974,-0.10868256539106,-2.23801922798157,4.85403108596802,9.22947597503662
355,2529978460,-13.14724636077881,-88.27002716064453,35.34298706054688,9.45244026184082,-0.51928353309631,-0.03932336345315,-4.07197952270508,5.97798156738281,10.36853790283203
356,2529995127,-17.26781082153320,-88.10855102539062,39.35765457153320,9.34903335571289,-0.63425600528717,0.01850542798638,-5.86830282211304,6.57588577270508,10.49166011810303
357,2530011794,-20.13926696777344,-87.93445587158203,42.11421966552734,9.40750694274902,-0.72531360387802,0.02064803615212,-6.39090490341187,7.24815607070923,9.40895938873291
358,2530028461,-21.93767929077148,-87.76087188720703,43.79359054565430,9.50225353240967,-0.68108099699020,0.04502195864916,-6.64609622955322,7.51060819625854,7.94729328155518
359,2530045128,-22.86022186279297,-87.59955596923828,44.60018157958984,9.59019184112549,-0.57911890745163,0.07964086532593,-6.43234443664551,7.33546781539917,6.19526624679565
360,2530061795,-23.28581047058105,-87.44510650634766,44.91314697265625,9.66065120697021,-0.52756589651108,0.10670989006758,-6.22230720520020,7.30863809585571,5.07490205764771
361,2530078462,-23.45251274108887,-87.29767608642578,44.95775222778320,9.58867645263672,-0.41087058186531,0.09321361780167,-6.78081750869751,7.17660427093506,4.32578229904175
362,2530095129,-23.31814384460449,-87.15552520751953,44.70672225952148,9.56297206878662,-0.38053205609322,0.04658436775208,-6.44205045700073,7.19887447357178,3.41587710380554
363,2530111796,-22.95744514465332,-87.03899383544922,44.23382949829102,9.51689434051514,-0.38822796940804,0.18843449652195,-6.15044927597046,6.08381128311157,2.13207840919495
364,2530128463,-22.49342536926270,-86.94629669189453,43.65356826782227,9.55386734008789,-0.47349068522453,0.22346328198910,-6.39314222335815,4.90389776229858,1.16243243217468
365,2530145130,-21.93203163146973,-86.86768341064453,42.98532104492188,9.63090229034424,-0.48944422602654,0.28185853362083,-5.83011054992676,4.23179435729980,0.46836668252945
366,2530161797,-21.33458709716797,-86.80548858642578,42.29132461547852,9.68756389617920,-0.56655156612396,0.24726513028145,-5.20450735092163,3.36877465248108,-0.06866124272346
367,2530178464,-20.55435752868652,-86.75110626220703,41.43426513671875,9.75894641876221,-0.75374639034271,0.32887369394302,-4.00333547592163,3.13108873367310,-0.84060245752335
368,2530195131,-19.35438346862793,-86.70420074462891,40.18915939331055,9.88771915435791,-0.77661877870560,0.38250231742859,-2.06082320213318,3.15424895286560,-2.34942722320557
369,2530211798,-17.75826644897461,-86.64007568359375,38.57233047485352,9.98300933837891,-0.59393864870071,0.35278445482254,-0.55512326955795,4.49321031570435,-3.40938997268677
370,2530228465,-16.13214111328125,-86.55929565429688,36.92638015747070,9.99276447296143,-0.55528700351715,0.42413726449013,-0.49371680617332,5.39094877243042,-3.48948073387146
371,2530245132,-14.51269435882568,-86.48136138916016,35.31947326660156,9.93026065826416,-0.57483369112015,0.44563171267509,1.44967901706696,5.10924768447876,-3.70761156082153
372,2530261799,-12.78423213958740,-86.40696716308594,33.63136672973633,9.87805938720703,-0.56638401746750,0.41848114132881,3.14041161537170,4.87633800506592,-4.34938907623291
373,2530278466,-10.86289596557617,-86.33842468261719,31.77421760559082,9.80363464355469,-0.52844649553299,0.42866602540016,4.58939933776855,4.51754331588745,-5.35704421997070
374,2530295133,-8.85489845275879,-86.27906036376953,29.86061668395996,9.78239250183105,-0.45318052172661,0.37466889619827,6.42264223098755,3.83190488815308,-5.97082757949829
375,2530311800,-6.75055074691772,-86.20827484130859,27.86578559875488,9.87918376922607,-0.37727442383766,0.34675002098083,7.34360027313232,4.31337261199951,-6.49322605133057
376,2530328467,-4.53227090835571,-86.11476135253906,25.76150321960449,9.95543193817139,-0.39523777365685,0.39611041545868,7.64015579223633,5.47001743316650,-7.15797758102417
377,2530345134,-2.36249256134033,-85.99993133544922,23.70065116882324,10.01089859008789,-0.43616157770157,0.45303940773010,7.35636758804321,6.46130514144897,-7.37062692642212
378,2530361801,-0.35366037487984,-85.87901306152344,21.80618476867676,10.04185867309570,-0.49446359276772,0.42514806985855,7.66852331161499,6.50902318954468,-7.17880201339722
379,2530378468,1.54298603534698,-85.74684143066406,20.03381919860840,10.08232688903809,-0.48932841420174,0.43525430560112,8.26103496551514,6.91374206542969,-7.15386772155762
380,2530395135,3.58232975006104,-85.58980560302734,18.11235046386719,10.19067096710205,-0.52418226003647,0.46962919831276,7.92742919921875,8.09588432312012,-8.42784404754639
381,2530411802,6.00092506408691,-85.40028381347656,15.81393527984619,10.21000480651855,-0.55740803480148,0.71852713823318,8.15748691558838,9.49402236938477,-11.04885005950928
382,2530428469,8.67133712768555,-85.20273590087891,13.29679393768311,10.11112689971924,-0.57334756851196,0.77817279100418,10.23011493682861,9.25751113891602,-13.08950233459473
383,2530445136,11.22033882141113,-85.00833129882812,10.93216896057129,10.11561679840088,-0.51124423742294,0.70563590526581,12.10064888000488,8.47006797790527,-13.24829673767090
384,2530461803,13.30115890502930,-84.79959869384766,9.05121517181396,10.07599449157715,-0.45032158493996,0.75172156095505,12.96022319793701,9.17701625823975,-11.77400112152100
385,2530478470,15.03160572052002,-84.58531951904297,7.52544116973877,10.03626823425293,-0.48374497890472,1.06299340724945,13.18969821929932,9.45418357849121,-10.68038749694824
386,2530495137,16.80483055114746,-84.38720703125000,5.95233726501465,10.07417392730713,-0.66246420145035,1.39696669578552,12.96776580810547,8.01588916778564,-11.30863094329834
387,2530511804,18.88213920593262,-84.20417785644531,4.10014200210571,10.07791042327881,-0.88692915439606,1.61261856555939,14.57432460784912,6.13203477859497,-13.20389652252197
388,2530528471,21.28379249572754,-84.02410888671875,1.97052860260010,10.11320781707764,-0.78883254528046,1.85039603710175,17.51398468017578,4.71186256408691,-15.34190273284912
389,2530545138,23.78676605224609,-83.81325531005859,-0.20646508038044,10.24431228637695,-0.74725997447968,2.25105929374695,20.80558395385742,5.43776941299438,-16.95373916625977
390,2530561805,26.07774162292480,-83.52849578857422,-2.09716844558716,10.39689254760742,-0.76457685232162,2.70944571495056,25.22301483154297,9.28706932067871,-17.87772178649902
391,2530578472,27.69145584106445,-83.07782745361328,-3.16763377189636,10.36810684204102,-0.92894870042801,3.35074830055237,33.54977798461914,19.79687500000000,-18.25694465637207
392,2530595139,28.02930831909180,-82.37193298339844,-2.68521833419800,9.89120388031006,-1.09344911575317,3.64043617248535,49.50116348266602,38.21836090087891,-15.91682243347168
393,2530611806,26.37163543701172,-81.36002349853516,0.02883128263056,8.14579010009766,-1.11855447292328,3.54050159454346,62.26985931396484,63.57539367675781,-6.64010620117188
394,2530628473,22.96767234802246,-80.09513854980469,4.58220529556274,5.02653455734253,-0.58409810066223,3.06224584579468,65.93405914306641,86.33422088623047,8.94598197937012
395,2530645140,18.77594375610352,-78.78421783447266,9.72092056274414,1.32871353626251,-0.08911497890949,1.82687747478485,52.14093780517578,92.58879852294922,25.39458656311035
396,2530661807,14.11168479919434,-77.51913452148438,14.75240993499756,-1.36008930206299,0.46215975284576,-0.39188659191132,16.15024375915527,89.30233001708984,38.58044052124023
397,2530678474,9.53728675842285,-75.97649383544922,19.15632820129395,-1.96756315231323,1.34451460838318,-1.38393557071686,-16.70315742492676,101.97731018066406,40.94203948974609
398,2530695141,6.92238712310791,-74.65073394775391,21.62860679626465,-2.51002693176270,0.74328958988190,-2.22795271873474,-12.86558055877686,83.12764739990234,26.46675300598145
399,2530711808,6.38387298583984,-73.26140594482422,21.92108535766602,-1.01556658744812,1.73837924003601,-3.14662981033325,-14.91552352905273,82.39966583251953,-4.19778919219971
400,2530728475,7.36715745925903,-72.07661437988281,20.83370018005371,0.22856886684895,1.32477283477783,-1.17375195026398,-2.76026153564453,67.28423309326172,-27.15469741821289
401,2530745142,8.54039382934570,-70.97676086425781,19.51070404052734,2.11329865455627,0.85835212469101,-1.20289683341980,-4.36837816238403,60.91101455688477,-33.38941955566406
402,2530761809,8.85256290435791,-69.87726593017578,19.01348114013672,2.36734509468079,0.75432145595551,-0.23946984112263,-8.84821605682373,62.73146438598633,-19.20458984375000
403,2530778476,8.72215652465820,-68.95845031738281,18.93679618835449,2.14630293846130,1.07522153854370,-0.38676211237907,-11.59528160095215,53.27251815795898,-9.37155055999756
404,2530795143,8.50875568389893,-68.14562225341797,18.80331993103027,2.04801130294800,1.06883633136749,-0.45602235198021,-19.72144317626953,46.81708526611328,-9.55219936370850
405,2530811810,8.25253009796143,-67.44978332519531,18.58703231811523,0.48865166306496,0.83674043416977,-0.18718610703945,-26.84883499145508,39.62618637084961,-10.28540992736816
406,2530828477,8.06874370574951,-66.88001251220703,18.31210708618164,-1.03819882869720,0.39351573586464,-1.49039947986603,-25.68816757202148,31.97133636474609,-10.53817462921143
407,2530845144,7.80813503265381,-66.32320404052734,18.08154487609863,-1.93277585506439,0.33185076713562,0.30886101722717,-27.79106521606445,31.36886596679688,-9.40232276916504
408,2530861811,7.01491498947144,-66.14038085937500,18.20539855957031,0.44789561629295,2.11794066429138,1.77356874942780,-40.24853134155273,10.30067062377930,2.20662403106689
409,2530878478,5.46021842956543,-65.53215789794922,18.90270805358887,6.71731805801392,5.51193571090698,10.37834644317627,-54.55991363525391,37.17659378051758,13.71300315856934
410,2530895145,3.42358064651489,-64.78134918212891,19.26607513427734,25.53037643432617,7.76829147338867,14.08623313903809,-101.85479736328125,44.66144561767578,6.30529022216797
411,2530911812,2.68659806251526,-63.53635406494141,18.94662094116211,25.21595382690430,-3.52610754966736,12.52702426910400,-60.90755081176758,73.18386840820312,-11.64865684509277
412,2530928479,0.80765688419342,-63.21941757202148,20.83949851989746,24.96139717102051,-2.93598794937134,10.44412994384766,-10.64848709106445,19.58648872375488,50.94672012329102
413,2530945146,-0.99989795684814,-63.51573944091797,22.82727432250977,30.99733734130859,-4.72490215301514,10.68120956420898,-1.28775107860565,-18.83365058898926,54.08467102050781
414,2530961813,-1.88776874542236,-64.20648956298828,23.32472801208496,28.71804046630859,4.09173059463501,11.29826641082764,-25.93261718750000,-42.72731399536133,12.74876213073730
415,2530978480,-1.80722284317017,-65.18750762939453,22.32995605468750,33.35477066040039,3.90903067588806,9.29022026062012,-48.58183670043945,-58.96880722045898,-26.73309898376465
416,2530995147,-1.79139280319214,-66.16689300537109,21.46662521362305,36.31007003784180,0.14238628745079,9.72553253173828,-45.70177459716797,-59.01714324951172,-22.50005149841309
417,2531011814,-1.83474481105804,-67.08889770507812,20.71971130371094,36.07364273071289,-0.74399542808533,9.72136116027832,-43.18888473510742,-55.67678451538086,-18.84860420227051
418,2531028481,-2.40819811820984,-68.08977508544922,20.63706588745117,34.65795516967773,0.29368570446968,8.12921333312988,-38.44087982177734,-60.88527679443359,-3.44411993026733
419,2531045148,-3.15113782882690,-69.46729278564453,20.89118194580078,31.39701461791992,0.84892541170120,5.87020969390869,-29.81177902221680,-83.75782012939453,2.17409205436707
420,2531061815,-3.75495409965515,-71.11042022705078,20.95086288452148,30.56583404541016,1.01386654376984,2.73395800590515,-32.30868530273438,-99.41725158691406,-4.06000614166260
421,2531078482,-3.52158808708191,-73.01062011718750,20.21096038818359,29.73616027832031,0.97062009572983,1.31394660472870,-27.69153022766113,-113.83918762207031,-20.20259475708008
422,2531095149,-3.27970671653748,-75.36221313476562,19.50935554504395,29.26459503173828,1.24619817733765,-0.49915063381195,-25.45315742492676,-141.09844970703125,-19.14011001586914
423,2531111816,-4.81631851196289,-77.88256835937500,20.32466888427734,25.45277786254883,1.55387604236603,-1.67017436027527,-44.04534912109375,-152.57112121582031,1.29351150989532
424,2531128483,-9.11586380004883,-80.44338226318359,23.95503234863281,19.66147994995117,1.73542869091034,-1.48316574096680,-43.43024063110352,-158.35505676269531,22.68346214294434
425,2531145150,-15.50479221343994,-82.35353088378906,29.24125671386719,10.20188236236572,-4.42940521240234,2.13739013671875,-69.12691497802734,-122.91701507568359,22.56501388549805
426,2531161817,-17.16228675842285,-83.70085144042969,30.24444961547852,4.78604984283447,-10.99411582946777,14.75747680664062,-39.16442108154297,-80.58912658691406,-15.06215667724609
427,2531178484,-11.29679107666016,-83.85905456542969,23.93214607238770,4.51817846298218,-9.62353229522705,20.12776565551758,-24.06299781799316,-0.03302143886685,-41.35593414306641
428,2531195151,-2.56824755668640,-83.76011657714844,16.10205650329590,-7.50244951248169,-7.38252449035645,18.77214813232422,57.13990402221680,11.07955551147461,-48.79794692993164
429,2531211818,-2.19485592842102,-83.67228698730469,17.31336975097656,-7.94714021682739,4.00186491012573,23.47865486145020,95.14631652832031,4.00281143188477,8.81377410888672
430,2531228485,1.28723704814911,-84.40773773193359,14.14613342285156,-9.99550533294678,-0.64966911077499,7.39470243453979,20.41270828247070,-44.98799896240234,-19.38639259338379
431,2531245152,6.29907035827637,-85.75864410400391,10.41369342803955,-9.67028331756592,-0.12506353855133,-4.59123992919922,78.01885986328125,-83.25917053222656,-13.07427024841309
432,2531261819,4.40702438354492,-87.61206054687500,13.28466987609863,-0.21241158246994,4.66793775558472,-5.68646669387817,58.80221176147461,-111.28869628906250,20.94562721252441
433,2531278486,-20.56429672241211,-88.47813415527344,38.55350875854492,8.37917041778564,4.55836391448975,-5.55118179321289,17.43495178222656,-58.97240066528320,43.52017593383789
434,2531295153,-37.58891296386719,-87.79247283935547,55.40144348144531,12.35370063781738,1.51531469821930,-1.62035489082336,-10.31104183197021,19.46818161010742,48.98479843139648
435,2531311820,-35.34492492675781,-86.80200195312500,52.73984527587891,6.62299680709839,-2.80050611495972,2.12219595909119,-24.26784515380859,51.59701156616211,30.23597717285156
436,2531328487,-30.41244506835938,-86.17689514160156,47.74408340454102,1.57889580726624,-2.66859388351440,3.08370423316956,-2.69455528259277,40.53196716308594,5.74802350997925
437,2531345154,-22.17541503906250,-85.69729614257812,39.69608688354492,-0.34044596552849,-3.98464107513428,3.31881785392761,13.06880855560303,39.94434356689453,-17.11680221557617
438,2531361821,-13.87349700927734,-85.25116729736328,32.03366088867188,0.22354677319527,-2.28233575820923,3.02621555328369,40.30861663818359,35.68803787231445,-25.42270660400391
439,2531378488,-9.10477161407471,-84.85375976562500,27.91638755798340,-0.59982204437256,0.64946573972702,3.77235960960388,40.52174758911133,26.64670753479004,-15.40664577484131
440,2531395155,-7.05538749694824,-84.39828491210938,26.46159553527832,-3.59840893745422,0.62872201204300,1.66875004768372,36.58684921264648,27.27698326110840,-3.55916094779968
441,2531411822,-5.59092378616333,-83.85758972167969,25.57947349548340,-5.66651487350464,0.63709604740143,0.32545590400696,35.74773025512695,31.89651870727539,-1.12546312808990
442,2531428489,-3.72453641891479,-83.47096252441406,23.94152450561523,-3.05143117904663,2.13292837142944,0.35304418206215,14.83730697631836,23.04988861083984,-8.23601722717285
443,2531445156,-2.63662123680115,-83.20456695556641,22.71197700500488,1.05817568302155,0.81132054328918,-0.27963259816170,-7.47049665451050,15.45782089233398,-6.97387886047363
444,2531461823,-3.55187845230103,-82.69185638427734,23.51113319396973,2.33826565742493,-0.59883999824524,0.21357724070549,-6.78476953506470,29.44917297363281,8.20970535278320
445,2531478490,-6.04970407485962,-82.12779998779297,25.98963737487793,2.17663884162903,-1.26082193851471,-0.17537744343281,-1.91843318939209,31.11903190612793,23.06104087829590
446,2531495157,-8.48288154602051,-81.52699279785156,28.56215667724609,0.98209536075592,-1.46246075630188,-0.43968409299850,7.33453702926636,32.02328491210938,26.97933197021484
447,2531511824,-10.01486015319824,-80.98888397216797,30.30676269531250,0.10742112994194,-0.38468104600906,0.16463907063007,12.07710170745850,28.34852027893066,21.55145263671875
448,2531528491,-10.45600223541260,-80.61711883544922,30.96623802185059,0.22644577920437,0.66662681102753,0.13238665461540,13.12140464782715,19.86187553405762,10.85439205169678
449,2531545158,-10.00928783416748,-80.35908508300781,30.74563598632812,-0.57897204160690,0.46658021211624,0.23466701805592,14.27744960784912,14.65345859527588,1.27072489261627
450,2531561825,-9.30019569396973,-80.19334411621094,30.25703239440918,-0.33218050003052,0.86800217628479,0.17927415668964,14.17754077911377,9.65950679779053,-2.53872680664062
451,2531578492,-9.00735950469971,-79.99319458007812,30.12233924865723,-0.17766265571117,0.69408768415451,0.69499027729034,10.14139461517334,11.09945106506348,1.21228861808777
452,2531595159,-9.40987873077393,-79.80217742919922,30.59318542480469,-0.20257879793644,0.43306833505630,1.12119400501251,4.19455528259277,9.54269409179688,7.39709234237671
453,2531611826,-10.48209953308105,-79.60468292236328,31.63446807861328,-0.69182795286179,0.35218331217766,1.55307793617249,-2.32561588287354,8.76920604705811,13.71608448028564
454,2531628493,-12.09293937683105,-79.57260894775391,33.27870178222656,-1.55684065818787,0.47009137272835,1.41097164154053,0.91607767343521,-2.58052754402161,18.52681541442871
455,2531645160,-13.97507572174072,-79.68553924560547,35.25989532470703,-1.61572694778442,0.28874444961548,1.36738526821136,4.53759384155273,-12.41061496734619,19.98294258117676
456,2531661827,-16.26661109924316,-79.96556091308594,37.64099884033203,-1.24857163429260,0.14552493393421,0.40882623195648,3.66521620750427,-23.78308677673340,20.64293861389160
457,2531678494,-19.01276016235352,-80.25086975097656,40.56432342529297,-1.50507330894470,1.93350613117218,0.54408717155457,8.56323719024658,-26.42210006713867,24.18850326538086
458,2531695161,-23.30137825012207,-80.82037353515625,44.23746490478516,3.11048173904419,-5.80631542205811,1.80467271804810,-39.38000106811523,-45.91831588745117,22.12007713317871
459,2531711828,-23.97650718688965,-80.63865661621094,45.54141616821289,11.71853256225586,-4.78637552261353,5.06437206268311,37.24207305908203,3.96741795539856,16.59389877319336
460,2531728495,-26.52798843383789,-80.84497833251953,48.45190048217773,38.78163146972656,-2.56466555595398,9.33188819885254,19.79250335693359,-24.16130447387695,20.78026199340820
461,2531745162,-9.24989986419678,-81.20320129394531,31.83334732055664,105.72444915771484,-45.20081710815430,17.07097244262695,52.08937454223633,26.35040664672852,-153.30162048339844
462,2531761829,-11.08531665802002,-80.12850952148438,36.86456298828125,15.43088912963867,34.94543457031250,10.70917606353760,188.24557495117188,53.83543395996094,60.16323089599609
463,2531778496,-21.73549270629883,-79.66416168212891,47.08570098876953,-4.81062364578247,8.28130054473877,-11.95761013031006,-34.64013671875000,-4.70024061203003,111.53564453125000
464,2531795163,-24.42227554321289,-80.93405914306641,49.19617462158203,29.65022087097168,3.83744430541992,-7.43830299377441,-35.84508895874023,-79.46089172363281,-9.57440757751465
465,2531811830,-22.36404800415039,-81.43184661865234,46.48644638061523,30.51925086975098,-2.63819432258606,-7.01119279861450,-36.62564849853516,-18.49302101135254,-34.01475524902344
466,2531828497,-20.61954689025879,-81.77249908447266,44.34557342529297,21.98959541320801,-4.43681859970093,-2.39057731628418,-21.86050033569336,-13.12066745758057,-24.23583412170410
467,2531845164,-18.76736640930176,-81.71148681640625,42.35924911499023,15.97594451904297,-5.43827152252197,-0.38310042023659,-6.26594877243042,8.25895881652832,-14.17289161682129
468,2531861831,-17.77664375305176,-81.80274200439453,41.49137878417969,14.86737823486328,-2.05412912368774,0.53618586063385,8.45254039764404,-3.80732345581055,-8.10724925994873
469,2531878498,-16.30575942993164,-81.80691528320312,40.31643295288086,15.35361194610596,-0.91994792222977,2.57789301872253,19.01701164245605,1.75839138031006,-8.98143291473389
470,2531895165,-12.28073787689209,-81.69669342041016,36.57521438598633,13.56531524658203,1.02912771701813,3.71025419235229,19.89066505432129,13.41278457641602,-28.84688758850098
471,2531911832,-8.78937053680420,-81.73792266845703,33.00876617431641,11.94098186492920,2.09177494049072,3.65722942352295,-1.73232686519623,2.24539566040039,-30.03467750549316
472,2531928499,-6.72596168518066,-81.78775787353516,30.68135643005371,9.97731113433838,0.21417741477489,2.07722091674805,-13.84600353240967,-1.21023452281952,-19.50921440124512
473,2531945166,-5.16462469100952,-81.96290588378906,28.65434455871582,7.05401659011841,0.26288175582886,1.34884941577911,-26.16611671447754,-9.62337493896484,-17.46799468994141
474,2531961833,-4.34583663940430,-82.31362152099609,27.19881439208984,7.23577213287354,-0.40898945927620,0.70838165283203,-36.82788848876953,-20.94058036804199,-12.93587875366211
475,2531978500,-3.64962315559387,-82.70696258544922,25.85486793518066,7.63309526443481,-0.65760725736618,0.38221669197083,-37.62008666992188,-23.76930618286133,-11.41788578033447
476,2531995167,-2.84084129333496,-83.00420379638672,24.41278076171875,7.71431112289429,-0.22551809251308,0.55272078514099,-36.77049636840820,-18.15588951110840,-11.03913784027100
477,2532011834,-1.85702872276306,-83.20315551757812,22.78255653381348,6.95257711410522,-0.39897701144218,0.80820584297180,-37.52114105224609,-12.40246677398682,-11.50602912902832
478,2532028501,-0.68746483325958,-83.39173126220703,21.00671768188477,6.77562379837036,-0.36242768168449,1.01370036602020,-35.08687973022461,-11.98193454742432,-11.96372509002686
479,2532045168,1.55718219280243,-83.55092620849609,18.22902679443359,7.01960563659668,0.17204551398754,1.23265171051025,-30.34189987182617,-10.64295387268066,-18.14411544799805
480,2532061835,5.27282810211182,-83.66760253906250,13.99195194244385,7.58698558807373,0.34768357872963,1.77392888069153,-29.14363861083984,-9.60948657989502,-27.07922935485840
481,2532078502,9.24150085449219,-83.72461700439453,9.53402042388916,7.06119918823242,-0.09190516918898,1.88184142112732,-27.17738151550293,-8.05085277557373,-27.94481849670410
482,2532095169,12.99820327758789,-83.67945098876953,5.32897424697876,6.48573875427246,-0.58558022975922,2.30237770080566,-24.81191253662109,-3.60727787017822,-26.92763519287109
483,2532111836,16.14261436462402,-83.66760253906250,1.74672234058380,7.21903276443481,-0.35802668333054,2.88739824295044,-24.39840507507324,-6.19757509231567,-22.35871696472168
484,2532128503,18.57371520996094,-83.69255065917969,-1.12927210330963,8.54530906677246,0.08534912019968,2.60462021827698,-25.07707023620605,-8.03262329101562,-16.94521713256836
485,2532145170,20.61351776123047,-83.74349212646484,-3.57557082176208,9.26546859741211,0.30155563354492,2.09593772888184,-22.94153022766113,-9.19620704650879,-13.37503242492676
486,2532161837,22.33135795593262,-83.81182098388672,-5.62913799285889,9.59452152252197,0.42574965953827,2.07479977607727,-18.84799194335938,-9.64282226562500,-10.19650650024414
487,2532178504,23.71369361877441,-83.92546844482422,-7.28306913375854,10.18768596649170,0.38073468208313,1.63595998287201,-15.16236114501953,-11.36784744262695,-6.35671567916870
488,2532195171,24.25023078918457,-84.02558135986328,-8.03110027313232,10.64976596832275,-0.20870441198349,1.41346240043640,-11.87240886688232,-8.33868694305420,-1.14577841758728
489,2532211838,24.20056343078613,-84.07917785644531,-8.13689517974854,10.78017139434814,-0.17203159630299,1.37963926792145,-8.72667980194092,-4.15273571014404,1.43778252601624
490,2532228505,24.20925712585449,-84.06594848632812,-8.25004768371582,10.53279399871826,0.22862637042999,1.40792024135590,-5.66011905670166,-0.50090122222900,-0.25300869345665
491,2532245172,24.43984603881836,-83.99868011474609,-8.58139896392822,10.36054420471191,0.60478597879410,1.44142019748688,-5.36741733551025,1.88962841033936,-2.83092737197876
492,2532261839,24.90680694580078,-83.92114257812500,-9.12323093414307,10.16726779937744,0.43017286062241,1.38628602027893,-3.73826980590820,1.87450408935547,-4.33781194686890
493,2532278506,25.30095291137695,-83.81407928466797,-9.54584407806396,9.80077457427979,0.29264298081398,1.48881113529205,-0.99190944433212,3.73173189163208,-4.46049642562866
494,2532295173,25.74761009216309,-83.72599029541016,-10.01037979125977,9.18635177612305,0.41671106219292,1.18497753143311,-0.33091610670090,2.53789210319519,-4.29275274276733
495,2532311840,26.18727302551270,-83.63474273681641,-10.44428539276123,9.05801486968994,0.41758650541306,1.20807445049286,1.07493317127228,2.73653149604797,-4.25781726837158
496,2532328507,26.42124366760254,-83.56636047363281,-10.63609600067139,9.37744998931885,0.32093942165375,1.28365731239319,3.17391943931580,2.17948079109192,-2.25503158569336
497,2532345174,26.48758506774902,-83.47658538818359,-10.61280918121338,9.59886169433594,0.22217279672623,1.39180958271027,5.93957233428955,3.95963406562805,-1.54595065116882
498,2532361841,26.59384536743164,-83.36697387695312,-10.59405231475830,9.56298065185547,0.15225102007389,1.38150370121002,8.06685066223145,5.01120328903198,-2.11066007614136
499,2532378508,26.52113914489746,-83.25840759277344,-10.36118793487549,9.62577056884766,0.27969315648079,1.42894172668457,10.08880805969238,5.62047910690308,-0.74532347917557
500,2532395175,26.46075439453125,-83.18753051757812,-10.11302280426025,9.61573123931885,0.49723017215729,1.37864327430725,11.73605918884277,3.65983271598816,0.38486301898956
501,2532411842,26.42143630981445,-83.14042663574219,-9.90462303161621,9.84395790100098,0.56451463699341,1.12060821056366,10.62661075592041,2.25409770011902,0.79007524251938
502,2532428509,26.48617744445801,-83.10243988037109,-9.78624439239502,10.03282642364502,0.52250874042511,1.20857310295105,11.51158237457275,1.48917424678802,0.45908224582672
503,2532445176,26.76311111450195,-83.08525848388672,-9.84194660186768,9.90615558624268,0.48816260695457,1.03440427780151,13.86894035339355,-0.19422762095928,-0.10410928726196
504,2532461843,27.13148880004883,-83.04794311523438,-9.96165180206299,9.81939792633057,0.19566382467747,0.99958628416061,15.54206848144531,0.66603314876556,-1.06795442104340
505,2532478510,27.65762710571289,-83.00663757324219,-10.20303535461426,9.96100330352783,0.14837905764580,1.05378806591034,17.76744651794434,0.45894169807434,-1.98318707942963
506,2532495177,28.32620429992676,-82.96517181396484,-10.57486057281494,10.02495956420898,0.12454957515001,1.20820856094360,18.54303359985352,-0.01319055538625,-2.85421872138977
507,2532511844,28.98704338073730,-82.93828582763672,-10.95967769622803,9.87081432342529,0.41299319267273,1.26512467861176,17.30885124206543,-0.87267047166824,-2.54082727432251
508,2532528511,29.51577568054199,-82.94515228271484,-11.21908569335938,9.92537593841553,0.41085007786751,1.12322664260864,16.84890937805176,-2.22824954986572,-0.74806445837021
509,2532545178,29.83483695983887,-82.97206115722656,-11.25397682189941,9.91002941131592,0.58559650182724,1.35729849338531,17.63792419433594,-2.46911168098450,1.29640102386475
510,2532561845,30.06038284301758,-83.02883911132812,-11.20254898071289,9.46781635284424,0.55806797742844,1.40726816654205,17.16349792480469,-3.70493841171265,2.74824523925781
511,2532578512,30.28341674804688,-83.09714508056641,-11.15170288085938,9.31286525726318,0.54293781518936,1.15184116363525,16.98301506042480,-4.29132843017578,3.09399151802063
512,2532595179,30.52947998046875,-83.15742492675781,-11.13842868804932,9.59555435180664,0.46709528565407,1.13770115375519,16.12794685363770,-4.01138114929199,2.63498568534851
513,2532611846,30.93922996520996,-83.21447753906250,-11.30699348449707,9.54919242858887,0.47567334771156,1.04030168056488,15.11728000640869,-4.48914766311646,1.43715536594391
514,2532628513,31.40567207336426,-83.26040649414062,-11.55641937255859,9.65807437896729,0.35840299725533,0.90063792467117,13.69427394866943,-4.21121120452881,0.64497947692871
515,2532645180,31.85663032531738,-83.30842590332031,-11.79909229278564,9.85907936096191,0.24952213466167,0.84710931777954,13.17188930511475,-4.28080034255981,0.78273737430573
516,2532661847,32.08811187744141,-83.34928131103516,-11.83540439605713,9.96270275115967,0.43833968043327,0.69672644138336,12.29950618743896,-3.14339065551758,1.79971563816071
517,2532678514,32.16719436645508,-83.39734649658203,-11.74794673919678,9.97308921813965,0.59349912405014,0.74689036607742,10.53074264526367,-3.05947041511536,2.76873421669006
518,2532695181,32.07123947143555,-83.44174957275391,-11.50896453857422,10.03209877014160,0.62426745891571,0.67134356498718,9.05890846252441,-2.32262444496155,3.52879071235657
519,2532711848,31.80550384521484,-83.47847747802734,-11.11805438995361,9.97644424438477,0.68148666620255,0.83208376169205,7.93400907516479,-1.38534641265869,4.14462232589722
520,2532728515,31.53242301940918,-83.54171752929688,-10.74971103668213,9.82232475280762,0.70362383127213,0.88742244243622,6.14032649993896,-2.87000012397766,4.84529685974121
521,2532745182,31.19949531555176,-83.61092376708984,-10.33842277526855,9.77004718780518,0.66911208629608,0.88493913412094,5.11971712112427,-3.04843688011169,5.23834228515625
522,2532761849,30.89255332946777,-83.67876434326172,-9.96157741546631,9.71532630920410,0.62160843610764,0.92989528179169,4.63099527359009,-3.13662791252136,4.96465253829956
523,2532778516,30.67988777160645,-83.75279998779297,-9.68280887603760,9.56776618957520,0.49155172705650,0.99911999702454,4.44402217864990,-3.80619549751282,4.55903625488281
524,2532795183,30.66260719299316,-83.84116363525391,-9.60433578491211,9.56000614166260,0.32111710309982,1.04306352138519,4.21189403533936,-5.24867677688599,3.87200045585632
525,2532811850,30.78287696838379,-83.94190979003906,-9.64252662658691,9.69586086273193,0.14381645619869,0.97970277070999,5.51093196868896,-6.25989294052124,3.60295224189758
526,2532828517,30.87482833862305,-84.02523040771484,-9.63214683532715,9.81431198120117,0.35391893982887,0.86039555072784,6.71385765075684,-5.19172668457031,3.33764266967773
527,2532845184,31.05007743835449,-84.10250091552734,-9.69441509246826,9.84300136566162,0.39426070451736,0.84667730331421,7.37288618087769,-5.10744953155518,2.77563619613647
528,2532861851,31.18659210205078,-84.16870880126953,-9.71256256103516,10.00167465209961,0.37699434161186,0.84301245212555,7.68317079544067,-4.40185737609863,2.68576097488403
529,2532878518,31.18961524963379,-84.21016693115234,-9.61199092864990,10.08922195434570,0.34682068228722,0.84598231315613,6.75546598434448,-2.75617671012878,2.53723287582397
530,2532895185,31.31221771240234,-84.24203491210938,-9.61942291259766,10.07707500457764,0.38054397702217,0.86978614330292,7.48732328414917,-2.58703660964966,1.67253518104553
531,2532911852,31.64912033081055,-84.28046417236328,-9.83254623413086,9.95073318481445,0.49828279018402,0.93974429368973,8.06191825866699,-3.56961011886597,0.83888006210327
532,2532928519,32.09472656250000,-84.33192443847656,-10.15689849853516,9.79895496368408,0.54064220190048,0.98079115152359,7.94460058212280,-4.57113170623779,0.71248149871826
533,2532945186,32.66482925415039,-84.38864135742188,-10.63153171539307,9.81624889373779,0.56821799278259,0.85290598869324,6.44237661361694,-5.30532026290894,0.18547441065311
534,2532961853,33.29411697387695,-84.44696044921875,-11.17370796203613,9.87083339691162,0.53510004281998,0.71488666534424,5.95155954360962,-5.59935331344604,-0.01696201227605
535,2532978520,33.74811553955078,-84.49679565429688,-11.54715251922607,9.79312038421631,0.62732273340225,0.78266716003418,5.51925516128540,-4.60981845855713,0.57268720865250
536,2532995187,34.20236587524414,-84.55493927001953,-11.94527816772461,9.81826400756836,0.62968486547470,0.74138635396957,4.04855537414551,-5.10239696502686,0.78864729404449
537,2533011854,34.52130126953125,-84.60311889648438,-12.21543502807617,9.78397083282471,0.52029556035995,0.67132985591888,3.57578325271606,-4.18063354492188,1.09097945690155
538,2533028521,34.84853363037109,-84.64924621582031,-12.50523853302002,9.75231647491455,0.52658289670944,0.62121325731277,2.89586806297302,-4.14176559448242,0.96600222587585
539,2533045188,35.12579727172852,-84.68784332275391,-12.75526332855225,9.73740291595459,0.36400312185287,0.63776797056198,2.27782702445984,-3.62963294982910,0.91261881589890
540,2533061855,35.46518325805664,-84.73266601562500,-13.07412052154541,9.70890712738037,0.46298301219940,0.70071077346802,1.88937222957611,-4.14497423171997,0.83895683288574
541,2533078522,35.89440536499023,-84.78590393066406,-13.48795509338379,9.82826328277588,0.51318448781967,0.61820495128632,1.60327804088593,-4.84898996353149,0.74762189388275
542,2533095189,36.23861312866211,-84.83676910400391,-13.82736015319824,9.84129810333252,0.48659163713455,0.50666594505310,0.94738835096359,-4.48112773895264,1.03255057334900
543,2533111856,36.48258972167969,-84.87761688232422,-14.06351947784424,9.76333808898926,0.50638061761856,0.43457072973251,1.09744048118591,-3.67265033721924,1.16542923450470
544,2533128523,36.75859832763672,-84.90522766113281,-14.32263183593750,9.82738018035889,0.51102280616760,0.48574236035347,1.65418338775635,-3.08171343803406,0.59873527288437
545,2533145190,37.08440399169922,-84.92252349853516,-14.63014221191406,9.84567832946777,0.45855969190598,0.53965932130814,1.75067937374115,-2.73642897605896,0.03704877197742
546,2533161857,37.46144866943359,-84.93233489990234,-14.99021434783936,9.92828941345215,0.57771039009094,0.52106010913849,1.67883574962616,-2.55753707885742,-0.43608826398849
547,2533178524,37.81338882446289,-84.94925689697266,-15.34803962707520,9.89555644989014,0.57909291982651,0.62881624698639,0.30996486544609,-2.88736462593079,-0.15507850050926
548,2533195191,38.05467987060547,-84.97352600097656,-15.59656429290771,9.82237625122070,0.57061254978180,0.63105213642120,0.20061148703098,-2.88631439208984,0.58859270811081
549,2533211858,38.30049896240234,-84.99003601074219,-15.86153888702393,9.77155780792236,0.57097816467285,0.67532813549042,-0.51391881704330,-2.56846714019775,0.24307090044022
550,2533228525,38.72517013549805,-85.01913452148438,-16.31097602844238,9.72776603698730,0.37212908267975,0.66854107379913,-0.80493688583374,-3.75714659690857,-0.02357009053230
551,2533245192,39.32151031494141,-85.05126190185547,-16.92189598083496,9.68582916259766,0.45613315701485,0.73943024873734,-0.16059803962708,-4.42658519744873,-0.51818972826004
552,2533261859,40.09198760986328,-85.09455871582031,-17.69988250732422,9.59130859375000,0.28213715553284,0.77952063083649,0.30129498243332,-5.48605442047119,-0.69546806812286
553,2533278526,40.95614242553711,-85.14352416992188,-18.55976867675781,9.69703388214111,0.29577186703682,0.67263805866241,1.01716983318329,-6.01464939117432,-0.69384151697159
554,2533295193,41.85898971557617,-85.18814086914062,-19.44706916809082,9.73262310028076,0.42622417211533,0.65428692102432,1.70128536224365,-5.90760231018066,-0.85781419277191
555,2533311860,42.73560333251953,-85.22693634033203,-20.30377578735352,9.73963165283203,0.31818306446075,0.70221155881882,1.94705212116241,-5.53516721725464,-0.88141626119614
556,2533328527,43.51993560791016,-85.26864624023438,-21.06796455383301,9.78694438934326,0.32154765725136,0.77392351627350,1.94829416275024,-5.35189580917358,-0.32927048206329
557,2533345194,44.41135787963867,-85.32286834716797,-21.93244743347168,9.85361385345459,0.34075644612312,0.78397315740585,2.36710023880005,-6.21964073181152,-0.07428323477507
558,2533361861,45.32646179199219,-85.38301849365234,-22.80549049377441,9.80096817016602,0.35323104262352,0.71346962451935,3.27183079719543,-6.48109579086304,0.27436324954033
559,2533378528,46.22121047973633,-85.44486999511719,-23.64756393432617,9.85855293273926,0.40725409984589,0.64336162805557,3.89625573158264,-6.41262102127075,0.57609373331070
560,2533395195,47.15135955810547,-85.50325012207031,-24.51678276062012,9.85004997253418,0.35382476449013,0.60810035467148,4.40005779266357,-6.32415485382080,0.45881316065788
561,2533411862,48.12091827392578,-85.55709838867188,-25.40754508972168,9.79688739776611,0.33706387877464,0.62565004825592,5.46157646179199,-6.18596172332764,0.31990268826485
562,2533428529,49.03815460205078,-85.60626220703125,-26.24090766906738,9.80911636352539,0.45610454678535,0.66244840621948,5.76175642013550,-5.76271057128906,0.38873681426048
563,2533445196,49.98900222778320,-85.65823364257812,-27.11655044555664,9.82812404632568,0.44348123669624,0.56745070219040,5.23465347290039,-5.99912261962891,0.51415586471558
564,2533461863,50.76799011230469,-85.70057678222656,-27.82324981689453,9.86719131469727,0.25860413908958,0.56538772583008,5.03540611267090,-5.00708532333374,0.64964061975479
565,2533478530,51.52656555175781,-85.74112701416016,-28.49295234680176,9.90716266632080,0.42870685458183,0.60634458065033,6.01766586303711,-4.78730249404907,0.74280679225922
566,2533495197,52.14578247070312,-85.77784729003906,-29.02309226989746,9.87493991851807,0.47845295071602,0.61571466922760,6.00518608093262,-4.14175319671631,1.01052987575531
567,2533511864,52.78395462036133,-85.82036590576172,-29.58155250549316,9.85903167724609,0.56794124841690,0.57454389333725,5.44787263870239,-4.43087577819824,1.26090037822723
568,2533528531,53.45955657958984,-85.86748504638672,-30.18805313110352,9.80210876464844,0.44812557101250,0.59341478347778,4.81376647949219,-4.73370742797852,1.40867280960083
569,2533545198,54.18600463867188,-85.91036224365234,-30.84200668334961,9.79917240142822,0.49819836020470,0.59073096513748,5.03371620178223,-4.71579217910767,1.14677047729492
570,2533561865,54.90269851684570,-85.95131683349609,-31.49193954467773,9.79860877990723,0.47180765867233,0.56284236907959,4.67516326904297,-4.61001110076904,1.13395118713379
571,2533578532,55.47093582153320,-85.98522186279297,-31.98817443847656,9.75241470336914,0.40711507201195,0.48696088790894,4.97186088562012,-3.80593895912170,1.20103096961975
572,2533595199,55.90912246704102,-86.00727844238281,-32.35203933715820,9.78491020202637,0.44600784778595,0.52429759502411,5.08814287185669,-2.93387746810913,0.96068125963211
573,2533611866,56.45099258422852,-86.03069305419922,-32.82860946655273,9.79935550689697,0.44782704114914,0.63423925638199,4.56388902664185,-3.36301803588867,0.79713129997253
574,2533628533,57.01269149780273,-86.05935668945312,-33.33148574829102,9.83086967468262,0.41601365804672,0.51820558309555,4.17854547500610,-3.60613322257996,1.01690101623535
575,2533645200,57.48975753784180,-86.08739471435547,-33.75843429565430,9.87135028839111,0.56171149015427,0.33458647131920,3.64149880409241,-3.31873393058777,1.20096683502197
576,2533661867,57.87106704711914,-86.11738586425781,-34.09418869018555,9.87558937072754,0.49711352586746,0.41268330812454,3.35558414459229,-3.04626584053040,1.51369786262512
577,2533678534,58.27822113037109,-86.14405059814453,-34.45522308349609,9.86752796173096,0.46561267971992,0.42563492059708,3.39240241050720,-3.01462173461914,1.30839920043945
578,2533695201,58.57686233520508,-86.16559600830078,-34.71200561523438,9.77102947235107,0.47807916998863,0.45837032794952,3.12065124511719,-2.48789572715759,1.28778076171875
579,2533711868,58.87167739868164,-86.19167327880859,-34.96595001220703,9.75348091125488,0.50502216815948,0.42505583167076,3.06137108802795,-2.61225867271423,1.53907978534698
580,2533728535,59.03292846679688,-86.22560882568359,-35.09950256347656,9.80086231231689,0.48789665102959,0.45962855219841,2.25124120712280,-2.44356060028076,2.21210503578186
581,2533745202,59.17745590209961,-86.26184082031250,-35.22629165649414,9.85139751434326,0.49499920010567,0.46061259508133,1.65577149391174,-2.47552514076233,2.33426475524902
582,2533761869,59.27890014648438,-86.29271697998047,-35.32015228271484,9.80484962463379,0.52175307273865,0.44369095563889,1.04953145980835,-2.19409251213074,2.13005423545837
583,2533778536,59.52288055419922,-86.32342529296875,-35.56006622314453,9.74218559265137,0.46010282635689,0.38301533460617,0.84806209802628,-2.66466164588928,1.83691704273224
584,2533795203,59.87392425537109,-86.35890197753906,-35.90144348144531,9.77444362640381,0.34807080030441,0.37997052073479,1.19562029838562,-3.13375282287598,1.91018903255463
585,2533811870,60.27358627319336,-86.38995361328125,-36.28881072998047,9.81674575805664,0.32407665252686,0.41851648688316,1.35990631580353,-3.13518023490906,1.61513686180115
586,2533828537,60.72249221801758,-86.42401885986328,-36.71865844726562,9.82684421539307,0.37275901436806,0.40643340349197,1.77151513099670,-3.34117031097412,1.71080017089844
587,2533845204,60.93608474731445,-86.45580291748047,-36.91378402709961,9.79583263397217,0.44559112191200,0.38575351238251,1.70849525928497,-2.49591279029846,2.03838682174683
588,2533861871,60.99710845947266,-86.48191833496094,-36.97206115722656,9.78155994415283,0.50292885303497,0.42162901163101,0.74964529275894,-1.88271927833557,1.99329555034637
589,2533878538,61.29377746582031,-86.50744628906250,-37.28270339965820,9.79341506958008,0.48525249958038,0.40428429841995,-0.22844611108303,-2.66505956649780,1.51593899726868
590,2533895205,61.61746597290039,-86.52903747558594,-37.62450790405273,9.84089756011963,0.43872398138046,0.35030341148376,-0.47106876969337,-2.63901710510254,1.26446700096130
591,2533911872,61.81051635742188,-86.54209136962891,-37.83422088623047,9.81591892242432,0.39808821678162,0.35381132364273,-0.40459740161896,-1.97959911823273,1.07173776626587
592,2533928539,62.17960357666016,-86.55525207519531,-38.22700500488281,9.78756809234619,0.37426814436913,0.37356993556023,-0.80346399545670,-2.54279685020447,0.74246096611023
593,2533945206,62.69655990600586,-86.56937408447266,-38.75642776489258,9.81865882873535,0.36511102318764,0.33643129467964,-0.11604474484921,-3.01386570930481,0.61305278539658
594,2533961873,63.15596008300781,-86.58069610595703,-39.22628402709961,9.83550071716309,0.35252413153648,0.32437905669212,-0.00021130475216,-2.73239469528198,0.56189131736755
595,2533978540,63.51219558715820,-86.58900451660156,-39.59381866455078,9.83166408538818,0.37251165509224,0.35985991358757,-0.05704588070512,-2.32215642929077,0.57508200407028
596,2533995207,63.94295501708984,-86.60247039794922,-40.03818130493164,9.79991912841797,0.44283941388130,0.38371697068214,-0.19459888339043,-2.70556569099426,0.75106686353683
597,2534011874,64.28141021728516,-86.60997009277344,-40.39781188964844,9.87252712249756,0.44241726398468,0.33614045381546,-0.65328395366669,-2.27090549468994,0.56951123476028
598,2534028541,64.22857666015625,-86.60010528564453,-40.37406158447266,9.85177707672119,0.46099558472633,0.35089325904846,-1.16333508491516,-0.59752500057220,0.22271522879601
599,2534045208,64.24720001220703,-86.58964538574219,-40.43155670166016,9.79529666900635,0.47309711575508,0.44124212861061,-1.75464272499084,-0.84239524602890,0.06679791957140
600,2534061875,64.59104919433594,-86.59062194824219,-40.81995010375977,9.72470474243164,0.45840376615524,0.37100794911385,-2.05129528045654,-2.19952893257141,0.17243748903275
601,2534078542,64.94498443603516,-86.59561920166016,-41.22161865234375,9.79266071319580,0.39160543680191,0.33091545104980,-2.25484585762024,-2.35340356826782,0.39384648203850
602,2534095209,65.33007049560547,-86.59768676757812,-41.65664672851562,9.85313987731934,0.31803914904594,0.40541228652000,-2.36846399307251,-2.37899088859558,0.17469142377377
603,2534111876,65.78361511230469,-86.59958648681641,-42.13967895507812,9.83364486694336,0.32519906759262,0.33952778577805,-1.14271688461304,-2.54009437561035,0.12333794683218
604,2534128543,66.15491485595703,-86.59780120849609,-42.53943634033203,9.86668395996094,0.38730469346046,0.27224317193031,-1.08429443836212,-2.18120956420898,0.04484783485532
605,2534145210,66.42960357666016,-86.59095764160156,-42.84630966186523,9.85605430603027,0.38494426012039,0.35088205337524,-1.32105183601379,-1.76361382007599,-0.09148856252432
606,2534161877,66.73952484130859,-86.58689117431641,-43.18339920043945,9.85338020324707,0.39388644695282,0.32412150502205,-1.01843142509460,-1.93338108062744,0.01721173524857
607,2534178544,66.95044708251953,-86.58258819580078,-43.42020416259766,9.79786491394043,0.38966140151024,0.32640677690506,-0.94935369491577,-1.60254144668579,0.14750351011753
608,2534195211,67.26805114746094,-86.58235931396484,-43.75745010375977,9.75473022460938,0.36914998292923,0.32494714856148,-0.56678980588913,-2.03106784820557,0.23637962341309
609,2534211878,67.67621612548828,-86.58361816406250,-44.18384933471680,9.76541805267334,0.32585000991821,0.31548219919205,-0.46923106908798,-2.36396908760071,0.20937103033066
610,2534228545,68.10616302490234,-86.58184051513672,-44.62614059448242,9.78380775451660,0.32271516323090,0.34998178482056,-0.11138322949409,-2.34844756126404,0.02433206699789
611,2534245212,68.51498413085938,-86.57526397705078,-45.04261398315430,9.77022838592529,0.31530559062958,0.32511517405510,0.15668569505215,-2.16901779174805,-0.18649247288704
612,2534261879,68.87812805175781,-86.56510162353516,-45.41028213500977,9.70680236816406,0.32233491539955,0.32615360617638,0.34757712483406,-1.93181848526001,-0.33306109905243
613,2534278546,69.30656433105469,-86.55490875244141,-45.83699035644531,9.77375411987305,0.28941711783409,0.31037187576294,0.72193241119385,-2.14318752288818,-0.39450603723526
614,2534295213,69.76269531250000,-86.54701995849609,-46.28282928466797,9.83600044250488,0.30895817279816,0.31621775031090,1.24859988689423,-2.26735138893127,-0.28610664606094
615,2534311880,70.25514984130859,-86.54390716552734,-46.75897598266602,9.82927131652832,0.32916650176048,0.31539872288704,1.60485339164734,-2.47739481925964,-0.04485423862934
616,2534328547,70.89524078369141,-86.54595184326172,-47.38163757324219,9.77015495300293,0.34751871228218,0.31380069255829,1.69604730606079,-3.08716893196106,0.09151417016983
617,2534345214,71.62892913818359,-86.55201721191406,-48.10380554199219,9.77831172943115,0.29792091250420,0.28135293722153,1.34253466129303,-3.51160359382629,0.24071456491947
618,2534361881,72.12655639648438,-86.55264282226562,-48.58866119384766,9.84754180908203,0.37361389398575,0.25394260883331,1.39651334285736,-2.59612894058228,0.20387069880962
619,2534378548,72.30924224853516,-86.54713439941406,-48.76377487182617,9.81616592407227,0.43344986438751,0.26334568858147,1.05210566520691,-1.42713332176208,0.19861370325089
620,2534395215,72.56967163085938,-86.54361724853516,-49.02536392211914,9.80621528625488,0.40061947703362,0.25905197858810,0.53960180282593,-1.76859498023987,0.24469728767872
621,2534411882,72.81013488769531,-86.53700256347656,-49.26380920410156,9.83851146697998,0.41321152448654,0.23329396545887,0.71579813957214,-1.63473713397980,0.08599464595318
622,2534428549,72.94036865234375,-86.52825164794922,-49.40000534057617,9.84183025360107,0.39935216307640,0.22832888364792,0.23215351998806,-1.24626922607422,0.06773278117180
623,2534445216,73.02404022216797,-86.52046966552734,-49.49379348754883,9.82314395904541,0.39673358201981,0.23675963282585,-0.02155948802829,-1.11929404735565,0.17042687535286
624,2534461883,73.14287567138672,-86.51029968261719,-49.62456893920898,9.80755710601807,0.37820640206337,0.23887877166271,-0.12999084591866,-1.20966851711273,-0.00135106989183
625,2534478550,73.17378997802734,-86.49787139892578,-49.66770935058594,9.81538677215576,0.38836178183556,0.25075808167458,-0.14930282533169,-0.86282134056091,-0.04892665520310
626,2534495217,73.10441589355469,-86.48314666748047,-49.61310958862305,9.81372165679932,0.37061983346939,0.27249979972839,-0.32314899563789,-0.48485481739044,-0.07003151625395
627,2534511884,73.07284545898438,-86.46958923339844,-49.59247589111328,9.78291606903076,0.34061929583549,0.31921944022179,-0.07917526364326,-0.62184435129166,-0.03959083184600
628,2534528551,73.09397125244141,-86.45950317382812,-49.61725997924805,9.76340579986572,0.38615909218788,0.32911798357964,0.36117747426033,-0.84028220176697,0.10448700189590
629,2534545218,73.22062683105469,-86.45602416992188,-49.74725341796875,9.73335075378418,0.37693849205971,0.25957393646240,0.38938990235329,-1.33067584037781,0.37791538238525
630,2534561885,73.33348083496094,-86.45486450195312,-49.86552429199219,9.81350135803223,0.35965624451637,0.28262719511986,0.26337537169456,-1.33335232734680,0.53720080852509
631,2534578552,73.50435638427734,-86.45369720458984,-50.03151321411133,9.82883262634277,0.32967576384544,0.32478317618370,0.88750571012497,-1.50035989284515,0.47955942153931
632,2534595219,73.58735656738281,-86.45182800292969,-50.09601593017578,9.82674884796143,0.37572386860847,0.22338405251503,1.68999004364014,-1.12816905975342,0.53828936815262
633,2534611886,73.42958068847656,-86.44576263427734,-49.93264770507812,9.85250186920166,0.39232516288757,0.19780005514622,0.88485467433929,-0.25051140785217,0.54621642827988
634,2534628553,73.34146881103516,-86.44432830810547,-49.83762359619141,9.82745933532715,0.39989331364632,0.25056016445160,0.98397594690323,-0.56839060783386,0.72935998439789
635,2534645220,73.05059814453125,-86.44136047363281,-49.53987503051758,9.79996490478516,0.42864590883255,0.22957716882229,0.94692718982697,0.17560067772865,0.86713075637817
636,2534661887,72.71498870849609,-86.44080352783203,-49.20429229736328,9.76100254058838,0.40541419386864,0.27734303474426,0.52733993530273,0.26509147882462,1.06167197227478
637,2534678554,72.61823272705078,-86.44477081298828,-49.10290527343750,9.74517059326172,0.39198327064514,0.24915480613708,0.83702939748764,-0.64602905511856,1.06256198883057
638,2534695221,72.53055572509766,-86.44560241699219,-49.00868988037109,9.79090023040771,0.39958798885345,0.28059920668602,0.95057046413422,-0.61301434040070,0.86529296636581
639,2534711888,72.44472503662109,-86.44350433349609,-48.91822433471680,9.78584861755371,0.38593041896820,0.28244251012802,0.84180617332458,-0.57510751485825,0.70117968320847
640,2534728555,72.46073913574219,-86.44207763671875,-48.92736053466797,9.75918674468994,0.34758687019348,0.28429475426674,0.98478919267654,-0.93838530778885,0.62847805023193
641,2534745222,72.51904296875000,-86.44184875488281,-48.97398757934570,9.79170322418213,0.34195092320442,0.29630029201508,1.28331160545349,-1.09281075000763,0.65216344594955
642,2534761889,72.53413391113281,-86.44108581542969,-48.97466659545898,9.80597209930420,0.38034573197365,0.33192870020866,1.43241584300995,-0.92097514867783,0.67383176088333
643,2534778556,72.66336059570312,-86.44020080566406,-49.08468246459961,9.77804279327393,0.36506697535515,0.32789540290833,1.74483966827393,-1.30398750305176,0.53429377079010
644,2534795223,72.87907409667969,-86.44268035888672,-49.27669906616211,9.78399944305420,0.39249667525291,0.26102975010872,2.01009726524353,-1.65764749050140,0.65302139520645
645,2534811890,73.10127258300781,-86.43849945068359,-49.47410202026367,9.81871986389160,0.37004330754280,0.26351040601730,2.08331155776978,-1.55796289443970,0.25588366389275
646,2534828557,73.30342102050781,-86.42960357666016,-49.64908981323242,9.80759716033936,0.37685185670853,0.26250061392784,2.22279810905457,-1.40193033218384,0.02173237688839
647,2534845224,73.47767639160156,-86.42292022705078,-49.79626083374023,9.83379364013672,0.38139989972115,0.26095235347748,2.21315503120422,-1.34390473365784,0.17800827324390
648,2534861891,73.53038787841797,-86.41712188720703,-49.82297897338867,9.80619907379150,0.40578839182854,0.27965128421783,2.13502335548401,-0.93029814958572,0.36058843135834
649,2534878558,73.59439849853516,-86.41307830810547,-49.86005401611328,9.80160045623779,0.43844527006149,0.29699447751045,2.19362545013428,-0.99646860361099,0.44454684853554
650,2534895225,73.80693817138672,-86.41302490234375,-50.05040740966797,9.78166770935059,0.41803538799286,0.28370216488838,1.92598533630371,-1.61281239986420,0.50492870807648
651,2534911892,74.03128051757812,-86.41165924072266,-50.25380325317383,9.79990386962891,0.35499650239944,0.23208069801331,1.85847032070160,-1.64085853099823,0.42711740732193
652,2534928559,74.23097991943359,-86.40473175048828,-50.42593765258789,9.78822040557861,0.33928227424622,0.25156530737877,2.24131631851196,-1.43920969963074,0.14127966761589
653,2534945226,74.39035797119141,-86.39326477050781,-50.55390548706055,9.78432941436768,0.36189848184586,0.24592587351799,2.46830844879150,-1.20776045322418,-0.08114743977785
654,2534961893,74.54369354248047,-86.38128662109375,-50.67881393432617,9.76819324493408,0.35461539030075,0.23613969981670,2.29812502861023,-1.19090723991394,-0.11350907385349
655,2534978560,74.68910980224609,-86.36934661865234,-50.79772186279297,9.75952625274658,0.34712669253349,0.24386076629162,2.17017054557800,-1.17933666706085,-0.07810592651367
656,2534995227,74.78904724121094,-86.35723876953125,-50.86864852905273,9.79588031768799,0.39932969212532,0.27701625227928,2.32198977470398,-0.99930500984192,-0.06368597596884
657,2535011894,74.99023437500000,-86.35234832763672,-51.04642486572266,9.75156497955322,0.42866581678391,0.29925447702408,1.99370539188385,-1.50926041603088,0.25900843739510
658,2535028561,75.32191467285156,-86.35395812988281,-51.35975646972656,9.75540447235107,0.39523410797119,0.24069119989872,1.70823907852173,-2.10980153083801,0.50691378116608
659,2535045228,75.50562286376953,-86.35353088378906,-51.52437210083008,9.82521629333496,0.31874564290047,0.25017234683037,1.74020373821259,-1.53237593173981,0.53912174701691
660,2535061895,75.71637725830078,-86.34992980957031,-51.70422363281250,9.81582355499268,0.30954065918922,0.28779745101929,2.44483447074890,-1.54073834419250,0.32891827821732
661,2535078562,75.89745330810547,-86.34606933593750,-51.84717559814453,9.81722545623779,0.38285356760025,0.20898941159248,2.86909627914429,-1.40844869613647,0.37202444672585
662,2535095229,75.96212005615234,-86.34355926513672,-51.88928222656250,9.79858970642090,0.38427689671516,0.20552755892277,1.93486022949219,-1.05099797248840,0.52284485101700
663,2535111896,76.09201049804688,-86.34360504150391,-51.98929595947266,9.79141616821289,0.34607452154160,0.20950151979923,2.37057065963745,-1.30271959304810,0.62101835012436
664,2535128563,76.01535034179688,-86.33943176269531,-51.88795089721680,9.82889842987061,0.36614772677422,0.23241825401783,2.03636336326599,-0.49901857972145,0.56993383169174
665,2535145230,75.85743713378906,-86.33868408203125,-51.70749664306641,9.79334068298340,0.33292359113693,0.25058269500732,1.89906620979309,-0.25332877039909,0.83465379476547
666,2535161897,75.80889892578125,-86.34050750732422,-51.63308715820312,9.79316806793213,0.30761277675629,0.21435362100601,2.11061477661133,-0.68779706954956,0.89864724874496
667,2535178564,75.66027069091797,-86.33649444580078,-51.45482254028320,9.82391643524170,0.30772334337234,0.25695940852165,2.32084369659424,-0.21452558040619,0.65316230058670
668,2535195231,75.44371795654297,-86.32997894287109,-51.20995330810547,9.81462955474854,0.29360163211823,0.29797115921974,2.23199319839478,0.07042212039232,0.56659138202667
669,2535211898,75.20787811279297,-86.32485961914062,-50.94502258300781,9.79595756530762,0.29727151989937,0.25611269474030,2.28406381607056,0.12460578233004,0.67899268865585
670,2535228565,74.92280578613281,-86.32443237304688,-50.62991333007812,9.80595684051514,0.29623541235924,0.26972377300262,2.32757949829102,0.24033674597740,0.99629557132721
671,2535245232,74.57225036621094,-86.32294464111328,-50.24872207641602,9.82687568664551,0.29350414872169,0.29134815931320,2.35868620872498,0.50086915493011,1.00456845760345
