sep=,
DeviceTag:,Xsens_DOT_2
FirmwareVersion:,3.0.0
AppVersion:,2023.6.0
StartTime: ,2025-04-09_10:53:16_000 CEST
© Movella Technologies B. V. 2005-2025

PacketCounter,SampleTimeFine,Euler_X,Euler_Y,Euler_Z,Acc_X,Acc_Y,Acc_Z,Gyr_X,Gyr_Y,Gyr_Z
0,1850731542,43.59572219848633,-88.48612976074219,8.87532997131348,0.00000000000000,0.00000000000000,0.00000000000000,0.00000000000000,0.00000000000000,0.00000000000000
1,1850748209,43.93788528442383,-88.48987579345703,8.54000949859619,9.79037857055664,0.19981133937836,0.43033683300018,0.91552585363388,-1.63907802104950,0.49684786796570
2,1850764876,44.31720733642578,-88.49845123291016,8.16181087493896,9.80640983581543,0.22859603166580,0.39066255092621,0.73457229137421,-1.90720510482788,0.67758399248123
3,1850781543,44.49201583862305,-88.49871063232422,7.99068117141724,9.87820816040039,0.21060176193714,0.38511723279953,0.83995574712753,-1.29924893379211,0.53544628620148
4,1850798210,44.61812210083008,-88.49234008789062,7.86777687072754,9.84688282012939,0.18514840304852,0.49042102694511,0.81575167179108,-0.97628557682037,0.32387259602547
5,1850814877,45.06194686889648,-88.49688720703125,7.43409824371338,9.81032180786133,0.20744591951370,0.41023105382919,1.19255292415619,-1.78869473934174,0.44380408525467
6,1850831544,44.97294998168945,-88.49910736083984,7.52124118804932,9.87134361267090,0.25163608789444,0.28642663359642,0.85806393623352,-1.08910965919495,0.91082614660263
7,1850848211,44.52833938598633,-88.48832702636719,7.95684099197388,9.82959556579590,0.25478330254555,0.37454333901405,-0.01618082262576,-0.16887092590332,0.74467635154724
8,1850864878,44.07196426391602,-88.47094726562500,8.39659214019775,9.79801368713379,0.24584279954433,0.39459872245789,-0.16767992079258,0.14262431859970,0.48064789175987
9,1850881545,43.57437515258789,-88.45947265625000,8.87288856506348,9.76630783081055,0.22682833671570,0.41442713141441,-0.61332809925079,-0.06996749341488,0.77924072742462
10,1850898212,43.24898147583008,-88.45718383789062,9.17296409606934,9.74417972564697,0.21083064377308,0.39505037665367,-0.78417760133743,-0.69064003229141,0.99509173631668
11,1850914879,43.12864685058594,-88.45617675781250,9.28158283233643,9.75526523590088,0.18495734035969,0.39143308997154,-0.10898844897747,-0.94278436899185,0.80586516857147
12,1850931546,43.15694427490234,-88.45124053955078,9.23799991607666,9.76037216186523,0.17303313314915,0.45847848057747,-0.21598549187183,-0.94364219903946,0.47890624403954
13,1850948213,43.35811996459961,-88.45262908935547,9.02998352050781,9.77859020233154,0.16186869144440,0.40507411956787,-0.14471815526485,-1.40234029293060,0.52617448568344
14,1850964880,43.51390075683594,-88.45959472656250,8.86549472808838,9.83308219909668,0.20002330839634,0.37951961159706,-0.02559349127114,-1.59213030338287,0.81485527753830
15,1850981547,43.44724273681641,-88.46226501464844,8.92572879791260,9.85657691955566,0.23184530436993,0.37257128953934,0.18754899501801,-1.15963423252106,0.90391063690186
16,1850998214,43.40355682373047,-88.46405029296875,8.96514034271240,9.82921695709229,0.21629615128040,0.39910882711411,0.36366191506386,-1.13024365901947,0.83246392011642
17,1851014881,43.32880783081055,-88.46609497070312,9.03777980804443,9.82886981964111,0.19737574458122,0.41952699422836,0.33939385414124,-1.14244794845581,0.91068512201309
18,1851031548,43.19166564941406,-88.46800231933594,9.16363906860352,9.82241916656494,0.21080666780472,0.41031217575073,0.07975795120001,-1.02226054668427,0.92528432607651
19,1851048215,43.13970184326172,-88.47171783447266,9.20172119140625,9.80261039733887,0.21918712556362,0.42532223463058,-0.40549382567406,-1.22956955432892,0.91383546590805
20,1851064882,43.11719131469727,-88.47672271728516,9.21152114868164,9.78795337677002,0.20764881372452,0.39395546913147,-0.55732601881027,-1.33910238742828,0.94463479518890
21,1851081549,43.06785583496094,-88.48405456542969,9.23744583129883,9.77772045135498,0.24550025165081,0.40069487690926,-0.52687239646912,-1.39290177822113,1.06095480918884
22,1851098216,42.97314834594727,-88.49026489257812,9.31385993957520,9.80525398254395,0.19381065666676,0.39776837825775,-0.58215749263763,-1.30051696300507,1.06501460075378
23,1851114883,42.78316497802734,-88.49441528320312,9.48268318176270,9.78501319885254,0.17757862806320,0.39220049977303,-0.56069397926331,-1.09744668006897,1.08115041255951
24,1851131550,42.72573471069336,-88.49884033203125,9.52254867553711,9.82109260559082,0.18377852439880,0.38913580775261,-0.46967923641205,-1.25406825542450,0.94519829750061
25,1851148217,42.64987182617188,-88.49806213378906,9.58301258087158,9.81856155395508,0.19908313453197,0.39063000679016,-0.34695604443550,-1.00289714336395,0.75662469863892
26,1851164884,42.51079177856445,-88.49858093261719,9.69831466674805,9.83233928680420,0.22008334100246,0.39818847179413,-0.54197114706039,-0.99424022436142,0.87915599346161
27,1851181551,42.43016433715820,-88.50380706787109,9.75332927703857,9.81512260437012,0.20950432121754,0.41399446129799,-0.87574285268784,-1.29192352294922,1.01371204853058
28,1851198218,42.27346801757812,-88.51273345947266,9.88029289245605,9.82933902740479,0.21985386312008,0.38325992226601,-1.03429841995239,-1.34485220909119,1.21550178527832
29,1851214885,41.90513610839844,-88.51430511474609,10.23101425170898,9.82550048828125,0.19732078909874,0.38579779863358,-0.98635149002075,-0.82219970226288,1.17170429229736
30,1851231552,41.62739181518555,-88.51168060302734,10.47794246673584,9.79210662841797,0.17998343706131,0.40971368551254,-0.97631132602692,-0.72656184434891,0.90949410200119
31,1851248219,41.32696533203125,-88.51141357421875,10.75604915618896,9.78997230529785,0.17237943410873,0.42258179187775,-1.11308324337006,-0.80884271860123,1.01814317703247
32,1851264886,41.09775924682617,-88.51246643066406,10.95125865936279,9.78930091857910,0.18507520854473,0.41804108023643,-1.22051537036896,-0.95537275075912,1.00330042839050
33,1851281553,40.87597656250000,-88.51351928710938,11.14452743530273,9.80616378784180,0.17713408172131,0.40762451291084,-1.11207151412964,-0.93945467472076,0.97440963983536
34,1851298220,40.65924835205078,-88.50878906250000,11.33586883544922,9.82964134216309,0.18920403718948,0.43760931491852,-0.90334075689316,-0.69056332111359,0.75735473632812
35,1851314887,40.66730880737305,-88.50839233398438,11.30083656311035,9.81048965454102,0.18490187823772,0.43121728301048,-1.03998434543610,-1.09541022777557,0.64391607046127
36,1851331554,40.76383972167969,-88.51483154296875,11.19399738311768,9.80660438537598,0.17014189064503,0.42750769853592,-0.67497783899307,-1.53048038482666,0.84574413299561
37,1851348221,40.75453186035156,-88.52514648437500,11.18330097198486,9.81255054473877,0.15751011669636,0.44948613643646,-0.51297754049301,-1.56745231151581,1.10545682907104
38,1851364888,40.76963424682617,-88.53392791748047,11.14898777008057,9.80835151672363,0.17964072525501,0.39404341578484,-0.66938149929047,-1.51767396926880,1.00625896453857
39,1851381555,40.56083297729492,-88.53260040283203,11.33149814605713,9.83124446868896,0.17732216417789,0.41226726770401,-1.00217998027802,-0.88920235633850,0.90502464771271
40,1851398222,40.43325424194336,-88.53327178955078,11.43714904785156,9.83549594879150,0.15633018314838,0.48445579409599,-0.85892826318741,-1.01179766654968,0.85055929422379
41,1851414889,40.62073898315430,-88.53968048095703,11.23509311676025,9.80431652069092,0.15119165182114,0.49739986658096,-0.42629140615463,-1.58343482017517,0.72483950853348
42,1851431556,40.64828109741211,-88.54478454589844,11.19531154632568,9.87240028381348,0.20251251757145,0.35116150975227,-0.05047623068094,-1.39775538444519,0.90275806188583
43,1851448223,40.01497650146484,-88.53713989257812,11.80436801910400,9.87639141082764,0.21087309718132,0.38096883893013,-0.83263683319092,-0.12014277279377,1.09571135044098
44,1851464890,39.69813537597656,-88.53233337402344,12.09249496459961,9.78872585296631,0.18840743601322,0.41600221395493,-1.02881729602814,-0.60599005222321,0.88348448276520
45,1851481557,39.37086105346680,-88.52581787109375,12.39475631713867,9.75791358947754,0.17733366787434,0.40252053737640,-1.04391610622406,-0.46766871213913,0.78880715370178
46,1851498224,39.00708007812500,-88.52249908447266,12.73175430297852,9.80906963348389,0.18183302879333,0.42907154560089,-1.06654477119446,-0.61432695388794,0.98646020889282
47,1851514891,38.73042297363281,-88.51813507080078,12.98355960845947,9.77206134796143,0.15681947767735,0.45743328332901,-0.95265793800354,-0.64939075708389,0.85143011808395
48,1851531558,38.71446990966797,-88.51589202880859,12.97631359100342,9.77606582641602,0.16539277136326,0.47464957833290,-0.93401193618774,-0.99064171314240,0.61362904310226
49,1851548225,38.74051284790039,-88.51589202880859,12.92221450805664,9.79436683654785,0.17350696027279,0.42658242583275,-1.02085173130035,-1.15298759937286,0.66074359416962
50,1851564892,38.69528198242188,-88.51721191406250,12.94316482543945,9.81044483184814,0.15200544893742,0.42701986432076,-0.88639795780182,-1.12509548664093,0.78176361322403
51,1851581559,38.70075988769531,-88.51721191406250,12.91691589355469,9.83334350585938,0.15274959802628,0.44939067959785,-0.69941234588623,-1.10958695411682,0.67558610439301
52,1851598226,38.81217575073242,-88.52091217041016,12.78468132019043,9.83635997772217,0.15213121473789,0.45891228318214,-0.52629619836807,-1.40400493144989,0.71114945411682
53,1851614893,38.97581863403320,-88.53020477294922,12.60975551605225,9.81981754302979,0.17152492702007,0.44266465306282,-0.12491951882839,-1.69207072257996,0.85411936044693
54,1851631560,39.05253601074219,-88.53740692138672,12.51718330383301,9.81372833251953,0.17866718769073,0.40209197998047,-0.18475081026554,-1.50634038448334,0.87851554155350
55,1851648227,39.04895401000977,-88.53646850585938,12.50735855102539,9.84023094177246,0.15616238117218,0.40218338370323,-0.17769451439381,-1.06727468967438,0.67791688442230
56,1851664894,38.94404220581055,-88.53086090087891,12.58740139007568,9.83127784729004,0.16875164210796,0.40321660041809,-0.47503235936165,-0.72884136438370,0.59555929899216
57,1851681561,38.78218841552734,-88.52514648437500,12.72620677947998,9.81658077239990,0.19006027281284,0.39059716463089,-0.87006974220276,-0.70199924707413,0.66954159736633
58,1851698228,38.64039993286133,-88.52077484130859,12.84254837036133,9.81806182861328,0.19084385037422,0.41458097100258,-1.05515992641449,-0.76022976636887,0.67200046777725
59,1851714895,38.80405807495117,-88.51390838623047,12.64447402954102,9.81890106201172,0.16414631903172,0.42035314440727,-1.08935296535492,-0.95054495334625,0.23023255169392
60,1851731562,39.08166122436523,-88.50459289550781,12.33691215515137,9.81239795684814,0.19255596399307,0.43120646476746,-1.10799908638000,-0.94044077396393,-0.01308168657124
61,1851748229,39.21360015869141,-88.49494171142578,12.17985343933105,9.82774639129639,0.18114453554153,0.38382741808891,-1.02655053138733,-0.76796483993530,0.13189260661602
62,1851764896,39.12574005126953,-88.48534393310547,12.25952720642090,9.80150985717773,0.15800790488720,0.40818578004837,-0.84747934341431,-0.59557849168777,0.43054947257042
63,1851781563,39.03865432739258,-88.48006439208984,12.32965850830078,9.81167221069336,0.11605628579855,0.40703430771828,-0.53752738237381,-0.77755677700043,0.59728813171387
64,1851798230,38.90852355957031,-88.47877502441406,12.44673824310303,9.83133506774902,0.11642089486122,0.38867467641830,-0.19874815642834,-0.89006060361862,0.78989565372467
65,1851814897,38.66276931762695,-88.47723388671875,12.68687248229980,9.82480335235596,0.09117623418570,0.38757050037384,0.16288395226002,-0.76275265216827,0.93203330039978
66,1851831564,38.30733871459961,-88.46928405761719,13.03617477416992,9.79160022735596,0.12143230438232,0.38203889131546,0.38853183388710,-0.40277889370918,0.88352280855179
67,1851848231,38.04371643066406,-88.46660614013672,13.29380512237549,9.79384708404541,0.14209420979023,0.37479341030121,0.43159964680672,-0.68383985757828,0.92328649759293
68,1851864898,37.70560073852539,-88.46316528320312,13.63491916656494,9.79307270050049,0.14789178967476,0.37561300396919,0.60412669181824,-0.60185366868973,1.01577401161194
69,1851881565,37.32874679565430,-88.46252441406250,14.00565147399902,9.81230640411377,0.15614059567451,0.38896632194519,0.62894541025162,-0.68190610408783,1.16453254222870
70,1851898232,36.84897232055664,-88.46036529541016,14.48522949218750,9.82657718658447,0.17547859251499,0.38832151889801,0.60753327608109,-0.52570706605911,1.24795317649841
71,1851914899,36.32798385620117,-88.46201324462891,15.00693988800049,9.80186271667480,0.17078720033169,0.39191812276840,0.59162777662277,-0.66685867309570,1.43478512763977
72,1851931566,35.86629104614258,-88.46328735351562,15.48004531860352,9.80451011657715,0.15376447141171,0.38519981503487,1.24325323104858,-0.69003814458847,1.35466861724854
73,1851948233,35.41287612915039,-88.46430969238281,15.94237232208252,9.79262256622314,0.15295520424843,0.40189531445503,1.09270167350769,-0.69367510080338,1.33460080623627
74,1851964900,35.04957962036133,-88.46685791015625,16.30975914001465,9.80801200866699,0.18550133705139,0.39172196388245,0.90695852041245,-0.88026374578476,1.28523254394531
75,1851981567,34.56457138061523,-88.46278381347656,16.80289077758789,9.84536933898926,0.18926900625229,0.38340714573860,0.96602129936218,-0.43389829993248,1.21048176288605
76,1851998234,34.19433212280273,-88.45617675781250,17.18874931335449,9.85036754608154,0.14374154806137,0.45219257473946,1.15423619747162,-0.41183295845985,0.98151695728302
77,1852014901,33.86964035034180,-88.44845581054688,17.53221511840820,9.84269237518311,0.19182464480400,0.37263163924217,1.68634009361267,-0.37585994601250,0.89684140682220
78,1852031568,33.27708816528320,-88.43415069580078,18.12775802612305,9.85961723327637,0.21341152489185,0.29076918959618,1.06320869922638,0.18094091117382,1.03868472576141
79,1852048235,32.73265075683594,-88.42070770263672,18.66844749450684,9.80577182769775,0.20380167663097,0.35612952709198,0.42003551125526,0.08129472285509,1.00914037227631
80,1852064902,32.18674850463867,-88.40554046630859,19.20980072021484,9.78140163421631,0.19805465638638,0.38060852885246,0.29636451601982,0.18952116370201,0.95671111345291
81,1852081569,31.71678352355957,-88.39197540283203,19.65846252441406,9.76910018920898,0.16813968122005,0.39535772800446,0.09777648746967,0.01644335500896,0.93937140703201
82,1852098236,31.27056694030762,-88.37912750244141,20.10010719299316,9.74583911895752,0.15072071552277,0.44033303856850,0.38439533114433,-0.03586417809129,0.94086968898773
83,1852114903,31.22858238220215,-88.36937713623047,20.14380073547363,9.72825050354004,0.12905579805374,0.43662461638451,0.68525493144989,-0.52887022495270,0.46196341514587
84,1852131570,31.43077278137207,-88.36100006103516,19.93468666076660,9.76336479187012,0.14174000918865,0.39973253011703,0.51087087392807,-0.82150816917419,0.15251082181931
85,1852148237,31.54765129089355,-88.35111236572266,19.82361602783203,9.80730915069580,0.13918916881084,0.37852063775063,0.71602869033813,-0.65720272064209,0.21874527633190
86,1852164904,31.44633483886719,-88.33481597900391,19.92627716064453,9.83558464050293,0.15453223884106,0.42777377367020,0.78499078750610,-0.14441080391407,0.34896022081375
87,1852181571,31.35407257080078,-88.32369232177734,20.02512359619141,9.83019638061523,0.18807484209538,0.44582825899124,0.83977627754211,-0.41216596961021,0.49723210930824
88,1852198238,31.34886169433594,-88.31948852539062,20.03457832336426,9.82789039611816,0.18478751182556,0.46690750122070,0.80875945091248,-0.85252517461777,0.59000134468079
89,1852214905,31.41880989074707,-88.31553649902344,19.96526145935059,9.81659317016602,0.17296171188354,0.41167733073235,0.61205387115479,-0.94053030014038,0.48375985026360
90,1852231572,31.46518325805664,-88.30580902099609,19.91993904113770,9.82197284698486,0.16415144503117,0.40520828962326,0.71250683069229,-0.60236585140228,0.32863652706146
91,1852248239,31.52992248535156,-88.28650665283203,19.85619735717773,9.80024909973145,0.16955173015594,0.43283912539482,0.74595701694489,-0.14832954108715,0.01260144729167
92,1852264906,31.64833450317383,-88.26720428466797,19.73818397521973,9.78465366363525,0.17182961106300,0.43759188055992,0.65190720558167,-0.17076626420021,-0.09412026405334
93,1852281573,31.76534461975098,-88.24877929687500,19.61762809753418,9.78226470947266,0.20393349230289,0.42358049750328,0.43368706107140,-0.23123787343502,-0.06730377674103
94,1852298240,31.85249137878418,-88.23231506347656,19.52318763732910,9.81107425689697,0.20528860390186,0.48445805907249,0.25021046400070,-0.31935831904411,0.04163343831897
95,1852314907,32.10219192504883,-88.21952056884766,19.25717163085938,9.75575637817383,0.22764705121517,0.53712123632431,0.00137027946766,-0.67278802394867,-0.10227791219950
96,1852331574,32.65341186523438,-88.22106170654297,18.69129371643066,9.72801303863525,0.23194809257984,0.55865788459778,-0.24237938225269,-1.71245861053467,-0.12352363765240
97,1852348241,33.43832015991211,-88.23187255859375,17.88928604125977,9.72718238830566,0.21828652918339,0.54098111391068,-0.38514459133148,-2.42282700538635,-0.17500518262386
98,1852364908,34.53029251098633,-88.24710083007812,16.77696228027344,9.77600765228271,0.18652941286564,0.54423612356186,-0.36730533838272,-2.96354961395264,-0.45911407470703
99,1852381575,35.77864837646484,-88.26471710205078,15.51908683776855,9.77457618713379,0.16533313691616,0.54358261823654,-0.14845758676529,-3.26949286460876,-0.53981959819794
100,1852398242,37.14878082275391,-88.28103637695312,14.13776302337646,9.80832195281982,0.16090384125710,0.53022009134293,0.34556654095650,-3.33216738700867,-0.68293058872223
101,1852414909,38.44486618041992,-88.29544067382812,12.82879257202148,9.84430313110352,0.18554952740669,0.53926390409470,0.09823749959469,-3.18097543716431,-0.58733117580414
102,1852431576,39.75707626342773,-88.31217193603516,11.50915718078613,9.88719081878662,0.20706920325756,0.51175940036774,0.01935039088130,-3.32617378234863,-0.46157282590866
103,1852448243,40.97120666503906,-88.33000946044922,10.27895545959473,9.88007640838623,0.21268492937088,0.49837163090706,-0.08586017042398,-3.25709629058838,-0.23577129840851
104,1852464910,42.16711425781250,-88.34176635742188,9.06924152374268,9.86336421966553,0.19101050496101,0.45753747224808,0.03494853153825,-3.00697612762451,-0.35407638549805
105,1852481577,43.27105712890625,-88.34755706787109,7.95086431503296,9.87651634216309,0.19082753360271,0.47683760523796,0.00824728887528,-2.61268138885498,-0.47119048237801
106,1852498244,44.01849365234375,-88.35076141357422,7.20248746871948,9.84609508514404,0.18189623951912,0.50039190053940,0.68615144491196,-2.08532857894897,-0.09012468904257
107,1852514911,44.57738876342773,-88.35420227050781,6.64449930191040,9.83341979980469,0.17807330191135,0.48094457387924,0.57850116491318,-1.89182412624359,0.17108000814915
108,1852531578,44.95925521850586,-88.35742187500000,6.26414108276367,9.86967277526855,0.19662199914455,0.38926714658737,0.69839423894882,-1.67252826690674,0.39047840237617
109,1852548245,44.85400772094727,-88.35159301757812,6.37617158889771,9.89794445037842,0.16093628108501,0.41839149594307,0.86625999212265,-0.68277692794800,0.58290666341782
110,1852564912,44.69617843627930,-88.33798980712891,6.54988574981689,9.86251354217529,0.11236928403378,0.51122736930847,1.58720612525940,-0.27056616544724,0.33510369062424
111,1852581579,44.55525970458984,-88.32789611816406,6.73278760910034,9.86073112487793,0.15064756572247,0.43041676282883,2.69809293746948,-0.39871931076050,0.46475520730019
112,1852598246,43.93521499633789,-88.31089782714844,7.39422893524170,9.91814517974854,0.20312885940075,0.29926699399948,3.01622819900513,0.43394318223000,0.85058492422104
113,1852614913,43.03944778442383,-88.28559875488281,8.32545661926270,9.86670970916748,0.19850017130375,0.41203877329826,2.70754432678223,1.18878793716431,0.83082473278046
114,1852631580,42.27701950073242,-88.25796508789062,9.12145996093750,9.77104663848877,0.19353663921356,0.43832859396935,2.60446548461914,1.15422344207764,0.59854316711426
115,1852648247,41.39237594604492,-88.23719024658203,10.04052543640137,9.79376506805420,0.22720383107662,0.42591747641563,2.48831200599670,0.96061700582504,1.12608790397644
116,1852664914,40.55297851562500,-88.22094726562500,10.90522384643555,9.81353569030762,0.21775428950787,0.43998521566391,2.52335047721863,0.73345810174942,1.27022337913513
117,1852681581,39.90717315673828,-88.20507049560547,11.59109401702881,9.77852058410645,0.19269205629826,0.44698238372803,3.01522922515869,0.46513941884041,1.07830739021301
118,1852698248,39.48151779174805,-88.19008636474609,12.06044292449951,9.75777626037598,0.18298391997814,0.43583983182907,3.46346426010132,0.20408198237419,0.80499428510666
119,1852714915,39.19227600097656,-88.17576599121094,12.40308284759521,9.77151107788086,0.17105375230312,0.40892329812050,3.83055877685547,0.03426979482174,0.64026623964310
120,1852731582,38.76851272583008,-88.15814971923828,12.88348102569580,9.82497215270996,0.18384942412376,0.42493137717247,3.90561699867249,0.32225906848907,0.75519055128098
121,1852748249,38.40916061401367,-88.14227294921875,13.29572296142578,9.83871269226074,0.21512910723686,0.42966893315315,3.74571681022644,0.20760375261307,0.70185202360153
122,1852764916,38.15639114379883,-88.13240051269531,13.60731124877930,9.81470394134521,0.22240033745766,0.43825778365135,3.79210186004639,-0.24782210588455,0.81176906824112
123,1852781583,37.91992187500000,-88.12686157226562,13.90657329559326,9.82554721832275,0.23726284503937,0.40292122960091,3.85022974014282,-0.44510397315025,0.93085533380508
124,1852798250,37.65308380126953,-88.11820220947266,14.22863578796387,9.82446765899658,0.24974861741066,0.39994078874588,3.89439892768860,-0.27128335833549,0.88545674085617
125,1852814917,37.33576202392578,-88.10555267333984,14.59237289428711,9.80052852630615,0.23997828364372,0.44471314549446,3.54199337959290,-0.02200771123171,0.81383073329926
126,1852831584,37.06709671020508,-88.09525299072266,14.90706920623779,9.77435016632080,0.22689114511013,0.45018917322159,3.25216007232666,-0.19530324637890,0.82096391916275
127,1852848251,36.88652420043945,-88.08889770507812,15.13249778747559,9.78637123107910,0.22499832510948,0.41204360127449,3.23868727684021,-0.48776185512543,0.83038932085037
128,1852864918,36.65095138549805,-88.07980346679688,15.41406726837158,9.78713989257812,0.22367000579834,0.42499744892120,3.33016324043274,-0.30172404646873,0.83608824014664
129,1852881585,36.36891937255859,-88.06507873535156,15.73546981811523,9.80605316162109,0.18871828913689,0.41073185205460,2.97130370140076,0.03654932230711,0.69382244348526
130,1852898252,36.10556793212891,-88.04836273193359,16.03402709960938,9.81719398498535,0.21461062133312,0.45324677228928,2.74390101432800,0.12443929910660,0.58546781539917
131,1852914919,35.79001235961914,-88.02989959716797,16.37932395935059,9.81493377685547,0.22710128128529,0.41543918848038,2.46664381027222,0.27447852492332,0.60985124111176
132,1852931586,35.50544357299805,-88.01712799072266,16.69903373718262,9.79130268096924,0.23783825337887,0.43593007326126,2.45565581321716,-0.07004432380199,0.79166287183762
133,1852948253,35.23562622070312,-88.00492858886719,16.99855232238770,9.78845596313477,0.24251121282578,0.45590737462044,2.28411507606506,-0.11135762184858,0.78561836481094
134,1852964920,34.93694686889648,-87.99328613281250,17.31988716125488,9.80535793304443,0.23923972249031,0.42110708355904,2.09246802330017,-0.08843425661325,0.84712731838226
135,1852981587,34.60908126831055,-87.98006439208984,17.66399383544922,9.79483318328857,0.22433024644852,0.43210843205452,1.59360945224762,0.00366261648014,0.84607714414597
136,1852998254,34.35035324096680,-87.96683502197266,17.93285560607910,9.80399322509766,0.21203044056892,0.43825969099998,1.39870965480804,-0.08607788383961,0.73541748523712
137,1853014921,34.22057342529297,-87.95455169677734,18.07434463500977,9.80658245086670,0.21902637183666,0.44034466147423,1.25507354736328,-0.26285675168037,0.52233260869980
138,1853031588,34.10331726074219,-87.94396209716797,18.20189285278320,9.81212902069092,0.23641793429852,0.45145207643509,1.13742148876190,-0.38671973347664,0.57398062944412
139,1853048255,34.01994323730469,-87.93303680419922,18.29390335083008,9.80402088165283,0.24512667953968,0.48798519372940,0.90686875581741,-0.39965415000916,0.48593690991402
140,1853064922,33.92234039306641,-87.92584991455078,18.40070915222168,9.79224681854248,0.22028270363808,0.48626664280891,0.97182261943817,-0.58106893301010,0.65113872289658
141,1853081589,33.93228530883789,-87.92594909667969,18.39568328857422,9.78890705108643,0.21760518848896,0.45314988493919,0.84206879138947,-1.06285655498505,0.69168376922607
142,1853098256,33.89772796630859,-87.92642211914062,18.43364524841309,9.78764057159424,0.22571355104446,0.41390711069107,0.83876466751099,-1.03547668457031,0.79047197103500
143,1853114923,33.74291229248047,-87.91813659667969,18.58907318115234,9.81672286987305,0.20202547311783,0.46962696313858,0.59662222862244,-0.46364748477936,0.70976632833481
144,1853131590,33.74269104003906,-87.90902709960938,18.58847045898438,9.82792949676514,0.17981800436974,0.54802799224854,0.78921693563461,-0.59571939706802,0.40830484032631
145,1853148257,33.81145095825195,-87.90818786621094,18.52590751647949,9.83258914947510,0.24781769514084,0.44994935393333,0.99479734897614,-1.08220696449280,0.55857455730438
146,1853164924,33.64090728759766,-87.90007019042969,18.69199562072754,9.85975074768066,0.24735198915005,0.39183795452118,0.24237300455570,-0.45027765631676,0.73102492094040
147,1853181591,33.43066406250000,-87.88253021240234,18.87858772277832,9.79411220550537,0.24138326942921,0.42868354916573,-0.26605829596519,0.07526291906834,0.47648584842682
148,1853198258,33.12196731567383,-87.86192321777344,19.16934585571289,9.78113842010498,0.22490432858467,0.43278226256371,-0.50703537464142,0.32297611236572,0.56958800554276
149,1853214925,32.67977142333984,-87.84786987304688,19.59004402160645,9.83360958099365,0.24641399085522,0.46728953719139,-0.89063686132431,0.17277047038078,1.01751577854156
150,1853231592,32.26517105102539,-87.83662414550781,19.97970962524414,9.78174209594727,0.21896651387215,0.48526787757874,-0.93454980850220,-0.01966415159404,1.08190608024597
151,1853248259,31.97202301025391,-87.82048797607422,20.24149894714355,9.78184604644775,0.21200452744961,0.49605584144592,-1.15932691097260,0.09549695253372,0.68729120492935
152,1853264926,31.79169273376465,-87.80554199218750,20.39461326599121,9.79096889495850,0.19526752829552,0.52239382266998,-0.95390015840530,-0.08924104273319,0.51847785711288
153,1853281593,31.59136962890625,-87.79096221923828,20.57585525512695,9.78610706329346,0.16982154548168,0.50625848770142,-0.84888803958893,-0.11589106172323,0.59671187400818
154,1853298260,31.42062950134277,-87.78018188476562,20.72358703613281,9.81588935852051,0.17460708320141,0.49190783500671,-0.68173962831497,-0.30075073242188,0.64624691009521
155,1853314927,31.30269622802734,-87.77551269531250,20.82547950744629,9.83802223205566,0.17921718955040,0.52048748731613,-0.33637797832489,-0.70709615945816,0.77081418037415
156,1853331594,31.28284454345703,-87.77103424072266,20.81894874572754,9.83963966369629,0.19639869034290,0.50063526630402,-0.20964632928371,-0.81702578067780,0.58599293231964
157,1853348261,31.19825553894043,-87.76252746582031,20.89152717590332,9.84503746032715,0.21228367090225,0.50161671638489,-0.19097469747066,-0.51514184474945,0.56937032938004
158,1853364928,31.07478904724121,-87.75527954101562,21.00785827636719,9.84066581726074,0.22742004692554,0.53656071424484,-0.17109923064709,-0.55906760692596,0.70238989591599
159,1853381595,30.97694396972656,-87.74797058105469,21.09069633483887,9.82074642181396,0.23405833542347,0.51124650239944,-0.34614923596382,-0.57900708913803,0.64211040735245
160,1853398262,30.92260360717773,-87.74346160888672,21.13192367553711,9.81439018249512,0.19978979229927,0.49425947666168,-0.27256396412849,-0.76253485679626,0.63647556304932
161,1853414929,30.82241439819336,-87.73358917236328,21.22085189819336,9.81869888305664,0.19532886147499,0.51078611612320,-0.15309350192547,-0.43557596206665,0.57372444868088
162,1853431596,30.71743774414062,-87.72377014160156,21.31339836120605,9.79210948944092,0.20027476549149,0.48095339536667,-0.22589759528637,-0.44304203987122,0.59043669700623
163,1853448263,30.62861061096191,-87.71364593505859,21.38753509521484,9.80946826934814,0.22473244369030,0.51728767156601,-0.34789094328880,-0.43875193595886,0.53924977779388
164,1853464930,30.42183113098145,-87.70220184326172,21.58189201354980,9.83059310913086,0.22738240659237,0.50174903869629,-0.20636792480946,-0.21905903518200,0.74669986963272
165,1853481597,30.15788078308105,-87.68920898437500,21.81532478332520,9.82516384124756,0.20936737954617,0.52993738651276,-0.49932599067688,-0.06809776276350,0.82061803340912
166,1853498264,30.02598953247070,-87.68354034423828,21.93017387390137,9.81333923339844,0.18794871866703,0.55564159154892,-0.43199017643929,-0.61074119806290,0.76657521724701
167,1853514931,30.05527114868164,-87.68463897705078,21.88515853881836,9.80806350708008,0.18007004261017,0.51675152778625,-0.01885734684765,-1.15157902240753,0.65361040830612
168,1853531598,30.18954658508301,-87.68861389160156,21.74293136596680,9.82106018066406,0.18235878646374,0.53195768594742,-0.19500868022442,-1.45172131061554,0.51887488365173
169,1853548265,30.38372802734375,-87.68776702880859,21.53668594360352,9.81244182586670,0.17363750934601,0.51463741064072,-0.20659844577312,-1.25718021392822,0.24180951714516
170,1853564932,30.58677673339844,-87.68708801269531,21.32794189453125,9.75230121612549,0.19083692133427,0.52427113056183,0.39332142472267,-1.27749097347260,0.26031464338303
171,1853581599,30.76399230957031,-87.68776702880859,21.14256095886230,9.74514389038086,0.20878331363201,0.54247105121613,0.36560851335526,-1.28614807128906,0.33625632524490
172,1853598266,31.02449226379395,-87.68895721435547,20.87664794921875,9.76876735687256,0.25021189451218,0.53477597236633,0.07172836363316,-1.45059454441071,0.18249049782753
173,1853614933,31.26043128967285,-87.69344329833984,20.63349342346191,9.79594230651855,0.25139269232750,0.50875854492188,0.44028228521347,-1.56913006305695,0.34715452790260
174,1853631600,31.38042068481445,-87.69625091552734,20.50016403198242,9.81188869476318,0.21465983986855,0.48502168059349,-0.22401508688927,-1.36289656162262,0.51581418514252
175,1853648267,31.51946640014648,-87.69854736328125,20.35372161865234,9.81412029266357,0.23655256628990,0.46395331621170,0.07583919912577,-1.34268808364868,0.46339777112007
176,1853664934,31.64205741882324,-87.69556427001953,20.22899627685547,9.80764675140381,0.20450752973557,0.46613550186157,0.25560194253922,-1.07216680049896,0.35113734006882
177,1853681601,31.88669395446777,-87.68903350830078,19.98695373535156,9.81693744659424,0.16344496607780,0.55393683910370,0.46812328696251,-1.01966071128845,-0.01934399083257
178,1853698268,32.25048828125000,-87.68302917480469,19.63399696350098,9.82654094696045,0.15393298864365,0.56006777286530,1.36945974826813,-1.19631147384644,-0.20333279669285
179,1853714935,32.42765426635742,-87.68032836914062,19.47757911682129,9.86127185821533,0.21457743644714,0.44636404514313,1.71117162704468,-1.09761297702789,0.27556702494621
180,1853731602,32.53010559082031,-87.67292022705078,19.38450431823730,9.78691101074219,0.22225798666477,0.51022416353226,1.16052412986755,-0.80980306863785,0.28272578120232
181,1853748269,32.69531250000000,-87.66695404052734,19.22155189514160,9.75139522552490,0.21572916209698,0.51543968915939,0.68679165840149,-0.95564168691635,0.16892854869366
182,1853764936,32.85808181762695,-87.66661071777344,19.06447601318359,9.77821540832520,0.24518853425980,0.54316151142120,0.77454078197479,-1.24118506908417,0.36131834983826
183,1853781603,33.01887130737305,-87.67510223388672,18.90121269226074,9.76717376708984,0.21587258577347,0.53696113824844,0.49438911676407,-1.67857301235199,0.63934421539307
184,1853798270,33.30091094970703,-87.68649291992188,18.62313842773438,9.72210502624512,0.18082381784916,0.58719933032990,0.84139001369476,-1.98860216140747,0.51362431049347
185,1853814937,33.75748825073242,-87.69395446777344,18.17501831054688,9.76862144470215,0.18162901699543,0.56472682952881,1.09768354892731,-2.01634049415588,0.04683282598853
186,1853831604,34.20522308349609,-87.70108795166016,17.73583793640137,9.82315826416016,0.20521618425846,0.56527298688889,1.02919507026672,-1.98826920986176,0.05756454169750
187,1853848271,34.54569625854492,-87.70731353759766,17.40249061584473,9.85161876678467,0.20636789500713,0.51571518182755,0.81152552366257,-1.83025145530701,0.25730514526367
188,1853864938,34.83908081054688,-87.71236419677734,17.11174774169922,9.84776401519775,0.22508980333805,0.52727472782135,0.76648557186127,-1.67402672767639,0.29084497690201
189,1853881605,35.09472656250000,-87.71689605712891,16.85865974426270,9.84361267089844,0.22216628491879,0.54995691776276,0.61311674118042,-1.62981927394867,0.36411014199257
190,1853898272,35.28529357910156,-87.72342681884766,16.66494369506836,9.81997203826904,0.23419272899628,0.50500553846359,0.50467264652252,-1.62633609771729,0.55173599720001
191,1853914939,35.44704818725586,-87.73272705078125,16.49891090393066,9.83503246307373,0.24118624627590,0.52103853225708,0.34937006235123,-1.72619986534119,0.70105797052383
192,1853931606,35.60544204711914,-87.73722076416016,16.34099578857422,9.82296943664551,0.23317202925682,0.51035368442535,0.29959174990654,-1.48906469345093,0.53694462776184
193,1853948273,35.74599456787109,-87.73661804199219,16.19471359252930,9.79623222351074,0.22170664370060,0.53915148973465,0.28275141119957,-1.20851624011993,0.39310377836227
194,1853964940,35.89942550659180,-87.74146270751953,16.03486633300781,9.79489994049072,0.25162702798843,0.53808450698853,0.09393458813429,-1.50731384754181,0.56171214580536
195,1853981607,36.07429885864258,-87.75075531005859,15.84939575195312,9.81856822967529,0.23173512518406,0.51172769069672,-0.07592244446278,-1.74831640720367,0.66961836814880
196,1853998274,36.25920104980469,-87.76016998291016,15.65049266815186,9.79465866088867,0.19620116055012,0.52231848239899,0.01019385363907,-1.77368569374084,0.67161619663239
197,1854014941,36.45413208007812,-87.76998138427734,15.44609355926514,9.78861713409424,0.18440547585487,0.51679891347885,0.04614127799869,-1.79972112178802,0.66444456577301
198,1854031608,36.66685867309570,-87.78477478027344,15.22364139556885,9.80271720886230,0.19376108050346,0.50544190406799,-0.02043253183365,-2.06272506713867,0.81057792901993
199,1854048275,36.89205932617188,-87.80464935302734,14.99276065826416,9.80328369140625,0.20838963985443,0.48248812556267,0.10330883413553,-2.33711433410645,0.99402892589569
200,1854064942,37.15067672729492,-87.82498168945312,14.73171234130859,9.79506683349609,0.20001466572285,0.51882398128510,0.32428237795830,-2.37457251548767,0.94977003335953
201,1854081609,37.47104263305664,-87.84323120117188,14.39521503448486,9.79741477966309,0.20880350470543,0.49730804562569,0.21190668642521,-2.36892509460449,0.78857666254044
202,1854098276,37.78989791870117,-87.86091613769531,14.07829380035400,9.84331703186035,0.20418213307858,0.48862868547440,0.27367171645164,-2.33178639411926,0.76973843574524
203,1854114943,38.07237243652344,-87.88114166259766,13.78955841064453,9.84398460388184,0.22949889302254,0.48847708106041,0.11956008523703,-2.38950467109680,0.92903667688370
204,1854131610,38.31703567504883,-87.90631866455078,13.53144264221191,9.81599998474121,0.24221304059029,0.48457896709442,-0.22347721457481,-2.57770705223083,1.18351173400879
205,1854148277,38.61389923095703,-87.93133544921875,13.21521663665771,9.80977821350098,0.23235337436199,0.48662570118904,-0.51373314857483,-2.66116595268250,1.11198818683624
206,1854164944,38.95125579833984,-87.95703887939453,12.86699008941650,9.81547832489014,0.22358921170235,0.49689969420433,-0.51030099391937,-2.73263788223267,1.07309520244598
207,1854181611,39.28264617919922,-87.98539733886719,12.51110363006592,9.82403755187988,0.22900395095348,0.50409817695618,-0.59274834394455,-2.82664966583252,1.19611310958862
208,1854198278,39.59704971313477,-88.01347351074219,12.17417812347412,9.80846405029297,0.22376915812492,0.45434805750847,-0.90622204542160,-2.81409931182861,1.23836112022400
209,1854214945,39.83266830444336,-88.03388214111328,11.92129993438721,9.83182811737061,0.18615481257439,0.42303374409676,-0.64203989505768,-2.31270503997803,1.06474554538727
210,1854231612,40.06795120239258,-88.04485321044922,11.67059421539307,9.88214588165283,0.15212106704712,0.47795706987381,-0.23493887484074,-1.87810862064362,0.73662126064301
211,1854248279,40.21853256225586,-88.05197906494141,11.52118778228760,9.92986583709717,0.17083556950092,0.49352449178696,0.65682482719421,-1.57397079467773,0.74941480159760
212,1854264946,40.15721130371094,-88.05922698974609,11.58641147613525,9.90532970428467,0.20942512154579,0.36783576011658,0.71453034877777,-1.28263926506042,1.06539881229401
213,1854281613,39.92734146118164,-88.06305694580078,11.81337451934814,9.85646820068359,0.17772826552391,0.35290485620499,0.75326955318451,-0.92580312490463,1.21854984760284
214,1854298280,39.83488082885742,-88.06002807617188,11.90756034851074,9.78000640869141,0.17681750655174,0.39957571029663,0.93333959579468,-0.77544373273849,0.73676216602325
215,1854314947,39.71760177612305,-88.05338287353516,12.03258514404297,9.77844905853271,0.21416966617107,0.40905851125717,1.15869283676147,-0.55897802114487,0.62949609756470
216,1854331614,39.57115936279297,-88.05409240722656,12.19265747070312,9.79506015777588,0.22688505053520,0.42301270365715,1.17028260231018,-0.87537157535553,0.96768617630005
217,1854348281,39.47571182250977,-88.05761718750000,12.30875110626221,9.73056507110596,0.20077706873417,0.42402374744415,1.31486630439758,-1.05860483646393,0.98736935853958
218,1854364948,39.51034164428711,-88.06083679199219,12.28894996643066,9.71535587310791,0.20366847515106,0.45344677567482,1.45537769794464,-1.21623814105988,0.78849971294403
219,1854381615,39.73037719726562,-88.06811523437500,12.08589458465576,9.77870559692383,0.19209034740925,0.44465649127960,1.25047612190247,-1.63118970394135,0.63399124145508
220,1854398282,39.78367996215820,-88.07481384277344,12.03864479064941,9.81289196014404,0.18951013684273,0.37183740735054,1.13608956336975,-1.42425155639648,0.90429466962814
221,1854414949,39.88831329345703,-88.08265686035156,11.95168209075928,9.81172561645508,0.17178016901016,0.40280145406723,1.60677433013916,-1.51301252841949,0.86230278015137
222,1854431616,40.11019134521484,-88.08961486816406,11.75541210174561,9.81086540222168,0.19683432579041,0.38851052522659,2.00281071662903,-1.60243916511536,0.65029364824295
223,1854448283,40.41060256958008,-88.09464263916016,11.47786331176758,9.82564353942871,0.20689444243908,0.36935910582542,1.91019523143768,-1.65020692348480,0.49023988842964
224,1854464950,40.72998428344727,-88.10286712646484,11.18000602722168,9.80978870391846,0.22402727603912,0.36986833810806,1.69235920906067,-1.77911579608917,0.54293805360794
225,1854481617,40.98346710205078,-88.10824584960938,10.94353580474854,9.79257774353027,0.19405202567577,0.35438993573189,1.46010327339172,-1.60115873813629,0.55952227115631
226,1854498284,41.23099136352539,-88.11238861083984,10.71170330047607,9.76383972167969,0.20452274382114,0.36206993460655,1.52801525592804,-1.53626894950867,0.52634102106094
227,1854514951,41.49749755859375,-88.11945343017578,10.46905326843262,9.79638099670410,0.21708966791630,0.36290618777275,1.31236910820007,-1.67713880538940,0.58551913499832
228,1854531618,41.80564498901367,-88.12895202636719,10.16958618164062,9.81749725341797,0.20069317519665,0.35631659626961,1.10128211975098,-1.85108757019043,0.63684701919556
229,1854548285,42.06414031982422,-88.13533782958984,9.92004299163818,9.81544399261475,0.18790575861931,0.34551459550858,1.23081827163696,-1.64480268955231,0.59600752592087
230,1854564952,42.32341766357422,-88.13722991943359,9.66683387756348,9.78726005554199,0.19329282641411,0.37344580888748,1.08821952342987,-1.44031095504761,0.40575635433197
231,1854581619,42.49182510375977,-88.13848876953125,9.50787734985352,9.80661392211914,0.18640941381454,0.34846070408821,1.05012083053589,-1.29924917221069,0.51324009895325
232,1854598286,42.59203720092773,-88.14585876464844,9.41180324554443,9.80589675903320,0.20235183835030,0.38324862718582,0.81105166673660,-1.50057744979858,0.86914134025574
233,1854614953,42.67334747314453,-88.15199279785156,9.33556461334229,9.79776382446289,0.20926432311535,0.34048679471016,0.78093123435974,-1.40441489219666,0.82863491773605
234,1854631620,42.76000976562500,-88.15274047851562,9.23846435546875,9.81817913055420,0.18827238678932,0.37421748042107,0.59557205438614,-1.18199408054352,0.61284786462784
235,1854648287,42.90670776367188,-88.15252685546875,9.09102725982666,9.81464481353760,0.20941214263439,0.38641020655632,0.59404820203781,-1.21083390712738,0.47351476550102
236,1854664954,43.09449005126953,-88.15538787841797,8.91158390045166,9.80053520202637,0.19816890358925,0.38164874911308,0.51596778631210,-1.41010069847107,0.54155486822128
237,1854681621,43.26405715942383,-88.16027069091797,8.73750209808350,9.79839992523193,0.17464764416218,0.37799593806267,0.38389593362808,-1.47730851173401,0.65660709142685
238,1854698288,43.49009704589844,-88.16559600830078,8.50690841674805,9.77564716339111,0.18715408444405,0.36652806401253,0.40064668655396,-1.55686163902283,0.58740168809891
239,1854714955,43.80459213256836,-88.17265319824219,8.19311809539795,9.75780868530273,0.17705908417702,0.39210984110832,0.64072722196579,-1.75611543655396,0.55838245153427
240,1854731622,44.11946487426758,-88.18135070800781,7.88342905044556,9.79061794281006,0.19178768992424,0.38843217492104,0.66350978612900,-1.83995866775513,0.64422339200974
241,1854748289,44.42441177368164,-88.18663024902344,7.56935167312622,9.80776977539062,0.22471749782562,0.34309396147728,0.33600023388863,-1.65673828125000,0.48893365263939
242,1854764956,44.76277923583984,-88.19095611572266,7.22344589233398,9.84541702270508,0.19583489000797,0.34558045864105,0.01385646779090,-1.67437255382538,0.40419399738312
243,1854781623,45.20868301391602,-88.19756317138672,6.77796363830566,9.87570762634277,0.15838679671288,0.43814849853516,0.24711129069328,-1.92044639587402,0.37781289219856
244,1854798290,45.75724029541016,-88.20419311523438,6.24374055862427,9.86042404174805,0.20059220492840,0.37762162089348,1.12674105167389,-2.03793215751648,0.27237826585770
245,1854814957,45.93602752685547,-88.20583343505859,6.07102775573730,9.85742187500000,0.22144986689091,0.29701170325279,0.85351771116257,-1.34011411666870,0.54186230897903
246,1854831624,46.15600585937500,-88.20321655273438,5.85290479660034,9.80247211456299,0.19949342310429,0.36364486813545,0.64298117160797,-1.21325433254242,0.29195916652679
247,1854848291,46.43951416015625,-88.19918823242188,5.56990528106689,9.78020954132080,0.18749664723873,0.34102991223335,0.51943832635880,-1.24099302291870,0.13898731768131
248,1854864958,46.65669631958008,-88.19463348388672,5.35109233856201,9.78237915039062,0.21769179403782,0.34400078654289,0.66924709081650,-1.14281952381134,0.22583998739719
249,1854881625,46.80334091186523,-88.19062805175781,5.20597648620605,9.77403259277344,0.21336884796619,0.36434143781662,0.80589079856873,-1.04705357551575,0.31889092922211
250,1854898292,47.11240005493164,-88.18900299072266,4.90453815460205,9.79028320312500,0.19859193265438,0.39530581235886,0.95700579881668,-1.39326047897339,0.24520318210125
251,1854914959,47.49341201782227,-88.18705749511719,4.52054595947266,9.82470893859863,0.19477882981300,0.37390249967575,0.87265032529831,-1.47194266319275,0.13212311267853
252,1854931626,47.86284255981445,-88.18705749511719,4.16184043884277,9.79085063934326,0.17565041780472,0.37202799320221,1.23838675022125,-1.52542185783386,0.23264014720917
253,1854948293,48.12496948242188,-88.18371582031250,3.91271114349365,9.80343723297119,0.18309558928013,0.32887339591980,1.42588448524475,-1.22894203662872,0.21358428895473
254,1854964960,48.54389572143555,-88.18221282958984,3.51111936569214,9.82740879058838,0.18739432096481,0.35315880179405,1.60895144939423,-1.55100893974304,0.13560643792152
255,1854981627,48.89212799072266,-88.18350219726562,3.18289637565613,9.83325958251953,0.22691290080547,0.38720688223839,1.90134608745575,-1.54131472110748,0.34122520685196
256,1854998294,49.25436019897461,-88.18350219726562,2.83952236175537,9.82663059234619,0.22759313881397,0.39890423417091,1.81592774391174,-1.51261568069458,0.26511707901955
257,1855014961,49.54367065429688,-88.18059539794922,2.56691431999207,9.82353496551514,0.23637284338474,0.36722722649574,1.66751480102539,-1.30238652229309,0.22331714630127
258,1855031628,49.89014434814453,-88.17404937744141,2.23563122749329,9.81810569763184,0.22255638241768,0.36186224222183,1.59431350231171,-1.26312208175659,0.00403399951756
259,1855048295,50.15358734130859,-88.16869354248047,1.98539233207703,9.82415580749512,0.24209474027157,0.35263434052467,1.63421821594238,-1.17776799201965,0.14353355765343
260,1855064962,50.25756072998047,-88.16485595703125,1.90160083770752,9.80783939361572,0.23517052829266,0.32958754897118,1.56555056571960,-1.00964617729187,0.40448853373528
261,1855081629,50.34302139282227,-88.15560150146484,1.83438515663147,9.81792259216309,0.21035279333591,0.32766836881638,1.65157079696655,-0.77066689729691,0.17708618938923
262,1855098296,50.34932327270508,-88.14395904541016,1.84678995609283,9.83299160003662,0.21003717184067,0.36037874221802,1.67959129810333,-0.55764609575272,0.16014340519905
263,1855114963,50.28421020507812,-88.13198089599609,1.93165624141693,9.83577251434326,0.23547346889973,0.36244243383408,1.49690854549408,-0.45155826210976,0.23618748784065
264,1855131630,50.05123519897461,-88.12413787841797,2.17323994636536,9.83408069610596,0.24392764270306,0.31661385297775,1.29815399646759,-0.36173453927040,0.63892155885696
265,1855148297,49.61220550537109,-88.11581420898438,2.62915658950806,9.80985736846924,0.24045708775520,0.30299302935600,1.56713879108429,-0.01993308588862,0.87805461883545
266,1855164964,49.06278228759766,-88.10246276855469,3.19793224334717,9.81181335449219,0.21718275547028,0.30901572108269,1.76244819164276,0.36781117320061,0.78212213516235
267,1855181631,48.48807907104492,-88.08184051513672,3.79924321174622,9.83053779602051,0.22766715288162,0.34748828411102,2.01050734519958,0.65665841102600,0.57198286056519
268,1855198298,47.86776733398438,-88.06265258789062,4.44650983810425,9.82595539093018,0.22341120243073,0.37558552622795,2.05129551887512,0.70625740289688,0.69177347421646
269,1855214965,47.31103134155273,-88.04816436767578,5.02753877639771,9.81073093414307,0.24653521180153,0.37297967076302,1.71290028095245,0.43104887008667,0.81545704603195
270,1855231632,46.84141921997070,-88.03776550292969,5.50461816787720,9.77997779846191,0.24044340848923,0.36513364315033,1.42644822597504,0.13620834052563,0.89130920171738
271,1855248299,46.35120391845703,-88.02484130859375,6.02502155303955,9.75388908386230,0.21596229076385,0.38784509897232,2.08660268783569,0.27111044526100,0.85122531652451
272,1855264966,45.87187194824219,-88.00904846191406,6.52608203887939,9.75880050659180,0.24678258597851,0.38744917511940,1.83686590194702,0.36229163408279,0.73713344335556
273,1855281633,45.48370742797852,-88.00061798095703,6.93260478973389,9.78833866119385,0.27943179011345,0.32967126369476,1.37214910984039,-0.06195071712136,0.89193660020828
274,1855298300,45.02997970581055,-87.99279785156250,7.39077425003052,9.83473014831543,0.25652316212654,0.33674216270447,0.89156520366669,-0.01386287249625,1.02875971794128
275,1855314967,44.50046539306641,-87.97890472412109,7.92326974868774,9.82634830474854,0.23051349818707,0.42745628952980,0.74399781227112,0.36573657393456,0.88199901580811
276,1855331634,44.13262939453125,-87.97011566162109,8.29998493194580,9.82174205780029,0.26142597198486,0.38881924748421,1.07593822479248,-0.09696326404810,0.89248716831207
277,1855348301,43.56892395019531,-87.96106719970703,8.85737037658691,9.89592266082764,0.32383474707603,0.27668008208275,0.45132136344910,0.19888260960579,1.16840004920959
278,1855364968,42.89439392089844,-87.94567108154297,9.51825523376465,9.80698871612549,0.24034136533737,0.34218710660934,-0.45401713252068,0.61914861202240,1.06520664691925
279,1855381635,42.15625762939453,-87.92057800292969,10.23729610443115,9.74429702758789,0.23701050877571,0.38387429714203,-0.25845137238503,1.13721668720245,0.82767444849014
280,1855398302,41.52283096313477,-87.90071868896484,10.85315799713135,9.77586555480957,0.27774062752724,0.38401818275452,-0.46433904767036,0.75773888826370,0.89508706331253
281,1855414969,40.82929992675781,-87.88891601562500,11.52585506439209,9.80607223510742,0.25634822249413,0.41981771588326,-0.93821227550507,0.47400140762329,1.32408678531647
282,1855431636,40.22751235961914,-87.87837219238281,12.10375785827637,9.75955295562744,0.21220830082893,0.41335067152977,-0.78137302398682,0.28856548666954,1.24951541423798
283,1855448303,39.80401229858398,-87.86833190917969,12.50463008880615,9.74756526947021,0.20367282629013,0.40378081798553,-0.65529453754425,-0.00457827048376,1.00295495986938
284,1855464970,39.56124877929688,-87.86091613769531,12.72935676574707,9.76800823211670,0.20216809213161,0.43809109926224,-0.43338608741760,-0.33685180544853,0.77231252193451
285,1855481637,39.36721801757812,-87.85652923583984,12.90385723114014,9.79631900787354,0.20217019319534,0.39580196142197,-0.20973597466946,-0.57697081565857,0.85181427001953
286,1855498304,39.16865921020508,-87.85306549072266,13.08559131622314,9.82439136505127,0.21785920858383,0.44383859634399,-0.15072432160378,-0.59747380018234,0.88345879316330
287,1855514971,39.00123596191406,-87.85078430175781,13.24552726745605,9.79481792449951,0.21777278184891,0.43030884861946,0.06162415444851,-0.69933557510376,0.88415044546127
288,1855531638,38.83648681640625,-87.84696197509766,13.40206527709961,9.81703567504883,0.24505339562893,0.43474584817886,0.32516604661942,-0.61453193426132,0.82498508691788
289,1855548305,38.60636520385742,-87.84169769287109,13.63106822967529,9.83414077758789,0.25988057255745,0.40509769320488,0.35706663131714,-0.45723149180412,0.88648110628128
290,1855564972,38.42868423461914,-87.83427429199219,13.79828834533691,9.84461212158203,0.24973012506962,0.41052713990211,0.06271269917488,-0.42963385581970,0.70612943172455
291,1855581639,38.23986434936523,-87.82687377929688,13.97728824615479,9.80347251892090,0.23702371120453,0.42635118961334,-0.04157581180334,-0.42634257674217,0.73189562559128
292,1855598306,37.99453353881836,-87.81877899169922,14.21178817749023,9.81735897064209,0.22756570577621,0.39898326992989,-0.11814497411251,-0.30738440155983,0.80203598737717
293,1855614973,37.71576309204102,-87.80697631835938,14.47593593597412,9.81615638732910,0.22247228026390,0.42984953522682,-0.13677820563316,-0.08943314105272,0.73755604028702
294,1855631640,37.43740081787109,-87.79354095458984,14.73896598815918,9.81727790832520,0.24008865654469,0.43600368499756,-0.38096973299980,-0.01574540697038,0.67358845472336
295,1855648307,37.18353271484375,-87.78079986572266,14.97202110290527,9.81354618072510,0.24307097494602,0.42357349395752,-0.63119292259216,-0.07371974736452,0.64398008584976
296,1855664974,36.89775085449219,-87.77077484130859,15.23330593109131,9.84662151336670,0.23190443217754,0.43022269010544,-0.61460876464844,-0.16458080708981,0.81991380453110
297,1855681641,36.55987167358398,-87.75911712646484,15.55402088165283,9.80770015716553,0.20668770372868,0.43362569808960,-0.55531525611877,-0.02127774804831,0.86960238218307
298,1855698308,36.24164962768555,-87.74640655517578,15.85775279998779,9.80112743377686,0.21422848105431,0.43359026312828,-0.42273119091988,0.02261601388454,0.79521024227142
299,1855714975,35.93859100341797,-87.73186492919922,16.14195442199707,9.79126930236816,0.20279598236084,0.46260029077530,-0.30297899246216,0.07726070284843,0.73425203561783
300,1855731642,35.69156265258789,-87.71715545654297,16.37283134460449,9.79117965698242,0.19908387959003,0.46626591682434,-0.41336977481842,0.02615056745708,0.60732829570770
301,1855748309,35.48357772827148,-87.69887542724609,16.56536102294922,9.83507823944092,0.19841884076595,0.46066954731941,-0.67520833015442,0.13510698080063,0.40725472569466
302,1855764976,35.37060928344727,-87.66821289062500,16.64805412292480,9.81318950653076,0.13313286006451,0.46153113245964,-1.18555426597595,0.60557389259338,-0.21887974441051
303,1855781643,35.30415725708008,-87.62364196777344,16.70908737182617,9.82460498809814,0.16486257314682,0.43175104260445,0.25994327664375,1.24458515644073,-0.73181247711182
304,1855798310,35.36077880859375,-87.57077789306641,16.65811729431152,9.81951522827148,0.29085654020309,0.48527732491493,1.40808379650116,1.53380382061005,-1.24742174148560
305,1855814977,35.47848510742188,-87.53860473632812,16.55338668823242,9.83206462860107,0.34494957327843,0.49021434783936,1.42200422286987,0.40218338370323,-0.64723932743073
306,1855831644,35.36948394775391,-87.52883911132812,16.66161155700684,9.87101840972900,0.31124910712242,0.43967497348785,0.53996688127518,-0.38935783505440,0.58299624919891
307,1855848311,35.03821563720703,-87.51943206787109,16.98277473449707,9.88588905334473,0.27557703852654,0.52798521518707,-0.04937487468123,-0.07106883078814,1.03369009494781
308,1855864978,34.71394348144531,-87.51132202148438,17.30095863342285,9.82693099975586,0.31244653463364,0.49054384231567,0.25549948215485,-0.15779343247414,1.09709429740906
309,1855881645,34.22406387329102,-87.50017547607422,17.77504539489746,9.82999801635742,0.41396695375443,0.42436340451241,-0.52803784608841,0.23422816395760,1.31553232669830
310,1855898312,33.55532073974609,-87.48503112792969,18.41007423400879,9.81196117401123,0.39149478077888,0.45877942442894,-1.77751505374908,0.65290617942810,1.54548323154449
311,1855914979,32.89101791381836,-87.46240234375000,19.01846313476562,9.76424503326416,0.36265605688095,0.51164579391479,-2.27646327018738,1.01360976696014,1.30906510353088
312,1855931646,32.23682403564453,-87.45132446289062,19.63131713867188,9.75345897674561,0.34557619690895,0.42627808451653,-1.81270658969879,0.41824254393578,1.70789325237274
313,1855948313,31.24645614624023,-87.42854309082031,20.60606575012207,9.81458663940430,0.31295204162598,0.43719860911369,-0.41914540529251,1.51917874813080,2.17853927612305
314,1855964980,30.27735519409180,-87.39947509765625,21.53286743164062,9.77194404602051,0.25034946203232,0.50702387094498,-1.68039155006409,1.77876341342926,1.95478689670563
315,1855981647,29.46846199035645,-87.37080383300781,22.30455207824707,9.79177284240723,0.19244316220284,0.49893808364868,-1.35769712924957,1.54443287849426,1.66718161106110
316,1855998314,28.68499565124512,-87.33083343505859,23.07329559326172,9.74717426300049,0.19501909613609,0.53329014778137,-0.40968152880669,2.11230492591858,1.37615764141083
317,1856014981,28.00964355468750,-87.29528045654297,23.72865867614746,9.77242565155029,0.20620328187943,0.55034792423248,-0.58072316646576,1.74256014823914,1.29171252250671
318,1856031648,27.21200752258301,-87.26863861083984,24.54976654052734,9.92972755432129,0.27920025587082,0.39349117875099,1.91677772998810,1.47398531436920,2.01236438751221
319,1856048315,26.23143577575684,-87.26927947998047,25.62711906433105,9.95179843902588,0.31406316161156,0.33693251013756,6.45146799087524,0.32483306527138,3.45921301841736
320,1856064982,25.00656700134277,-87.27186584472656,26.90321159362793,10.03172779083252,0.28446248173714,0.64207834005356,3.96808600425720,0.43354618549347,4.04966259002686
321,1856081649,23.75069046020508,-87.25177764892578,28.13750839233398,9.80835056304932,0.20118780434132,0.66941511631012,-0.78992778062820,1.53582739830017,3.40400528907776
322,1856098316,23.14000511169434,-87.27214813232422,28.69187736511230,9.81033325195312,0.14311940968037,0.54457557201385,-2.85520768165588,-1.50431716442108,2.62555789947510
323,1856114983,22.49819946289062,-87.25412750244141,29.30397415161133,9.79555130004883,0.10451969504356,0.45052856206894,-1.33949935436249,0.63744884729385,1.88422405719757
324,1856131650,21.79351806640625,-87.20019531250000,29.96972656250000,9.77435588836670,0.21212588250637,0.53980720043182,-1.95225739479065,2.73118448257446,1.23305928707123
325,1856148317,21.03226089477539,-87.13597869873047,30.68140411376953,9.76310729980469,0.24704967439175,0.50541090965271,-1.91777050495148,3.35838866233826,1.26698350906372
326,1856164984,20.15210723876953,-87.07691192626953,31.51842117309570,9.76467704772949,0.24583767354488,0.55044800043106,-1.82590997219086,3.20562124252319,1.81889855861664
327,1856181651,19.30261611938477,-87.02053833007812,32.33338546752930,9.76934909820557,0.20275658369064,0.55500918626785,-1.48743855953217,3.01806020736694,1.91420388221741
328,1856198318,18.56891250610352,-86.96591186523438,33.04568862915039,9.76678276062012,0.15271186828613,0.57673823833466,-0.90565866231918,2.80739521980286,1.73073959350586
329,1856214985,17.89795112609863,-86.91561126708984,33.69790649414062,9.77307987213135,0.12548790872097,0.59066683053970,-0.47431522607803,2.53228950500488,1.72058463096619
330,1856231652,17.28957939147949,-86.86325073242188,34.30216598510742,9.76336383819580,0.14270821213722,0.57658642530441,0.41929271817207,2.56137251853943,1.62380695343018
331,1856248319,16.82941246032715,-86.80818939208984,34.76505661010742,9.74450206756592,0.14913776516914,0.59430122375488,0.50991046428680,2.61334085464478,1.15925645828247
332,1856264986,16.51632308959961,-86.76039886474609,35.07738876342773,9.75082683563232,0.16517114639282,0.61230343580246,0.89055353403091,2.03850197792053,0.89728975296021
333,1856281653,16.25063514709473,-86.72512054443359,35.34884262084961,9.82833290100098,0.15949743986130,0.64178949594498,1.18813455104828,1.29604089260101,0.99286329746246
334,1856298320,16.04963684082031,-86.70182800292969,35.55239486694336,9.83666038513184,0.19093102216721,0.61713248491287,1.04524147510529,0.52750635147095,0.99451559782028
335,1856314987,15.98038196563721,-86.69192504882812,35.63636779785156,9.79194545745850,0.19569119811058,0.62195950746536,1.40361428260803,-0.36278465390205,0.79902648925781
336,1856331654,15.95857620239258,-86.70515441894531,35.66998672485352,9.77175045013428,0.26779597997665,0.61262047290802,1.24726176261902,-1.74621629714966,1.01551795005798
337,1856348321,15.86810779571533,-86.72601318359375,35.74977874755859,9.83646011352539,0.28142136335373,0.56400030851364,-0.00129984458908,-2.13972997665405,1.29862797260284
338,1856364988,15.71014595031738,-86.73139953613281,35.89734649658203,9.89558696746826,0.23821891844273,0.57349646091461,-0.31209713220596,-1.19741284847260,1.24595534801483
339,1856381655,15.57456302642822,-86.72805023193359,36.01194000244141,9.86440849304199,0.24672999978065,0.65088564157486,-0.67770558595657,-0.70381778478622,1.00985753536224
340,1856398322,15.49459838867188,-86.72583770751953,36.07736587524414,9.81831836700439,0.27931287884712,0.66594707965851,-0.60910195112228,-0.82721972465515,0.84707593917847
341,1856414989,15.27444458007812,-86.72403717041016,36.27864837646484,9.89778804779053,0.26170092821121,0.51839363574982,-0.45140466094017,-0.73068553209305,1.33433198928833
342,1856431656,14.92911529541016,-86.69541931152344,36.60430908203125,9.85752582550049,0.25335213541985,0.58092141151428,-0.61065155267715,0.93438965082169,1.32472717761993
343,1856448323,14.62682437896729,-86.65402984619141,36.88104248046875,9.84695148468018,0.21992063522339,0.57965427637100,-0.99771070480347,1.65322291851044,0.97821307182312
344,1856464990,14.33342742919922,-86.60662078857422,37.14792251586914,9.92423439025879,0.20718808472157,0.69899958372116,-1.09031343460083,1.96980881690979,0.88555914163589
345,1856481657,13.96690464019775,-86.56247711181641,37.50108718872070,9.92070484161377,0.19449926912785,0.72495144605637,-0.76722204685211,1.86241483688354,1.22483777999878
346,1856498324,13.54629898071289,-86.53033447265625,37.90218353271484,9.82367610931396,0.23786428570747,0.78829902410507,-0.51283669471741,1.19881534576416,1.64638447761536
347,1856514991,13.23311138153076,-86.52346038818359,38.19529342651367,9.71108436584473,0.31668129563332,0.79726821184158,-0.43914896249771,-0.34009185433388,1.63798344135284
348,1856531658,13.12815093994141,-86.55463409423828,38.27527236938477,9.69879817962646,0.22547879815102,0.79001921415329,-0.93775135278702,-2.77611541748047,1.39887583255768
349,1856548325,12.97687435150146,-86.59538269042969,38.40721511840820,9.75084877014160,0.23430457711220,0.73582005500793,-0.64186066389084,-3.29665565490723,1.69990217685699
350,1856564992,12.83770561218262,-86.64666748046875,38.51788711547852,9.74125099182129,0.20002761483192,0.77021819353104,-1.38027501106262,-3.92780399322510,1.74110019207001
351,1856581659,12.83390045166016,-86.73074340820312,38.48035049438477,9.74296569824219,0.14163060486317,0.73461163043976,-1.79736495018005,-5.96083784103394,1.69143712520599
352,1856598326,12.70483303070068,-86.81844329833984,38.56151580810547,9.88599777221680,0.19996611773968,0.63156020641327,-2.47342562675476,-6.10542249679565,2.11229276657104
353,1856614993,12.34027576446533,-86.89253234863281,38.85596466064453,9.92401027679443,0.22096595168114,0.67584341764450,-3.72451639175415,-5.15638208389282,2.59487438201904
354,1856631660,11.82937049865723,-86.97676849365234,39.27569198608398,9.81353569030762,0.23705454170704,0.68427181243896,-4.91440534591675,-5.68227481842041,3.06382989883423
355,1856648327,11.11650562286377,-87.05862426757812,39.90569686889648,9.76634597778320,0.23537544906139,0.63770496845245,-4.80297708511353,-5.45592164993286,3.56838750839233
356,1856664994,10.35976600646973,-87.13720703125000,40.58362960815430,9.68007850646973,0.23543903231621,0.65196871757507,-4.45146846771240,-5.26261043548584,3.56850290298462
357,1856681661,9.64534950256348,-87.22308349609375,41.23413467407227,9.75106048583984,0.15276756882668,0.55453741550446,-3.34291243553162,-5.76889657974243,3.46909976005554
358,1856698328,8.69104099273682,-87.28942108154297,42.14036178588867,9.77994155883789,0.11106258630753,0.50903803110123,-2.45475316047668,-4.53806495666504,3.88025999069214
359,1856714995,7.42296409606934,-87.34259033203125,43.33997344970703,9.76951980590820,0.11248144507408,0.54054194688797,-3.54170513153076,-3.71404051780701,4.46844387054443
360,1856731662,5.88166093826294,-87.39796447753906,44.80448532104492,9.80779457092285,0.08899091929197,0.47087258100510,-4.11033344268799,-3.83923530578613,5.06237649917603
361,1856748329,4.05372095108032,-87.42671966552734,46.56694030761719,9.81522464752197,0.03414575010538,0.43031448125839,-3.42200517654419,-2.34219884872437,5.58102178573608
362,1856764996,1.98397088050842,-87.43173980712891,48.56952667236328,9.80038547515869,0.00805516354740,0.47176775336266,-3.53341984748840,-1.02479624748230,6.06677913665771
363,1856781663,-0.19778163731098,-87.41820526123047,50.66456985473633,9.75340175628662,-0.02163711935282,0.53735047578812,-4.67919158935547,-0.10521058738232,6.30388832092285
364,1856798330,-2.16128253936768,-87.38229370117188,52.52763366699219,9.67825508117676,-0.08893005549908,0.54817122220993,-5.56340551376343,1.06569337844849,5.78287410736084
365,1856814997,-3.76279473304749,-87.31685638427734,54.03501129150391,9.77123641967773,-0.06653673946857,0.55854302644730,-5.19772052764893,2.69108843803406,5.04971075057983
366,1856831664,-5.43099498748779,-87.23176574707031,55.59884643554688,9.92360591888428,0.02780436538160,0.62610709667206,-5.81005620956421,3.73981332778931,5.52750301361084
367,1856848331,-7.52498245239258,-87.14446258544922,57.57353591918945,10.09182929992676,0.05466872081161,0.62672096490860,-6.76708841323853,3.55231595039368,7.03254508972168
368,1856864998,-9.82398319244385,-87.03515625000000,59.74118041992188,10.07996749877930,0.00172617251519,0.67537897825241,-7.39749526977539,4.51413822174072,8.19324970245361
369,1856881665,-12.05450439453125,-86.90509796142578,61.82590866088867,9.98803710937500,-0.12007802724838,0.76549941301346,-8.35048103332520,5.41133928298950,8.64121818542480
370,1856898332,-14.08536529541016,-86.78423309326172,63.68560791015625,9.76793193817139,-0.21199488639832,0.86856025457382,-9.80834388732910,4.68720293045044,8.30051708221436
371,1856914999,-15.92916965484619,-86.68211364746094,65.34681701660156,9.65947818756104,-0.31072881817818,0.67791908979416,-10.48180675506592,3.45066070556641,7.75191974639893
372,1856931666,-17.20170783996582,-86.56869506835938,66.41801452636719,9.62327671051025,-0.36011910438538,0.69506084918976,-11.65380668640137,4.47190332412720,6.25106620788574
373,1856948333,-18.07250595092773,-86.49284362792969,67.08405303955078,9.53229522705078,-0.41423115134239,0.73088812828064,-11.78975677490234,2.59532356262207,4.36289548873901
374,1856965000,-18.91648483276367,-86.46592712402344,67.72376251220703,9.53647327423096,-0.42016726732254,0.48609906435013,-11.71430110931396,-0.22475796937943,3.43100214004517
375,1856981667,-19.60922431945801,-86.45050811767578,68.24242401123047,9.45830631256104,-0.50223094224930,0.22721527516842,-9.91371250152588,-0.76115208864212,2.80479645729065
376,1856998334,-19.90259933471680,-86.43108367919922,68.37631225585938,9.39253902435303,-0.49075570702553,0.05040983483195,-8.98960304260254,-0.07972592860460,1.54725050926208
377,1857015001,-20.15581703186035,-86.42571258544922,68.49783325195312,9.62941169738770,-0.50790697336197,-0.16146779060364,-7.30715751647949,-0.85255098342896,1.22518384456635
378,1857031668,-20.68416213989258,-86.40457916259766,68.92803955078125,9.95500659942627,-0.57088774442673,-0.22224317491055,-5.31898307800293,-0.37116006016731,2.64097690582275
379,1857048335,-21.48188591003418,-86.37210083007812,69.66410827636719,10.06596851348877,-0.64121574163437,-0.15434636175632,-3.19671487808228,-0.18938671052456,3.97297811508179
380,1857065002,-22.52840042114258,-86.34441375732422,70.68762969970703,10.02875900268555,-0.73207449913025,-0.05605597048998,-0.89902502298355,-0.90649121999741,4.92212104797363
381,1857081669,-23.57142066955566,-86.31209564208984,71.73954010009766,10.02247714996338,-0.65337491035461,-0.01536400429904,0.99719202518463,-0.79863601922989,5.15263557434082
382,1857098336,-24.47588539123535,-86.26246643066406,72.66435241699219,9.90806865692139,-0.51209086179733,0.07528521865606,1.68683993816376,0.26366999745369,5.17075681686401
383,1857115003,-25.15543746948242,-86.20207977294922,73.37152862548828,9.75265598297119,-0.47747093439102,0.12758427858353,2.14526867866516,1.11212921142578,4.72352075576782
384,1857131670,-25.71182060241699,-86.12870025634766,73.96497344970703,9.63893032073975,-0.45675343275070,0.17315208911896,2.74178814888000,1.97635281085968,4.72923135757446
385,1857148337,-26.30584335327148,-86.04759979248047,74.58611297607422,9.61301898956299,-0.43609112501144,0.26107847690582,2.15511679649353,2.27412605285645,5.10354804992676
386,1857165004,-26.91641998291016,-85.97932434082031,75.21749877929688,9.64486885070801,-0.45229044556618,0.28687083721161,1.73725831508636,1.47726380825043,4.85994625091553
387,1857181671,-27.36667442321777,-85.92893218994141,75.67748260498047,9.70413875579834,-0.47410717606544,0.30891215801239,1.09991192817688,0.81439429521561,3.79463672637939
388,1857198338,-27.51766777038574,-85.88724517822266,75.83628082275391,9.81414699554443,-0.40226539969444,0.37860572338104,1.02810668945312,0.91434782743454,2.43689465522766
389,1857215005,-27.54017829895020,-85.87531280517578,75.88373565673828,9.75590610504150,-0.40929782390594,0.37561666965485,2.07672882080078,-0.44543683528900,1.19745767116547
390,1857231672,-27.46848487854004,-85.88234710693359,75.87373352050781,9.71126270294189,-0.40710431337357,0.36592352390289,4.28299427032471,-1.34869444370270,0.44664710760117
391,1857248339,-27.12877273559570,-85.88924407958984,75.63333892822266,9.73636054992676,-0.43775221705437,0.34370648860931,6.57201385498047,-0.89572095870972,-0.43219509720802
392,1857265006,-26.72411918640137,-85.89535522460938,75.34983062744141,9.71439266204834,-0.49596086144447,0.29930579662323,7.89384794235229,-0.77566158771515,-0.57337236404419
393,1857281673,-26.33799171447754,-85.87541198730469,75.09457397460938,9.71995925903320,-0.47558692097664,0.19496016204357,8.46741867065430,0.56493943929672,0.23092412948608
394,1857298340,-25.92517089843750,-85.83599853515625,74.80831909179688,9.66746044158936,-0.54393273591995,0.11227668821812,8.22540378570557,1.68881189823151,0.61493539810181
395,1857315007,-25.34634399414062,-85.79793548583984,74.37155914306641,9.65096855163574,-0.70338720083237,0.03035238943994,9.17356204986572,1.89982247352600,-0.04970786347985
396,1857331674,-24.66689300537109,-85.74992370605469,73.85930633544922,9.80248832702637,-0.69328850507736,-0.02821374498308,10.69106578826904,2.56169366836548,-0.16075177490711
397,1857348341,-23.89892005920410,-85.68861389160156,73.26439666748047,9.85133743286133,-0.70056086778641,0.09290231764317,11.06392288208008,3.47227668762207,-0.22643558681011
398,1857365008,-23.06368446350098,-85.62816619873047,72.60363006591797,9.82190513610840,-0.63211828470230,0.11897727847099,11.16328811645508,3.53764033317566,-0.62347102165222
399,1857381675,-21.92249298095703,-85.56213378906250,71.62393188476562,9.85478973388672,-0.63302588462830,0.07054591923952,10.43678379058838,4.39820241928101,-1.97148072719574
400,1857398342,-20.44585990905762,-85.47918701171875,70.32374572753906,9.81089115142822,-0.56297081708908,0.24995703995228,11.40498447418213,5.86175155639648,-3.19400215148926
401,1857415009,-18.89530944824219,-85.41140747070312,68.94479370117188,9.73507118225098,-0.55606526136398,0.43164399266243,11.13561439514160,5.05473375320435,-4.13187503814697
402,1857431676,-17.40991020202637,-85.35438537597656,67.63279724121094,9.69151878356934,-0.57809782028198,0.59632599353790,11.23920440673828,4.24474382400513,-4.26736640930176
403,1857448343,-15.87382125854492,-85.29747009277344,66.28690338134766,9.66689491271973,-0.59572720527649,0.60981959104538,12.26155090332031,4.17433452606201,-4.64001846313477
404,1857465010,-14.06626224517822,-85.22398376464844,64.67364501953125,9.65427112579346,-0.58478063344955,0.68040639162064,12.55342006683350,5.32731723785400,-5.90536403656006
405,1857481677,-12.07229614257812,-85.12637329101562,62.87506866455078,9.76735115051270,-0.64801985025406,0.82673770189285,12.68834972381592,6.78574514389038,-6.82662963867188
406,1857498344,-10.19802951812744,-85.00926971435547,61.19899368286133,9.86119461059570,-0.75986385345459,0.92061167955399,12.84545898437500,7.58104562759399,-6.43972396850586
407,1857515011,-8.54712104797363,-84.86271667480469,59.72630310058594,10.08046340942383,-0.67052489519119,0.79012060165405,11.61302471160889,8.96513080596924,-5.57913494110107
408,1857531678,-7.08841800689697,-84.64767456054688,58.40613174438477,10.35612964630127,-0.66346389055252,0.72739779949188,9.23227214813232,12.80023956298828,-4.73321247100830
409,1857548345,-5.66468238830566,-84.36013793945312,57.10673522949219,10.48986434936523,-0.73649638891220,0.99749481678009,8.40001678466797,16.99618911743164,-4.82288408279419
410,1857565012,-4.24098300933838,-84.06449127197266,55.80273437500000,10.52263641357422,-1.00418210029602,1.44700169563293,8.16940021514893,17.38350677490234,-5.64702653884888
411,1857581679,-2.94449138641357,-83.82654571533203,54.67615890502930,10.47538089752197,-0.81506329774857,1.64253389835358,11.14636421203613,13.71069812774658,-5.54311323165894
412,1857598346,-1.45562624931335,-83.61570739746094,53.36907577514648,10.21321105957031,-0.74966663122177,1.77805876731873,11.96662521362305,11.99688720703125,-7.40570974349976
413,1857615013,0.42750230431557,-83.36978149414062,51.70935821533203,10.38941955566406,-0.99633336067200,1.89603269100189,14.62887382507324,13.87925148010254,-10.47309589385986
414,1857631680,2.95724034309387,-82.90930938720703,49.57356643676758,10.77424812316895,-1.35845971107483,2.25588941574097,25.14092254638672,26.18893432617188,-15.43619823455811
415,1857648347,5.71764278411865,-82.02732849121094,47.57730102539062,10.35221195220947,-1.95385515689850,3.56778979301453,47.46726608276367,50.60764312744141,-18.97901725769043
416,1857665014,7.77897930145264,-80.71588134765625,46.89723205566406,8.31784534454346,-2.15169787406921,3.76388502120972,83.93466186523438,76.46681976318359,-14.65610218048096
417,1857681681,8.07993984222412,-79.01882934570312,48.45544052124023,4.56256628036499,-1.73144233226776,4.16383314132690,110.68755340576172,102.13680267333984,2.90701746940613
418,1857698348,6.51384878158569,-77.49707031250000,51.73426437377930,-0.11922030150890,-0.68623554706573,2.43670368194580,99.25331115722656,94.63684844970703,28.77297210693359
419,1857715015,3.26650524139404,-76.08956909179688,55.99876403808594,-4.01886510848999,0.02545053884387,-1.01397991180420,54.87735748291016,88.07848358154297,51.69622421264648
420,1857731682,-0.23883400857449,-74.67824554443359,60.20272827148438,-4.78993320465088,0.27249783277512,-2.48964500427246,34.37228775024414,85.28716278076172,62.04057693481445
421,1857748349,-2.55077838897705,-73.17308807373047,63.25305938720703,-3.40339994430542,-0.40999370813370,-2.44960999488831,37.74586105346680,88.02358245849609,53.51652908325195
422,1857765016,-3.26995897293091,-71.52616882324219,64.26281738281250,-0.70995318889618,0.26093402504921,-1.79603266716003,15.17473697662354,96.76315307617188,24.03142929077148
423,1857781683,-3.26911854743958,-70.08557128906250,64.16900634765625,-0.08115360885859,-0.40377607941628,-0.01351338624954,-4.68207788467407,85.41062927246094,3.75179386138916
424,1857798350,-2.63189959526062,-69.17127990722656,63.76556015014648,1.37417185306549,1.20121788978577,-1.89484977722168,16.11888122558594,54.22459793090820,-4.92379570007324
425,1857815017,-1.47632741928101,-68.23222351074219,62.69606781005859,2.83993124961853,1.43186998367310,-1.27826809883118,10.12415313720703,56.15099334716797,-20.60165596008301
426,1857831684,1.10106229782104,-67.60317230224609,60.37198638916016,5.28136825561523,1.07053923606873,-1.16797840595245,25.99947929382324,36.92094039916992,-51.62168884277344
427,1857848351,4.57829189300537,-66.83391571044922,57.31519317626953,4.22007179260254,-0.57226943969727,-0.23220406472683,40.10034179687500,41.58341598510742,-72.53126525878906
428,1857865018,7.60817575454712,-66.24908447265625,54.64651870727539,1.56837964057922,0.83204036951065,0.32030054926872,35.48014831542969,27.13599395751953,-66.42276763916016
429,1857881685,9.56382179260254,-65.85137176513672,52.76242446899414,2.26759934425354,3.71051502227783,0.00781790539622,14.60368537902832,15.76100826263428,-48.25802612304688
430,1857898352,10.28738212585449,-65.29740142822266,51.53805923461914,1.76743161678314,4.09184598922729,0.79246604442596,-22.88992881774902,26.52368545532227,-34.96978378295898
431,1857915019,10.68141460418701,-64.84811401367188,50.39345550537109,0.17328622937202,3.09649705886841,0.01350519992411,-38.05267333984375,20.26198959350586,-32.68078994750977
432,1857931686,10.63498210906982,-64.25211334228516,49.47247314453125,-1.31925964355469,1.85794532299042,-0.43836781382561,-52.09823226928711,29.77106666564941,-29.26129913330078
433,1857948353,10.36083984375000,-63.73732376098633,48.90795135498047,-1.91164374351501,0.07546427845955,0.50606477260590,-46.30681228637695,26.68419265747070,-19.53978729248047
434,1857965020,8.38839912414551,-63.10645294189453,49.39771652221680,4.69259405136108,1.10520648956299,10.25003433227539,-91.47550964355469,38.51186370849609,7.49466514587402
435,1857981687,5.94264411926270,-62.33955383300781,50.98414993286133,19.29817390441895,7.58642959594727,12.50271987915039,-61.55589294433594,50.10000991821289,38.22717666625977
436,1857998354,1.95034456253052,-60.65141677856445,52.74523925781250,31.00922966003418,8.73252582550049,20.86910820007324,-146.06738281250000,103.52444458007812,44.03301239013672
437,1858015021,1.26746034622192,-60.12644195556641,52.15263366699219,7.60794258117676,-5.78636741638184,9.60778713226318,-71.30635833740234,29.99480247497559,-17.74422454833984
438,1858031688,3.82474470138550,-60.12680435180664,51.08699417114258,38.50153350830078,-9.61000633239746,14.67848491668701,98.56825256347656,-2.43759489059448,-31.11935615539551
439,1858048355,2.97187185287476,-60.46372985839844,52.85939407348633,26.16812324523926,-3.01850938796997,16.53332710266113,41.78151321411133,-18.05026054382324,54.48106002807617
440,1858065022,0.95617848634720,-61.29143524169922,54.08898544311523,30.81118392944336,4.23853826522827,10.38264846801758,-55.90510559082031,-49.39652633666992,38.26039123535156
441,1858081689,0.90433734655380,-62.45230102539062,53.17486190795898,32.56621551513672,2.89861965179443,9.08237457275391,-50.90111160278320,-71.05269622802734,-24.04220199584961
442,1858098356,1.41363441944122,-63.66112136840820,52.09870529174805,34.28552627563477,-0.99355137348175,9.90231323242188,-26.42684936523438,-74.08662414550781,-27.10073280334473
443,1858115023,1.96109521389008,-64.78182220458984,51.26290893554688,34.69032669067383,-2.74018764495850,10.03843116760254,-11.73176288604736,-68.82648468017578,-19.13688850402832
444,1858131690,2.04227089881897,-66.14239501953125,51.04475784301758,33.57576751708984,0.21534900367260,9.59647274017334,-6.45953226089478,-82.74321746826172,-1.90547084808350
445,1858148357,1.97004556655884,-67.81587219238281,50.97888946533203,32.22175598144531,1.70093023777008,7.46213388442993,-7.39262628555298,-101.36298370361328,2.64657974243164
446,1858165024,2.00663661956787,-69.70519256591797,50.55431747436523,31.23694992065430,1.46640086174011,4.62972307205200,-20.97165298461914,-114.56623077392578,-4.61229372024536
447,1858181691,2.50595569610596,-72.06616973876953,49.74493026733398,31.62933158874512,-2.13590121269226,2.54471206665039,-15.36012077331543,-143.12117004394531,-9.63476371765137
448,1858198358,3.29859185218811,-75.26525878906250,49.01993179321289,30.45841789245605,-1.03771090507507,1.15787911415100,6.36107349395752,-193.26605224609375,-1.82639408111572
449,1858215025,6.10277175903320,-78.46038055419922,46.31668090820312,25.69334411621094,-0.64541548490524,-2.74681735038757,10.79240322113037,-194.98020935058594,-20.35741424560547
450,1858231692,11.21972179412842,-80.55760192871094,40.93989562988281,19.63146400451660,-1.16382753849030,-1.67109870910645,-9.70527458190918,-134.04342651367188,-38.43679428100586
451,1858248359,16.46590614318848,-82.34506225585938,35.41136932373047,8.80913543701172,2.62868952751160,4.83759260177612,-12.75116062164307,-116.73935699462891,-21.53715515136719
452,1858265026,25.10093879699707,-84.65712738037109,26.58117485046387,6.68966197967529,-0.35177829861641,11.69198608398438,-7.93415880203247,-151.56092834472656,-6.19829654693604
453,1858281693,24.57949066162109,-84.10153198242188,28.14996910095215,12.78277873992920,-6.61362981796265,14.16079139709473,62.98159027099609,33.21353912353516,-4.97879457473755
454,1858298360,21.53157997131348,-81.38677978515625,32.91352462768555,-0.76512855291367,-5.54002571105957,28.13642883300781,101.36473083496094,163.01515197753906,-29.90456390380859
455,1858315027,26.88519668579102,-80.35046386718750,28.99781036376953,-16.87800598144531,4.06582546234131,23.86312866210938,89.82516479492188,40.43955612182617,-58.81797790527344
456,1858331694,33.81542968750000,-81.81849670410156,20.97072410583496,-15.78296089172363,6.18260192871094,15.88453292846680,-59.48131942749023,-114.52808380126953,-19.26677894592285
457,1858348361,46.95350265502930,-84.13732910156250,7.84322166442871,-4.74260044097900,-1.88978612422943,-11.77961730957031,6.85794496536255,-168.59164428710938,17.11731910705566
458,1858365028,47.87553024291992,-84.76127624511719,7.10631179809570,-1.70826435089111,-3.11016535758972,-7.41362714767456,11.87256908416748,-29.51419448852539,25.36292076110840
459,1858381695,55.76953506469727,-85.47151947021484,-0.52310055494308,6.95100450515747,5.21995687484741,-4.97636032104492,18.07995986938477,-57.88914489746094,10.07683563232422
460,1858398362,56.18843078613281,-85.64936065673828,-1.13223993778229,11.13114070892334,6.20872211456299,-6.66201972961426,-10.72975254058838,-9.32084655761719,7.95262145996094
461,1858415029,42.11355209350586,-85.07761383056641,12.27720928192139,9.47751998901367,0.42870745062828,0.38022863864899,-41.92910766601562,70.33683013916016,17.27725601196289
462,1858431696,30.77436637878418,-84.29113006591797,23.69021034240723,3.12865805625916,-1.65680980682373,4.92072534561157,2.13335323333740,74.39739990234375,23.66974067687988
463,1858448363,25.80163383483887,-83.50457000732422,28.70996665954590,1.89372384548187,-1.92791152000427,6.20003414154053,1.75286328792572,55.72233200073242,6.47865200042725
464,1858465030,26.07659912109375,-82.85682678222656,28.34447669982910,-0.09000668674707,-3.31595492362976,5.84332895278931,-4.67916250228882,32.82096481323242,-18.66786575317383
465,1858481697,28.48538017272949,-82.39424133300781,25.85815620422363,-2.27836680412292,-2.25387454032898,3.99341964721680,-2.82528996467590,14.89399433135986,-29.05905723571777
466,1858498364,28.86192703247070,-81.74909973144531,25.38312721252441,-4.84339046478271,-0.32666325569153,1.72048401832581,-5.03428506851196,31.08017921447754,-21.35874938964844
467,1858515031,28.82101821899414,-81.28990936279297,25.15079879760742,-5.18328619003296,1.49990594387054,0.80588167905807,-15.64434528350830,22.13816642761230,-14.42686748504639
468,1858531698,28.81409263610840,-81.02442932128906,24.90180587768555,-3.55956935882568,1.29731130599976,-0.95578962564468,-14.58989429473877,11.83256053924561,-9.01843070983887
469,1858548365,27.84092521667480,-80.76317596435547,25.62594032287598,-1.46172332763672,1.73866331577301,-1.82626318931580,-14.90042495727539,16.04454040527344,-0.71508860588074
470,1858565032,25.65475845336914,-80.29122924804688,27.53288650512695,0.55169987678528,0.38329663872719,-1.40621018409729,-17.71817779541016,32.74582672119141,4.73989677429199
471,1858581699,23.27932548522949,-79.95670318603516,29.84413719177246,2.00136709213257,-0.60925757884979,-0.59048825502396,-5.31020259857178,27.10607528686523,14.00347042083740
472,1858598366,20.69281959533691,-79.56144714355469,32.45220565795898,2.44159984588623,-0.88205748796463,0.05977631732821,-0.60330349206924,31.39225578308105,17.58418655395508
473,1858615033,18.73541450500488,-79.03446960449219,34.59653091430664,2.80721354484558,-0.79933834075928,0.39401409029961,9.57271099090576,36.81146240234375,12.49274158477783
474,1858631700,17.90807723999023,-78.37676239013672,35.65853500366211,2.32620906829834,-0.74620747566223,0.26562398672104,13.43641662597656,40.37702941894531,0.11059632897377
475,1858648367,17.93307113647461,-77.68451690673828,35.92232894897461,0.81493687629700,-0.71960717439651,0.17540793120861,17.57740020751953,39.52981948852539,-8.98857593536377
476,1858665034,18.05278015136719,-77.02567291259766,36.04595947265625,-0.05296745523810,-0.32599422335625,0.61655437946320,15.01214122772217,37.09544754028320,-9.99725437164307
477,1858681701,17.98000526428223,-76.44661712646484,36.30240631103516,-0.75768953561783,-0.00623720418662,1.35621345043182,11.19797229766846,33.12472534179688,-6.71988582611084
478,1858698368,17.85420989990234,-76.06054687500000,36.59157943725586,-1.44376993179321,-0.24625299870968,1.18441200256348,9.89352703094482,22.29771804809570,-2.53296661376953
479,1858715035,17.65793228149414,-75.76000976562500,36.89472579956055,-1.74078369140625,-0.41070136427879,0.75321304798126,6.45359992980957,17.51354598999023,-0.61355924606323
480,1858731702,17.67720985412598,-75.58760070800781,37.04251098632812,-1.55795085430145,0.26848220825195,0.45415818691254,10.33308029174805,9.50648117065430,-0.37826782464981
481,1858748369,17.56035804748535,-75.45919036865234,37.22022247314453,-0.82330179214478,0.42868846654892,0.67650181055069,3.89777994155884,7.13614654541016,0.87856698036194
482,1858765036,17.21265792846680,-75.36425018310547,37.52674865722656,-0.15961579978466,-0.17709498107433,0.77366685867310,-2.47524356842041,5.80285215377808,3.38943123817444
483,1858781703,16.66960334777832,-75.37057495117188,38.11598205566406,-0.64028519392014,-0.99421244859695,1.03784906864166,2.21140098571777,1.22346794605255,9.32507514953613
484,1858798370,15.62041378021240,-75.38000488281250,39.45237350463867,0.36181902885437,0.56849330663681,4.38283967971802,15.21797561645508,4.06560230255127,20.27010536193848
485,1858815037,13.63967990875244,-75.38841247558594,41.27577590942383,12.44572734832764,-3.98969006538391,13.96793174743652,-12.38953781127930,5.46364307403564,27.50453186035156
486,1858831704,9.85272216796875,-75.51190185546875,45.81833648681641,54.32775115966797,13.49623107910156,27.12738990783691,37.19158935546875,5.64987468719482,69.18439483642578
487,1858848371,8.75868129730225,-73.33725738525391,47.89194107055664,96.42189788818359,-3.47314810752869,32.80666351318359,54.81255340576172,133.10244750976562,12.54887866973877
488,1858865038,5.54210615158081,-72.09751892089844,50.99422836303711,-14.38606262207031,8.19246006011963,-11.28505420684814,-14.65126323699951,79.61107635498047,46.27424621582031
489,1858881705,2.43629646301270,-73.08351898193359,54.07369232177734,28.21692466735840,2.65603590011597,-4.91289663314819,-9.45308780670166,-56.20349884033203,59.93164062500000
490,1858898372,2.92666196823120,-73.55969238281250,53.24534988403320,32.04825973510742,-1.18865084648132,-4.31767034530640,-17.60721778869629,-30.23907852172852,-12.22540187835693
491,1858915039,2.57918882369995,-73.90135955810547,52.86688232421875,30.70811080932617,0.01189648453146,2.20934271812439,-42.06540298461914,-21.80006980895996,-4.68737268447876
492,1858931706,2.20663285255432,-73.59456634521484,52.43780136108398,22.23991584777832,2.08796977996826,2.31263875961304,-46.48788833618164,17.07987403869629,-7.28599929809570
493,1858948373,2.75401735305786,-73.06775665283203,51.15036010742188,15.00007343292236,1.64153480529785,0.91564476490021,-40.57366561889648,29.61572456359863,-22.81987380981445
494,1858965040,4.18318986892700,-72.63119506835938,49.22792434692383,9.34296512603760,0.21233692765236,0.23741848766804,-23.88373565673828,23.08939743041992,-34.84644317626953
495,1858981707,5.84486293792725,-72.35058593750000,47.43838882446289,11.63527393341064,-2.36744070053101,4.84914445877075,-2.11637997627258,12.95119380950928,-32.96358108520508
496,1858998374,7.77821874618530,-71.94861602783203,46.07108306884766,12.23821640014648,-2.09488034248352,2.30921268463135,38.49523544311523,19.96874046325684,-27.14726066589355
497,1859015041,7.34502410888672,-71.71891021728516,46.57614517211914,6.17261838912964,-0.04475768655539,1.70634186267853,3.38551568984985,13.90851879119873,8.22889518737793
498,1859031708,6.33979797363281,-71.81357574462891,47.26902770996094,3.18849253654480,1.15891587734222,1.45482814311981,-20.24183273315430,-5.08280658721924,14.26597404479980
499,1859048375,6.66865968704224,-72.15955352783203,46.56319808959961,3.07214593887329,0.34597522020340,0.79162532091141,-19.96022415161133,-23.10480690002441,-9.98238849639893
500,1859065042,7.79487657546997,-72.65006256103516,45.07331848144531,4.22788906097412,0.57254314422607,0.63492935895920,-17.05478477478027,-33.58967971801758,-22.42192649841309
501,1859081709,8.82883453369141,-73.24618530273438,43.71665573120117,5.60226583480835,0.40038141608238,1.16075491905212,-15.20758342742920,-39.83987808227539,-17.76870727539062
502,1859098376,9.73230361938477,-73.69278717041016,42.51333999633789,5.16433906555176,0.19129878282547,2.16967892646790,-14.42537975311279,-30.75109672546387,-15.27284431457520
503,1859115043,10.18240356445312,-74.17630004882812,41.76489257812500,4.55158948898315,0.34850600361824,2.88929152488708,-15.56698989868164,-31.71926498413086,-6.54536151885986
504,1859131710,10.17751121520996,-74.72979736328125,41.48731231689453,5.97350502014160,0.35312438011169,2.52150583267212,-15.75668525695801,-34.47382354736328,2.15273261070251
505,1859148377,9.89116287231445,-75.30133056640625,41.56375122070312,9.26135826110840,0.21913346648216,2.96173548698425,-12.16652202606201,-34.55891418457031,7.81884050369263
506,1859165044,9.62010192871094,-75.87960815429688,41.72692108154297,12.78159332275391,-0.22102545201778,2.88300848007202,-6.19870567321777,-34.78068923950195,8.95590591430664
507,1859181711,10.44638919830322,-76.36611938476562,40.95334625244141,13.13728523254395,0.36946204304695,2.36223244667053,5.09863615036011,-31.68171310424805,-5.19922447204590
508,1859198378,11.98635387420654,-76.82907104492188,39.52744674682617,9.90733528137207,0.81729137897491,2.31291818618774,9.75274562835693,-32.09996032714844,-13.36891078948975
509,1859215045,13.21506690979004,-77.41516113281250,38.49484252929688,8.65323543548584,0.66775667667389,2.02522540092468,13.90618991851807,-38.32522583007812,-5.12695646286011
510,1859231712,13.73183345794678,-78.06520080566406,38.17965316772461,8.76984500885010,0.57143044471741,1.77192902565002,13.10114574432373,-39.86950683593750,5.86014604568481
511,1859248379,13.75177574157715,-78.69439697265625,38.32374954223633,9.56138706207275,0.70505589246750,1.80956935882568,10.24699497222900,-37.25404739379883,11.33541202545166
512,1859265046,13.49554920196533,-79.28787994384766,38.64933395385742,9.76704788208008,0.98403459787369,2.06122136116028,4.37569522857666,-34.73420715332031,12.68961715698242
513,1859281713,13.10155296325684,-79.85885620117188,39.00024414062500,9.39960861206055,0.72642636299133,2.13468408584595,-2.35306882858276,-33.46339035034180,12.26541519165039
514,1859298380,12.81591701507568,-80.39487457275391,39.18372344970703,9.22823429107666,0.40668156743050,1.99008226394653,-5.72061300277710,-31.93013763427734,9.73041915893555
515,1859315047,12.66013908386230,-80.88445281982422,39.18905639648438,9.57061004638672,-0.00118989543989,1.96717870235443,-8.45322608947754,-29.64215087890625,7.20615768432617
516,1859331714,12.69192218780518,-81.33879852294922,39.01166534423828,9.96442031860352,-0.32675802707672,1.92639005184174,-8.02793502807617,-27.95659637451172,5.05554008483887
517,1859348381,12.74760246276855,-81.76751708984375,38.83520507812500,10.41142082214355,-0.00228892685845,1.78302836418152,-6.55118942260742,-26.43265914916992,4.82355022430420
518,1859365048,12.80850505828857,-82.13543701171875,38.64781951904297,10.37433147430420,0.47962689399719,1.67786633968353,-6.90392446517944,-22.88170433044434,4.02436542510986
519,1859381715,13.09657955169678,-82.50569152832031,38.23087692260742,10.29933357238770,0.31474128365517,1.53320109844208,-6.93697690963745,-23.40912818908691,2.40003013610840
520,1859398382,13.50910854339600,-82.80238342285156,37.73061752319336,10.34145164489746,0.49476757645607,1.53647494316101,-4.44352054595947,-19.21402359008789,1.04086291790009
521,1859415049,13.91804313659668,-83.07893371582031,37.20324707031250,9.74057102203369,0.60518455505371,1.50481259822845,-6.29063415527344,-18.04607200622559,0.83502632379532
522,1859431716,14.27612209320068,-83.36091613769531,36.70973205566406,9.64750957489014,0.26044622063637,1.17981398105621,-7.33571052551270,-18.25640296936035,1.40729153156281
523,1859448383,14.62244319915771,-83.59442901611328,36.27052307128906,9.71181774139404,0.14915393292904,1.24802899360657,-4.81563329696655,-15.30631065368652,1.27383589744568
524,1859465050,14.93225574493408,-83.82356262207031,35.87597274780273,9.68142318725586,0.27409914135933,0.96720051765442,-4.37833452224731,-14.97391986846924,1.67900347709656
525,1859481717,15.20560836791992,-84.01942443847656,35.50960922241211,9.75704097747803,0.23428894579411,0.95264333486557,-4.87688493728638,-12.95001316070557,1.48484599590302
526,1859498384,15.61329174041748,-84.19772338867188,35.00517272949219,9.79930400848389,0.29318350553513,0.97579145431519,-5.07798290252686,-12.15108776092529,0.52836465835571
527,1859515051,16.19943237304688,-84.39164733886719,34.31349945068359,9.70463943481445,0.29810428619385,0.87772935628891,-5.53908967971802,-13.31212711334229,-0.10044668614864
528,1859531718,16.89983940124512,-84.62229156494141,33.51239395141602,9.65652656555176,0.28815895318985,0.75836867094040,-5.25866985321045,-15.58956241607666,0.21453216671944
529,1859548385,17.54654121398926,-84.84117889404297,32.75681304931641,9.73863220214844,0.21767155826092,0.70638692378998,-5.76695394515991,-14.78261756896973,0.59459930658340
530,1859565052,18.07567024230957,-85.02090454101562,32.11834716796875,9.89615249633789,0.25047704577446,0.80076295137405,-5.83199644088745,-12.29859256744385,0.75566476583481
531,1859581719,18.49919891357422,-85.19177246093750,31.57712936401367,10.01133155822754,0.18873094022274,0.80548018217087,-6.36371612548828,-11.60311794281006,1.26539623737335
532,1859598386,18.76776504516602,-85.36194610595703,31.20864486694336,9.94683265686035,0.07908401638269,0.71878176927567,-5.34847879409790,-11.26131534576416,2.21654963493347
533,1859615053,19.05350494384766,-85.53038024902344,30.83838272094727,9.86561298370361,0.10774064064026,0.71754926443100,-4.42375755310059,-11.13903999328613,2.28747153282166
534,1859631720,19.39534568786621,-85.71385192871094,30.41435050964355,9.95176792144775,0.15685844421387,0.71944683790207,-4.28259372711182,-12.03296279907227,2.46902751922607
535,1859648387,19.91183471679688,-85.90107727050781,29.82897949218750,10.00116157531738,0.10532851517200,0.68698793649673,-3.47621464729309,-12.45865821838379,2.04420185089111
536,1859665054,20.63805198669434,-86.07215118408203,29.04296112060547,9.78693199157715,0.04779121652246,0.71738171577454,-2.89953184127808,-11.77559185028076,1.14341557025909
537,1859681721,21.48372268676758,-86.24396514892578,28.14111137390137,9.67913532257080,-0.07969887554646,0.70283174514771,-2.68653655052185,-11.93590164184570,1.00773215293884
538,1859698388,22.56308937072754,-86.41078948974609,27.02596282958984,9.80510711669922,0.13559348881245,0.57087236642838,-1.43951737880707,-11.88740158081055,0.46476817131042
539,1859715055,23.41975021362305,-86.54430389404297,26.15446853637695,9.59519100189209,0.18353548645973,0.42728170752525,-0.21904627978802,-9.63420009613037,0.85613024234772
540,1859731722,24.28144645690918,-86.67787170410156,25.26419830322266,9.58605003356934,0.28297492861748,0.44548687338829,-1.06806910037994,-9.62163829803467,1.04138720035553
541,1859748389,25.38817787170410,-86.81924438476562,24.11459922790527,9.79802608489990,0.24758133292198,0.44536167383194,-1.88389790058136,-10.33855056762695,0.69752371311188
542,1859765056,26.36849594116211,-86.95637512207031,23.07304763793945,10.19147586822510,0.16157086193562,0.43172144889832,-3.02056455612183,-9.89498996734619,1.22985827922821
543,1859781723,26.92976188659668,-87.06795501708984,22.43109703063965,10.33312606811523,0.02875326201320,0.44165641069412,-4.22816419601440,-7.89708089828491,1.89720976352692
544,1859798390,27.52532386779785,-87.15229034423828,21.77259063720703,10.20961856842041,-0.08131373673677,0.48926246166229,-3.14034104347229,-6.39789295196533,1.22022747993469
545,1859815057,28.28193855285645,-87.19328308105469,20.99559402465820,10.04159641265869,-0.04555884748697,0.46690317988396,-0.60144388675690,-4.26078176498413,-0.19084663689137
546,1859831724,29.24309730529785,-87.20726013183594,20.05277252197266,10.05945491790771,-0.04681507870555,0.50010883808136,1.74104893207550,-3.05476927757263,-1.33792424201965
547,1859848391,29.85925483703613,-87.20179748535156,19.47642898559570,10.04061222076416,0.05185142904520,0.54373985528946,3.01935315132141,-1.53140246868134,-0.95461726188660
548,1859865058,30.15826988220215,-87.21554565429688,19.21640968322754,9.77753925323486,0.20956656336784,0.56388568878174,2.94023585319519,-2.08499550819397,0.42847487330437
549,1859881725,30.08716201782227,-87.23239898681641,19.32679557800293,9.71774482727051,0.28976777195930,0.60495251417160,2.92217826843262,-1.71023035049438,1.45759296417236
550,1859898392,29.97216415405273,-87.26641082763672,19.47393989562988,9.89344596862793,0.28175753355026,0.58714282512665,2.48959255218506,-2.56071257591248,2.06558704376221
551,1859915059,29.56644821166992,-87.28567504882812,19.92210769653320,9.84497928619385,0.30970761179924,0.52762937545776,3.10798573493958,-1.35257458686829,2.34457373619080
552,1859931726,29.04212951660156,-87.30064392089844,20.49085044860840,9.77631378173828,0.24847899377346,0.64786338806152,3.20505785942078,-0.99482923746109,2.51464200019836
553,1859948393,28.65243911743164,-87.29274749755859,20.92150497436523,9.90134048461914,0.18459047377110,0.73389059305191,2.99207520484924,-0.00624309480190,1.51474773883820
554,1859965060,28.64765930175781,-87.27588653564453,20.94762992858887,9.88566780090332,0.24292525649071,0.53763788938522,1.88272547721863,-0.05038657784462,0.24209122359753
555,1859981727,28.69923210144043,-87.24381256103516,20.91089057922363,9.92678546905518,0.15449200570583,0.52124220132828,1.47544503211975,0.64794999361038,-0.34499663114548
556,1859998394,28.77248954772949,-87.19390869140625,20.85655403137207,9.80788135528564,0.15210546553135,0.58203196525574,1.73437678813934,1.57460474967957,-0.91485369205475
557,1860015061,28.82073783874512,-87.15077972412109,20.82581138610840,9.74377250671387,0.17762953042984,0.70367795228958,1.62832748889923,1.22153365612030,-0.64803332090378
558,1860031728,28.91002273559570,-87.13665771484375,20.76372337341309,9.73657226562500,0.22407202422619,0.66565650701523,2.23317146301270,-0.32163789868355,0.09032318741083
559,1860048395,29.03899955749512,-87.14022064208984,20.66586303710938,9.78556728363037,0.25305870175362,0.49844256043434,2.46244382858276,-1.31552600860596,0.51703077554703
560,1860065062,29.14768600463867,-87.12928771972656,20.58969116210938,9.82666778564453,0.30829733610153,0.53028655052185,2.52954864501953,-0.53876948356628,0.15836332738400
561,1860081729,29.14455413818359,-87.10822296142578,20.60482597351074,9.81227874755859,0.29988259077072,0.59822565317154,1.31555795669556,0.15094844996929,0.08671179413795
562,1860098396,29.04916381835938,-87.08959960937500,20.68884086608887,9.78852176666260,0.27196690440178,0.48981502652168,-0.11653137952089,0.09408824145794,0.35769408941269
563,1860115063,28.95536804199219,-87.07932281494141,20.77329063415527,9.83143043518066,0.20867526531219,0.49514728784561,0.01037314347923,-0.33268973231316,0.60052812099457
564,1860131730,29.07577323913574,-87.06269073486328,20.64856338500977,9.86890602111816,0.14835868775845,0.57684206962585,0.33865112066269,-0.30031529068947,-0.14749710261822
565,1860148397,29.24987602233887,-87.03932189941406,20.47404861450195,9.91382217407227,0.14224727451801,0.59690517187119,0.58462262153625,-0.01516912039369,-0.48858141899109
566,1860165064,29.36232757568359,-87.01574707031250,20.36869239807129,9.88320064544678,0.15909661352634,0.52550292015076,1.01943659782410,0.08098735660315,-0.30482313036919
567,1860181731,29.51760482788086,-86.98981475830078,20.22890472412109,9.84919357299805,0.20130968093872,0.53856205940247,1.53192114830017,0.15779983997345,-0.47959139943123
568,1860198398,29.85136985778809,-86.97573089599609,19.91167831420898,9.75489330291748,0.18736121058464,0.53257107734680,1.59595274925232,-0.75093227624893,-0.61538988351822
569,1860215065,30.17480659484863,-86.96049499511719,19.59669113159180,9.74615001678467,0.16325034201145,0.48240336775780,1.11630380153656,-0.70325428247452,-0.64631724357605
570,1860231732,30.61739540100098,-86.95066070556641,19.16676902770996,9.77186298370361,0.18897494673729,0.47021445631981,1.37966644763947,-1.17735815048218,-0.80318224430084
571,1860248399,31.04482841491699,-86.93932342529297,18.75852012634277,9.75884819030762,0.25035804510117,0.47223690152168,1.77971112728119,-1.06144785881042,-0.80250352621078
572,1860265066,31.38995170593262,-86.93395233154297,18.42720603942871,9.77310848236084,0.25089091062546,0.48803338408470,1.43068683147430,-1.27404618263245,-0.39655500650406
573,1860281733,31.76573562622070,-86.94655609130859,18.05933761596680,9.75755023956299,0.21254666149616,0.51713335514069,1.09423863887787,-2.24830245971680,0.06488978117704
574,1860298400,32.13798141479492,-86.96772003173828,17.69030380249023,9.83716201782227,0.25259646773338,0.47111347317696,0.79203432798386,-2.69566607475281,0.35246914625168
575,1860315067,32.54462432861328,-86.98286437988281,17.28589439392090,9.83603000640869,0.27422150969505,0.42221656441689,0.76320719718933,-2.43672180175781,0.07580078393221
576,1860331734,33.00733566284180,-86.98169708251953,16.82054328918457,9.78830528259277,0.27018803358078,0.47737100720406,0.45881304144859,-1.73013138771057,-0.59655183553696
577,1860348401,33.54693984985352,-86.98027038574219,16.27884101867676,9.77537059783936,0.31493568420410,0.49532529711723,0.50052338838577,-1.85030615329742,-0.80615323781967
578,1860365068,33.93664550781250,-86.97930145263672,15.87771415710449,9.85828399658203,0.32691544294357,0.52539551258087,-0.06657380610704,-1.64289450645447,-0.41319045424461
579,1860381735,34.21765518188477,-86.98390197753906,15.58045387268066,9.84023857116699,0.28593510389328,0.52459007501602,-0.37611609697342,-1.75137710571289,0.05443979054689
580,1860398402,34.32708358764648,-86.98760223388672,15.44580841064453,9.73589801788330,0.27520477771759,0.46791702508926,-0.91454631090164,-1.40753972530365,0.44379127025604
581,1860415069,34.50056457519531,-86.99195861816406,15.23463821411133,9.87466239929199,0.22263121604919,0.49267944693565,-1.66565155982971,-1.58910799026489,0.27661716938019
582,1860431736,34.58090591430664,-86.96926879882812,15.13172721862793,9.97001647949219,0.16295757889748,0.59484136104584,-0.75911557674408,-0.04753076285124,-0.37165945768356
583,1860448403,34.71265792846680,-86.94226074218750,14.98942375183105,9.89999294281006,0.27164870500565,0.54949498176575,-0.03560805693269,0.08043667674065,-0.61825853586197
584,1860465070,34.76216125488281,-86.91288757324219,14.90992546081543,9.80425643920898,0.26435431838036,0.58975756168365,-1.19334053993225,0.32939213514328,-0.55436772108078
585,1860481737,34.87914657592773,-86.89688110351562,14.76588058471680,9.70482254028320,0.26595199108124,0.60548323392868,-1.04373681545258,-0.48226797580719,-0.24944849312305
586,1860498404,34.97527313232422,-86.88442230224609,14.65015316009521,9.82615184783936,0.27861919999123,0.60855251550674,-0.56649529933929,-0.57665067911148,-0.07549984008074
587,1860515071,35.05045318603516,-86.87512969970703,14.55903720855713,9.80106449127197,0.26101663708687,0.58199912309647,-0.36225959658623,-0.70290851593018,0.10717633366585
588,1860531738,35.10743713378906,-86.86293792724609,14.49672794342041,9.75519275665283,0.22504714131355,0.56255173683167,0.25950786471367,-0.51296478509903,0.08651970326900
589,1860548405,35.37757110595703,-86.86119842529297,14.22714805603027,9.74731159210205,0.24221539497375,0.66783320903778,0.63823008537292,-1.41631186008453,-0.10974401980639
590,1860565072,35.95952987670898,-86.86219787597656,13.65143108367920,9.79739665985107,0.19274243712425,0.61729151010513,1.01344335079193,-2.13720703125000,-0.82729661464691
591,1860581739,36.51774215698242,-86.85340881347656,13.10210132598877,9.83686447143555,0.25252011418343,0.61970430612564,1.16824650764465,-1.62884604930878,-1.09532070159912
592,1860598406,37.03999328613281,-86.84868621826172,12.58780193328857,9.79943370819092,0.33551052212715,0.69779366254807,1.10505998134613,-1.77396774291992,-0.85529136657715
593,1860615073,37.47650909423828,-86.84799957275391,12.16066455841064,9.72939205169678,0.35417339205742,0.69283270835876,1.17704439163208,-1.81685614585876,-0.46705394983292
594,1860631740,37.92586898803711,-86.85378265380859,11.72388839721680,9.82330131530762,0.33152428269386,0.68847346305847,1.37998664379120,-2.14389157295227,-0.25227868556976
595,1860648407,38.32658386230469,-86.86293792724609,11.34129238128662,9.84833526611328,0.32306587696075,0.64702314138412,1.70898187160492,-2.19515585899353,0.02072067558765
596,1860665074,38.60625076293945,-86.86499786376953,11.08485221862793,9.86708450317383,0.29442471265793,0.67368149757385,1.99702227115631,-1.60834324359894,0.08840224146843
597,1860681741,38.76010894775391,-86.86100769042969,10.95559597015381,9.81346702575684,0.30350619554520,0.66093003749847,2.07735657691956,-1.06901645660400,0.19078901410103
598,1860698408,38.90692901611328,-86.85652160644531,10.83285140991211,9.74474430084229,0.30077880620956,0.67799657583237,2.03133034706116,-1.03580951690674,0.18955959379673
599,1860715075,39.15124130249023,-86.85988616943359,10.60756778717041,9.78278160095215,0.27562168240547,0.63885676860809,1.75035905838013,-1.61126303672791,0.22170351445675
600,1860731742,39.41116714477539,-86.86275482177734,10.35978317260742,9.81320571899414,0.33598157763481,0.64701718091965,1.32182037830353,-1.64851665496826,0.15891399979591
601,1860748409,39.57522201538086,-86.86006927490234,10.19644927978516,9.83450698852539,0.36061906814575,0.67927008867264,0.64134204387665,-1.20692813396454,0.15367619693279
602,1860765076,39.63531875610352,-86.85427856445312,10.12165355682373,9.78552055358887,0.37808743119240,0.66981446743011,-0.28512698411942,-0.87585830688477,0.25602456927299
603,1860781743,39.76670074462891,-86.84719848632812,9.96347236633301,9.77868175506592,0.36701044440269,0.67437940835953,-1.01265573501587,-0.99908089637756,0.00023051426979
604,1860798410,39.96555328369141,-86.83423614501953,9.73199462890625,9.79911613464355,0.37955245375633,0.67165493965149,-1.34957790374756,-0.88474595546722,-0.41321611404419
605,1860815077,40.31010437011719,-86.81727600097656,9.34640407562256,9.78061485290527,0.38163080811501,0.70510530471802,-1.83769214153290,-1.03470826148987,-0.96469593048096
606,1860831744,40.79579162597656,-86.80451202392578,8.81760978698730,9.75769996643066,0.38329464197159,0.67393589019775,-1.96152937412262,-1.55889761447906,-1.16191375255585
607,1860848411,41.35716629028320,-86.80561065673828,8.20806598663330,9.79041957855225,0.36165210604668,0.64576911926270,-2.24054121971130,-2.37303566932678,-0.82317292690277
608,1860865078,41.89698028564453,-86.81439208984375,7.63071060180664,9.83617973327637,0.28476291894913,0.69787317514420,-1.60436034202576,-2.65670919418335,-0.42266714572906
609,1860881745,42.38918685913086,-86.83071899414062,7.10965251922607,9.77224636077881,0.37998071312904,0.68351328372955,-1.11273741722107,-2.88997721672058,0.05536185204983
610,1860898412,42.94957733154297,-86.84557342529297,6.50895261764526,9.77781295776367,0.35765534639359,0.58047235012054,-1.78478884696960,-2.99532175064087,-0.18044786155224
611,1860915079,43.42826461791992,-86.85527801513672,5.99674797058105,9.83729457855225,0.33388948440552,0.68279880285263,-1.39319622516632,-2.58471202850342,-0.14603719115257
612,1860931746,43.99117279052734,-86.86612701416016,5.41401195526123,9.73683071136475,0.33926749229431,0.67124378681183,-0.54261147975922,-2.77411818504333,-0.26872205734253
613,1860948413,44.65028762817383,-86.88977050781250,4.72473144531250,9.82797527313232,0.42199137806892,0.51797038316727,-1.15855836868286,-3.57238864898682,0.04945812001824
614,1860965080,45.07056045532227,-86.90832519531250,4.25832939147949,9.82473659515381,0.36720576882362,0.51121407747269,-2.15363764762878,-2.85907530784607,0.39607483148575
615,1860981747,45.32992935180664,-86.91796112060547,3.96171498298645,9.74977779388428,0.35832837224007,0.48839640617371,-1.62531137466431,-2.08060264587402,0.40915006399155
616,1860998414,45.39468383789062,-86.92955017089844,3.85471510887146,9.73707962036133,0.40794461965561,0.49220511317253,-1.93828606605530,-1.72065460681915,0.91870188713074
617,1861015081,45.55338668823242,-86.95303344726562,3.64726519584656,9.79732608795166,0.39989107847214,0.46773591637611,-2.32855916023254,-2.46285963058472,1.21907484531403
618,1861031748,45.60059738159180,-86.98202514648438,3.55044484138489,9.86438560485840,0.38700860738754,0.41700601577759,-2.38626480102539,-2.43095922470093,1.69944095611572
619,1861048415,45.45045089721680,-87.00036621093750,3.64625334739685,9.84053707122803,0.35821384191513,0.42533910274506,-2.68172001838684,-1.54661643505096,1.66300690174103
620,1861065082,45.14440536499023,-87.00866699218750,3.89925551414490,9.82424354553223,0.35457661747932,0.45198029279709,-2.63081479072571,-0.78938984870911,1.58905029296875
621,1861081749,44.64621353149414,-87.01574707031250,4.35599899291992,9.82890319824219,0.33329233527184,0.48681154847145,-1.95040082931519,-0.29824069142342,1.98739194869995
622,1861098416,44.01153945922852,-87.02244567871094,4.94460105895996,9.86693763732910,0.38607940077782,0.44703385233879,-2.21935939788818,0.00691542867571,2.25254702568054
623,1861115083,43.19562530517578,-87.02711486816406,5.71114492416382,9.92720794677734,0.34304288029671,0.50722426176071,-2.44039726257324,0.44886252284050,2.58371925354004
624,1861131750,42.31945037841797,-87.02816772460938,6.53622102737427,9.90263748168945,0.33296492695808,0.55683445930481,-2.55945777893066,0.68729114532471,2.60237836837769
625,1861148417,41.57083511352539,-87.03041076660156,7.23590517044067,9.93094062805176,0.29646122455597,0.51585865020752,-2.40474414825439,0.36381557583809,2.36731767654419
626,1861165084,40.86861419677734,-87.02836608886719,7.89727306365967,9.93881607055664,0.28068381547928,0.52902251482010,-1.93317604064941,0.43731126189232,2.14264321327209
627,1861181751,40.20354461669922,-87.02099609375000,8.52169895172119,9.87608242034912,0.30535954236984,0.54541927576065,-1.89935457706451,0.60722589492798,1.85247707366943
628,1861198418,39.74887466430664,-87.01823425292969,8.93288993835449,9.81384181976318,0.29782518744469,0.55629980564117,-2.06787347793579,-0.04940048977733,1.54787778854370
629,1861215085,39.39608383178711,-87.01810455322266,9.24642372131348,9.81189823150635,0.26816222071648,0.57275342941284,-1.79993903636932,-0.37218457460403,1.42226040363312
630,1861231752,39.21592712402344,-87.02191925048828,9.38899326324463,9.76687049865723,0.28551313281059,0.58197814226151,-1.68638491630554,-0.88966345787048,1.15806543827057
631,1861248419,39.21596908569336,-87.03060913085938,9.35307407379150,9.78541374206543,0.26794427633286,0.53395903110504,-1.55118834972382,-1.45758676528931,0.90456366539001
632,1861265086,39.29552841186523,-87.04302215576172,9.24336910247803,9.79144859313965,0.30176421999931,0.50891065597534,-1.23147785663605,-1.79659652709961,0.88736474514008
633,1861281753,39.51742935180664,-87.05982208251953,8.98575210571289,9.75517082214355,0.35306927561760,0.51264995336533,-1.53649950027466,-2.27871751785278,0.70004636049271
634,1861298420,39.83135604858398,-87.08329010009766,8.62824916839600,9.77396965026855,0.35313433408737,0.45235514640808,-2.00553178787231,-2.77853584289551,0.73080712556839
635,1861315087,40.11359405517578,-87.10517883300781,8.30275630950928,9.82744121551514,0.32731366157532,0.42898094654083,-1.98833298683167,-2.63433647155762,0.75709855556488
636,1861331754,40.37948989868164,-87.12642669677734,7.99101066589355,9.85289382934570,0.28015440702438,0.42037770152092,-2.14294433593750,-2.56985688209534,0.77429759502411
637,1861348421,40.67123031616211,-87.14275360107422,7.66147279739380,9.79746437072754,0.25606527924538,0.42340040206909,-1.67237460613251,-2.39736771583557,0.57409584522247
638,1861365088,40.94147872924805,-87.15779113769531,7.36260080337524,9.74082279205322,0.25210696458817,0.45486214756966,-1.10641109943390,-2.25014615058899,0.58071678876877
639,1861381755,41.24958038330078,-87.17825317382812,7.02559947967529,9.76224517822266,0.29832562804222,0.47468850016594,-1.12359714508057,-2.57075309753418,0.72414785623550
640,1861398422,41.60557556152344,-87.20502471923828,6.63719844818115,9.85538578033447,0.26381647586823,0.39893585443497,-1.34007561206818,-2.96019411087036,0.88737756013870
641,1861415089,41.74281311035156,-87.21371459960938,6.47269058227539,9.89719676971436,0.24973531067371,0.47746026515961,-1.04965329170227,-1.70249545574188,0.65977036952972
642,1861431756,41.85141754150391,-87.21561431884766,6.35403776168823,9.81331825256348,0.23341171443462,0.50721311569214,0.00044822221389,-1.30273222923279,0.48472034931183
643,1861448423,42.01033020019531,-87.22589874267578,6.20211648941040,9.84013271331787,0.33223485946655,0.35836350917816,1.02299678325653,-1.74128592014313,0.74958127737045
644,1861465090,41.92390823364258,-87.23006439208984,6.28052282333374,9.90686607360840,0.32278409600258,0.37181907892227,0.08754421025515,-1.03135287761688,1.00966536998749
645,1861481757,41.88910293579102,-87.23133850097656,6.30802822113037,9.83471393585205,0.25559625029564,0.38257476687431,0.13106019794941,-1.01269412040710,0.79398089647293
646,1861498424,41.77000427246094,-87.22187805175781,6.42553758621216,9.78766441345215,0.26475021243095,0.38956698775291,0.47999480366707,-0.33512297272682,0.53729045391083
647,1861515091,41.58452987670898,-87.21174621582031,6.60699844360352,9.78462123870850,0.27865806221962,0.42790392041206,0.33246561884880,-0.18851587176323,0.65857934951782
648,1861531758,41.52497863769531,-87.20726013183594,6.66589832305908,9.73176670074463,0.30454978346825,0.42611733078957,0.54207992553711,-0.67835873365402,0.62016028165817
649,1861548425,41.66418457031250,-87.20852661132812,6.52540493011475,9.73574161529541,0.32192349433899,0.43094840645790,0.51084530353546,-1.32230067253113,0.41551482677460
650,1861565092,41.80688476562500,-87.20571899414062,6.37724971771240,9.81122303009033,0.30101162195206,0.43375933170319,0.26433587074280,-1.15996718406677,0.24068255722523
651,1861581759,41.93062973022461,-87.20459747314453,6.25584697723389,9.79896545410156,0.29995197057724,0.40007182955742,0.74239683151245,-1.16899549961090,0.35322472453117
652,1861598426,41.86212921142578,-87.20263671875000,6.32714605331421,9.86452007293701,0.27973690629005,0.38655719161034,0.74766039848328,-0.76290631294250,0.74361354112625
653,1861615093,41.73951721191406,-87.19467163085938,6.45566415786743,9.85731124877930,0.28595176339149,0.44458439946175,0.93839812278748,-0.37667962908745,0.62301611900330
654,1861631760,41.69537734985352,-87.18798065185547,6.51029682159424,9.77749061584473,0.27456587553024,0.43391323089600,1.18524050712585,-0.60666882991791,0.54013347625732
655,1861648427,41.66798782348633,-87.18130493164062,6.55357027053833,9.80287551879883,0.29765430092812,0.38783666491508,1.54764735698700,-0.59173667430878,0.48333734273911
656,1861665094,41.61619567871094,-87.17478179931641,6.62124538421631,9.79657363891602,0.33553758263588,0.41830366849899,1.53276634216309,-0.56887716054916,0.56012409925461
657,1861681761,41.65331649780273,-87.17589569091797,6.59591007232666,9.79924774169922,0.30823552608490,0.43018236756325,1.29563117027283,-1.08663797378540,0.65500634908676
658,1861698428,41.67776107788086,-87.17416381835938,6.58826017379761,9.80025005340576,0.28797632455826,0.42752757668495,1.58615577220917,-0.93184751272202,0.58571112155914
659,1861715095,41.70886611938477,-87.17091369628906,6.57349586486816,9.79408264160156,0.30406999588013,0.40384122729301,1.55257773399353,-0.88291442394257,0.51437979936600
660,1861731762,41.65509796142578,-87.16304016113281,6.64294672012329,9.82952117919922,0.29195016622543,0.37800166010857,1.53777360916138,-0.49219283461571,0.50112527608871
661,1861748429,41.58341598510742,-87.15462493896484,6.73839616775513,9.81366157531738,0.28650456666946,0.38632139563560,1.99519085884094,-0.42717501521111,0.54666465520859
662,1861765096,41.45272064208984,-87.14385223388672,6.89125490188599,9.83138751983643,0.30734926462173,0.37389296293259,1.89736294746399,-0.20909564197063,0.58446890115738
663,1861781763,41.29211807250977,-87.13105773925781,7.07443284988403,9.83382225036621,0.30480381846428,0.38423833250999,1.93721628189087,-0.04107635840774,0.56207060813904
664,1861798430,41.11676406860352,-87.11737823486328,7.27019023895264,9.81644344329834,0.32226091623306,0.43286597728729,1.78192663192749,0.00372664770111,0.57961535453796
665,1861815097,40.95664215087891,-87.10639953613281,7.44960975646973,9.76230335235596,0.30138230323792,0.43844529986382,1.74659395217896,-0.12379258126020,0.63209581375122
666,1861831764,40.87302398681641,-87.09458160400391,7.55144977569580,9.77234077453613,0.30532148480415,0.39313203096390,1.65862739086151,-0.26402211189270,0.44790208339691
667,1861848431,40.80317306518555,-87.08375549316406,7.64421653747559,9.77607917785645,0.31786954402924,0.41525673866272,1.95640039443970,-0.30828079581261,0.45284533500671
668,1861865098,40.73158264160156,-87.07390594482422,7.74074411392212,9.79422760009766,0.33486586809158,0.49166253209114,2.07830429077148,-0.34185913205147,0.49931958317757
669,1861881765,40.69098281860352,-87.07142639160156,7.79622745513916,9.74816036224365,0.33318060636520,0.44837203621864,1.46115338802338,-0.77421426773071,0.70744836330414
670,1861898432,40.70152664184570,-87.07511138916016,7.79653453826904,9.78451156616211,0.28626182675362,0.43820747733116,1.23828423023224,-1.15705990791321,0.81360000371933
671,1861915099,40.63754272460938,-87.06775665283203,7.87534332275391,9.86974811553955,0.28118288516998,0.50745898485184,1.46092283725739,-0.50329595804214,0.56920385360718
672,1861931766,40.64444732666016,-87.05929565429688,7.89233303070068,9.80066299438477,0.31296461820602,0.51116293668747,2.01408052444458,-0.57155376672745,0.37931126356125
673,1861948433,40.68490982055664,-87.06055450439453,7.87420225143433,9.84114837646484,0.33623531460762,0.32139602303505,1.93078780174255,-1.07932555675507,0.67210286855698
674,1861965100,40.45827484130859,-87.05529785156250,8.11307239532471,9.89570808410645,0.29899471998215,0.38710457086563,1.29920411109924,-0.27716141939163,1.02510976791382
675,1861981767,40.36366653442383,-87.05662536621094,8.22158336639404,9.78832435607910,0.30400821566582,0.33044946193695,1.39801788330078,-0.84268981218338,0.98219573497772
676,1861998434,40.05210113525391,-87.04348754882812,8.54364395141602,9.75894451141357,0.29727450013161,0.39518684148788,1.20240104198456,0.26578298211098,0.90704804658890
677,1862015101,39.81947326660156,-87.03469848632812,8.78522300720215,9.70347881317139,0.32242119312286,0.44018942117691,1.09737622737885,-0.10883475840092,0.90598523616791
678,1862031768,39.77000427246094,-87.03945159912109,8.84217071533203,9.73002052307129,0.31762132048607,0.44355696439743,1.02107596397400,-1.09720325469971,0.98821485042572
679,1862048435,39.76795959472656,-87.04779815673828,8.85152053833008,9.79378032684326,0.29539802670479,0.46703305840492,1.02581405639648,-1.35558390617371,1.01166296005249
680,1862065102,39.72106933593750,-87.04812622070312,8.90485000610352,9.78322887420654,0.29047137498856,0.50638312101364,0.95381700992584,-0.91064041852951,0.81786477565765
681,1862081769,39.70435714721680,-87.05031585693359,8.93380928039551,9.76257228851318,0.26229068636894,0.47680276632309,1.31288123130798,-1.03706467151642,0.82567656040192
682,1862098436,39.65077209472656,-87.05323791503906,9.00342559814453,9.81768226623535,0.28960373997688,0.51323240995407,1.53987383842468,-0.98683804273605,0.94568485021591
683,1862115103,39.66934204101562,-87.06155395507812,9.00460910797119,9.80531692504883,0.30607935786247,0.52126008272171,1.76515030860901,-1.37494742870331,0.99384963512421
684,1862131770,39.69446945190430,-87.06982421875000,9.00108909606934,9.80320644378662,0.32450801134109,0.51349419355392,1.88601696491241,-1.36905658245087,0.97109270095825
685,1862148437,39.66494750976562,-87.07638549804688,9.05059051513672,9.82769870758057,0.32690453529358,0.48861098289490,1.77159202098846,-1.19929552078247,1.04095137119293
686,1862165104,39.63811492919922,-87.08261871337891,9.09569072723389,9.85423660278320,0.33526471257210,0.44492843747139,1.67417418956757,-1.19296920299530,1.01755428314209
687,1862181771,39.59138488769531,-87.08933258056641,9.15714454650879,9.81822490692139,0.33047989010811,0.44884002208710,1.46610939502716,-1.17594957351685,1.06693542003632
688,1862198438,39.52463912963867,-87.09255981445312,9.23423385620117,9.79741573333740,0.31540304422379,0.44890138506889,1.19599771499634,-0.99246001243591,0.97648406028748
