sep=,
DeviceTag:,Xsens_DOT_4
FirmwareVersion:,3.0.0
AppVersion:,2023.6.0
StartTime: ,2025-04-09_10:53:16_000 CEST
© Movella Technologies B. V. 2005-2025

PacketCounter,SampleTimeFine,Euler_X,Euler_Y,Euler_Z,Acc_X,Acc_Y,Acc_Z,Gyr_X,Gyr_Y,Gyr_Z
0,1850748209,-33.27930831909180,-87.35655212402344,83.50323486328125,0.00000000000000,0.00000000000000,0.00000000000000,0.00000000000000,0.00000000000000,0.00000000000000
1,1850764876,-33.02136993408203,-87.35810852050781,83.25062561035156,9.75037860870361,-0.23061293363571,0.76697599887848,0.28439700603485,0.07319469749928,-1.69160366058350
2,1850781543,-32.68790435791016,-87.35751342773438,82.93260192871094,9.79570007324219,-0.18395221233368,0.74641221761703,0.95430350303650,0.25916206836700,-1.78478860855103
3,1850798210,-32.34064102172852,-87.35728454589844,82.59259033203125,9.78540134429932,-0.15347099304199,0.70568674802780,0.49565696716309,0.28076636791229,-1.84468412399292
4,1850814877,-32.02529144287109,-87.35936737060547,82.27362823486328,9.74132633209229,-0.16548909246922,0.75906401872635,-0.21227163076401,0.13541433215141,-1.87160313129425
5,1850831544,-31.74657630920410,-87.36322021484375,82.00636291503906,9.77132034301758,-0.24765843153000,0.79455024003983,0.44238251447678,-0.03672220185399,-1.81953251361847
6,1850848211,-31.45709609985352,-87.36537170410156,81.75022888183594,9.79989624023438,-0.17091165482998,0.71803557872772,1.87205779552460,0.02809713408351,-1.73813533782959
7,1850864878,-31.19552993774414,-87.36849212646484,81.48456573486328,9.76015663146973,-0.07564814388752,0.68986725807190,-0.13577933609486,-0.01118634734303,-1.77848827838898
8,1850881545,-30.99194526672363,-87.37244415283203,81.24773406982422,9.74996662139893,-0.16253583133221,0.75331884622574,-2.01704478263855,-0.08965084701777,-1.73931360244751
9,1850898212,-30.76703071594238,-87.37356567382812,81.01499176025391,9.77200031280518,-0.23692975938320,0.76373946666718,-0.44799813628197,0.04270917922258,-1.64349651336670
10,1850914879,-30.53353500366211,-87.37341308593750,80.78733825683594,9.76953792572021,-0.16086693108082,0.72514569759369,0.33737048506737,0.09156540036201,-1.60208070278168
11,1850931546,-30.32662391662598,-87.37400817871094,80.57019805908203,9.77188777923584,-0.12484488636255,0.72310429811478,-0.57178425788879,0.03713841363788,-1.59916090965271
12,1850948213,-30.16144371032715,-87.37803649902344,80.37709045410156,9.75204372406006,-0.15957267582417,0.79320973157883,-1.59667646884918,-0.18256092071533,-1.64764583110809
13,1850964880,-29.98566055297852,-87.38378906250000,80.19871520996094,9.76781082153320,-0.22637110948563,0.79952418804169,-0.29964935779572,-0.27422875165939,-1.66305172443390
14,1850981547,-29.82665061950684,-87.39090728759766,80.05600738525391,9.79531764984131,-0.19618268311024,0.73908525705338,1.00131571292877,-0.39326378703117,-1.60843265056610
15,1850998214,-29.65465736389160,-87.39751434326172,79.90325927734375,9.78461360931396,-0.14155787229538,0.72601813077927,1.14986932277679,-0.33906731009483,-1.60927784442902
16,1851014881,-29.47572898864746,-87.40595245361328,79.73583221435547,9.77678108215332,-0.15383309125900,0.75600719451904,0.65974467992783,-0.44510388374329,-1.71788859367371
17,1851031548,-29.31488800048828,-87.41699981689453,79.57345581054688,9.74983501434326,-0.19090779125690,0.75181728601456,0.16116788983345,-0.56837767362595,-1.75355398654938
18,1851048215,-29.20424652099609,-87.42998504638672,79.48617553710938,9.75610542297363,-0.20190690457821,0.75299495458603,1.20769000053406,-0.77324104309082,-1.65180790424347
19,1851064882,-29.09445190429688,-87.44449615478516,79.40129089355469,9.76217079162598,-0.12259820103645,0.73216599225998,1.46972727775574,-0.87142091989517,-1.68964433670044
20,1851081549,-29.01652526855469,-87.45701599121094,79.33531951904297,9.79164028167725,-0.15333622694016,0.69015461206436,0.67905026674271,-0.79349416494370,-1.58751332759857
21,1851098216,-28.92230224609375,-87.46564483642578,79.24298095703125,9.77186203002930,-0.12767794728279,0.74531167745590,0.14366161823273,-0.54225283861160,-1.52337276935577
22,1851114883,-28.83714866638184,-87.47199249267578,79.17533874511719,9.75246143341064,-0.18860311806202,0.71029263734818,0.98783063888550,-0.46093255281448,-1.40728342533112
23,1851131550,-28.74807167053223,-87.47850036621094,79.10229492187500,9.78149509429932,-0.17422562837601,0.74460566043854,0.94428890943527,-0.47263750433922,-1.42781174182892
24,1851148217,-28.64361572265625,-87.48533630371094,79.03243255615234,9.76838970184326,-0.14507120847702,0.71908169984818,2.27476000785828,-0.47514116764069,-1.40896737575531
25,1851164884,-28.55607604980469,-87.49040985107422,78.97060394287109,9.76767730712891,-0.12521737813950,0.69867438077927,1.07718050479889,-0.40044817328453,-1.37645852565765
26,1851181551,-28.48069000244141,-87.49634552001953,78.91139221191406,9.80141162872314,-0.16428312659264,0.71769630908966,0.97921198606491,-0.45711633563042,-1.37607443332672
27,1851198218,-28.38174247741699,-87.50173950195312,78.82646942138672,9.78291797637939,-0.15773242712021,0.72131991386414,0.89070731401443,-0.38518303632736,-1.41432702541351
28,1851214885,-28.29275894165039,-87.50417327880859,78.75775909423828,9.74939632415771,-0.18763013184071,0.70401245355606,1.58938312530518,-0.24933317303658,-1.27632546424866
29,1851231552,-28.19519042968750,-87.50527191162109,78.69724273681641,9.76740741729736,-0.18241567909718,0.70846790075302,2.14450001716614,-0.18060155212879,-1.23669004440308
30,1851248219,-28.15910720825195,-87.50864410400391,78.72068786621094,9.75722694396973,-0.24997577071190,0.72878646850586,3.09820771217346,-0.40387380123138,-1.12213063240051
31,1851264886,-28.06355285644531,-87.50895690917969,78.71487426757812,9.77585411071777,-0.17105770111084,0.70506638288498,5.35676193237305,-0.23261456191540,-1.10070586204529
32,1851281553,-27.92983245849609,-87.50959014892578,78.65518951416016,9.78957271575928,-0.15665107965469,0.67800247669220,4.38833999633789,-0.16447837650776,-1.22625291347504
33,1851298220,-27.78544616699219,-87.51273345947266,78.57328796386719,9.77205181121826,-0.10753944516182,0.71028494834900,3.77449274063110,-0.26717251539230,-1.34408414363861
34,1851314887,-27.66120529174805,-87.51699066162109,78.48959350585938,9.75571060180664,-0.10328855365515,0.69765925407410,2.16392731666565,-0.31965288519859,-1.39067363739014
35,1851331554,-27.55570793151855,-87.51856231689453,78.41521453857422,9.79096698760986,-0.12442848086357,0.71661531925201,1.58072602748871,-0.19837674498558,-1.30124688148499
36,1851348221,-27.41673660278320,-87.51864624023438,78.30027770996094,9.79492378234863,-0.11798806488514,0.67538529634476,1.37439656257629,-0.07386702299118,-1.34731757640839
37,1851364888,-27.27197074890137,-87.52069091796875,78.16185760498047,9.74917602539062,-0.13698013126850,0.67763108015060,0.40364968776703,-0.13313479721546,-1.44399261474609
38,1851381555,-27.16678619384766,-87.52306365966797,78.06522369384766,9.78215408325195,-0.19247324764729,0.71863532066345,0.48115375638008,-0.21613277494907,-1.36624538898468
39,1851398222,-27.05858230590820,-87.52465057373047,77.96701812744141,9.81723594665527,-0.13879278302193,0.68476420640945,0.55895876884460,-0.16062363982201,-1.34275221824646
40,1851414889,-26.93545532226562,-87.52773284912109,77.84402465820312,9.78038883209229,-0.12992873787880,0.70072638988495,0.12078949809074,-0.21350106596947,-1.43667399883270
41,1851431556,-26.83661842346191,-87.53192901611328,77.73625183105469,9.75900840759277,-0.16330605745316,0.70218831300735,-0.47409746050835,-0.27618813514709,-1.42697942256927
42,1851448223,-26.70756530761719,-87.53359222412109,77.61488342285156,9.77924919128418,-0.15593267977238,0.68953269720078,0.28962841629982,-0.14205443859100,-1.40957570075989
43,1851464890,-26.57250785827637,-87.53240966796875,77.46775817871094,9.80935668945312,-0.08662753552198,0.69107127189636,-1.01398754119873,0.04446364939213,-1.39711523056030
44,1851481557,-26.39636421203613,-87.52851867675781,77.26489257812500,9.76449584960938,-0.16260357201099,0.67691391706467,-1.65568828582764,0.24900668859482,-1.45033848285675
45,1851498224,-26.21898460388184,-87.52093505859375,77.06135559082031,9.74659347534180,-0.12949725985527,0.66926085948944,-1.66814875602722,0.47309219837189,-1.34568488597870
46,1851514891,-25.99407768249512,-87.51005554199219,76.81546020507812,9.75314712524414,-0.15006873011589,0.66998153924942,-1.43600809574127,0.66954165697098,-1.38400161266327
47,1851531558,-25.78322792053223,-87.50032806396484,76.57821655273438,9.76257133483887,-0.13143682479858,0.74099910259247,-1.45489108562469,0.58749771118164,-1.39153802394867
48,1851548225,-25.59014129638672,-87.49072265625000,76.36930084228516,9.77628326416016,-0.17217299342155,0.71326351165771,-1.16927087306976,0.57027316093445,-1.33671379089355
49,1851564892,-25.35214233398438,-87.47873687744141,76.12874603271484,9.76242923736572,-0.18924096226692,0.69421553611755,-0.17205332219601,0.72476255893707,-1.35479664802551
50,1851581559,-25.15916824340820,-87.47338867187500,75.95329284667969,9.75401878356934,-0.21643204987049,0.71454340219498,1.11232125759125,0.29531443119049,-1.36767339706421
51,1851598226,-25.03166198730469,-87.47299957275391,75.85726928710938,9.78533363342285,-0.18288201093674,0.78469550609589,1.75070476531982,-0.04432918131351,-1.30218172073364
52,1851614893,-24.94148826599121,-87.47679138183594,75.79412841796875,9.78136634826660,-0.16580007970333,0.75114309787750,1.38934814929962,-0.31423583626747,-1.33558058738708
53,1851631560,-24.76227760314941,-87.47834777832031,75.66176605224609,9.75799751281738,-0.20008939504623,0.67417848110199,2.87361049652100,-0.12604008615017,-1.44035577774048
54,1851648227,-24.52012062072754,-87.47904205322266,75.48678588867188,9.77295303344727,-0.13446331024170,0.65066224336624,4.04023694992065,-0.00516736228019,-1.51179611682892
55,1851664894,-24.33471870422363,-87.47834777832031,75.35487365722656,9.75926494598389,-0.13066338002682,0.67306482791901,3.31289410591125,-0.01377963367850,-1.38658201694489
56,1851681561,-24.12731552124023,-87.47509002685547,75.19295501708984,9.80560588836670,-0.11413542926311,0.68941408395767,2.75625300407410,0.17212374508381,-1.39531588554382
57,1851698228,-23.84949874877930,-87.46564483642578,74.95263671875000,9.78383922576904,-0.13208413124084,0.65956860780716,2.27856993675232,0.60335838794708,-1.43649482727051
58,1851714895,-23.56552124023438,-87.45040130615234,74.70739746093750,9.76474952697754,-0.12915819883347,0.66971993446350,2.58473730087280,0.89884573221207,-1.31943809986115
59,1851731562,-23.36031532287598,-87.43884277343750,74.51766204833984,9.76849651336670,-0.11638531833887,0.71584129333496,1.02140235900879,0.66587251424789,-1.27078676223755
60,1851748229,-23.29338073730469,-87.43196868896484,74.42465972900391,9.77810668945312,-0.11015654355288,0.76484543085098,-1.08446085453033,0.29306051135063,-1.13366281986237
61,1851764896,-23.29698562622070,-87.42709350585938,74.38677215576172,9.78197574615479,-0.11037849634886,0.73971605300903,-2.25633168220520,0.11907343566418,-1.05688881874084
62,1851781563,-23.35615730285645,-87.42306518554688,74.38680267333984,9.77441310882568,-0.12267126142979,0.69193118810654,-3.59354519844055,0.05492643639445,-0.98582637310028
63,1851798230,-23.45401954650879,-87.42246246337891,74.40412902832031,9.77945613861084,-0.11738757789135,0.72185462713242,-4.83659315109253,-0.16723170876503,-1.02886855602264
64,1851814897,-23.55954551696777,-87.42154693603516,74.42341613769531,9.76929569244385,-0.15097075700760,0.73913842439651,-5.23610115051270,-0.12918408215046,-1.01055562496185
65,1851831564,-23.74101066589355,-87.42511749267578,74.51200866699219,9.76255321502686,-0.18082882463932,0.74083322286606,-5.35925960540771,-0.48203751444817,-0.94726669788361
66,1851848231,-23.93441772460938,-87.42839050292969,74.61495208740234,9.76252555847168,-0.11994019895792,0.71479636430740,-5.48047113418579,-0.44578260183334,-0.90267473459244
67,1851864898,-24.13808441162109,-87.43105316162109,74.73601531982422,9.76304531097412,-0.20370759069920,0.67445504665375,-4.97645187377930,-0.43877759575844,-0.84667265415192
68,1851881565,-24.33755683898926,-87.43166351318359,74.87466430664062,9.75686359405518,-0.19372463226318,0.67527025938034,-3.79619312286377,-0.35989052057266,-0.76618480682373
69,1851898232,-24.53075599670410,-87.42922210693359,75.02651977539062,9.76762199401855,-0.15304067730904,0.70094895362854,-2.50661873817444,-0.21817536652088,-0.65826559066772
70,1851914899,-24.73697090148926,-87.42785644531250,75.21752929687500,9.77243328094482,-0.20578382909298,0.72724759578705,-0.89752656221390,-0.30767893791199,-0.58064627647400
71,1851931566,-24.90209388732910,-87.42511749267578,75.38185882568359,9.79607200622559,-0.18349161744118,0.69075161218643,0.00225391751155,-0.20307667553425,-0.60970389842987
72,1851948233,-25.05035400390625,-87.42230224609375,75.53721618652344,9.74970722198486,-0.15653409063816,0.71792042255402,0.40234988927841,-0.18942512571812,-0.63474029302597
73,1851964900,-25.24595069885254,-87.42078399658203,75.73854064941406,9.75835704803467,-0.18608795106411,0.72709655761719,0.28329566121101,-0.31807130575180,-0.55763965845108
74,1851981567,-25.39202690124512,-87.41790771484375,75.89778137207031,9.80498504638672,-0.17671677470207,0.71901935338974,0.73738956451416,-0.20348648726940,-0.63143628835678
75,1851998234,-25.54629516601562,-87.41661071777344,76.07125091552734,9.78397369384766,-0.18117091059685,0.72539877891541,0.95037198066711,-0.27646985650063,-0.62806820869446
76,1852014901,-25.69196128845215,-87.41056060791016,76.24134063720703,9.75726318359375,-0.19465900957584,0.67082077264786,1.45961654186249,-0.04254909232259,-0.51890689134598
77,1852031568,-25.86403465270996,-87.40467834472656,76.44695281982422,9.76388835906982,-0.16643725335598,0.67057806253433,1.74852788448334,-0.07940577715635,-0.43812447786331
78,1852048235,-25.95857048034668,-87.39376068115234,76.57052612304688,9.79931354522705,-0.15376792848110,0.64836031198502,1.60561537742615,0.27389582991600,-0.50992327928543
79,1852064902,-26.07500648498535,-87.37967681884766,76.70066833496094,9.78279685974121,-0.15993826091290,0.73121082782745,0.86230272054672,0.43309792876244,-0.40161350369453
80,1852081569,-26.15246772766113,-87.36537170410156,76.80569458007812,9.76391315460205,-0.19779926538467,0.69784885644913,1.65392732620239,0.46627920866013,-0.46264863014221
81,1852098236,-26.20444488525391,-87.35026550292969,76.87538146972656,9.75149345397949,-0.17962963879108,0.69745081663132,1.02907347679138,0.55682653188705,-0.52766007184982
82,1852114903,-26.24046516418457,-87.33612060546875,76.93941497802734,9.76542377471924,-0.12428209185600,0.72786480188370,1.64049351215363,0.53699588775635,-0.55461096763611
83,1852131570,-26.33032989501953,-87.32753753662109,77.04721069335938,9.76465892791748,-0.17277731001377,0.73268264532089,0.46270614862442,0.17834120988846,-0.61987209320068
84,1852148237,-26.46562004089355,-87.32379913330078,77.19846343994141,9.75019645690918,-0.20853580534458,0.75716972351074,0.80335509777069,-0.13819973170757,-0.61574852466583
85,1852164904,-26.66377258300781,-87.32497406005859,77.42547607421875,9.75220394134521,-0.25103309750557,0.74255162477493,1.56532013416290,-0.48876076936722,-0.55244672298431
86,1852181571,-26.86771011352539,-87.32709503173828,77.66172027587891,9.77430248260498,-0.21613778173923,0.72887641191483,1.88099634647369,-0.58561515808105,-0.56853139400482
87,1852198238,-27.07414245605469,-87.33229827880859,77.88375091552734,9.78012180328369,-0.17381589114666,0.68923252820969,0.84519344568253,-0.70918363332748,-0.67894780635834
88,1852214905,-27.26546478271484,-87.33986663818359,78.08678436279297,9.78433132171631,-0.21747314929962,0.69321042299271,0.68415361642838,-0.80159425735474,-0.78836536407471
89,1852231572,-27.42165565490723,-87.34259033203125,78.25448608398438,9.75979042053223,-0.16609491407871,0.65352708101273,0.57394212484360,-0.50713783502579,-0.75665676593781
90,1852248239,-27.51883888244629,-87.34642791748047,78.34814453125000,9.74070835113525,-0.15812005102634,0.64181339740753,-0.20862182974815,-0.47193315625191,-0.96821761131287
91,1852264906,-27.61220169067383,-87.34775543212891,78.42454528808594,9.77884483337402,-0.19587905704975,0.66131675243378,-0.96816641092300,-0.31642568111420,-0.94218236207962
92,1852281573,-27.71260452270508,-87.34716796875000,78.50355529785156,9.77675151824951,-0.19166064262390,0.69934517145157,-1.20502638816833,-0.23021976649761,-0.88872230052948
93,1852298240,-27.82257461547852,-87.34487915039062,78.61397552490234,9.76897144317627,-0.19420236349106,0.69208192825317,0.07900877296925,-0.16378042101860,-0.75525444746017
94,1852314907,-27.93551254272461,-87.34421539306641,78.71214294433594,9.75180435180664,-0.20193085074425,0.66584300994873,-0.75670164823532,-0.24704727530479,-0.83547341823578
95,1852331574,-28.05678749084473,-87.34450531005859,78.82917785644531,9.75495147705078,-0.23256932199001,0.69223326444626,-0.77680110931396,-0.29858645796776,-0.83391743898392
96,1852348241,-28.15361022949219,-87.34642791748047,78.91603851318359,9.75808048248291,-0.21106049418449,0.70478099584579,-0.74063605070114,-0.34836477041245,-0.94070971012115
97,1852364908,-28.28263473510742,-87.35284423828125,79.04184722900391,9.76437473297119,-0.21441556513309,0.71682399511337,-0.30860105156898,-0.64109236001968,-0.97308415174484
98,1852381575,-28.40701293945312,-87.36285400390625,79.15901947021484,9.74955272674561,-0.20578102767467,0.67563050985336,-0.30889558792114,-0.82336509227753,-1.09039032459259
99,1852398242,-28.55445671081543,-87.37818908691406,79.29788208007812,9.71912288665771,-0.21317791938782,0.67430162429810,-0.73331725597382,-1.11636793613434,-1.20149171352386
100,1852414909,-28.70896530151367,-87.39405822753906,79.44844055175781,9.77526760101318,-0.23402461409569,0.67315822839737,-0.04338791593909,-1.16869473457336,-1.18041253089905
101,1852431576,-28.87431335449219,-87.41252899169922,79.60787963867188,9.80039882659912,-0.17878413200378,0.66956251859665,-0.22695414721966,-1.31243324279785,-1.24135792255402
102,1852448243,-29.00785446166992,-87.42633056640625,79.73107147216797,9.79923152923584,-0.21178835630417,0.65332865715027,-0.46823862195015,-1.00593888759613,-1.19143891334534
103,1852464910,-29.12177276611328,-87.43539428710938,79.84606170654297,9.78258514404297,-0.17646521329880,0.60479331016541,-0.01705165579915,-0.76613342761993,-1.09958517551422
104,1852481577,-29.23670005798340,-87.44426727294922,79.95298004150391,9.74631786346436,-0.17751809954643,0.59508150815964,-0.55539220571518,-0.72829073667526,-1.10630857944489
105,1852498244,-29.33649635314941,-87.44733428955078,80.03431701660156,9.74429130554199,-0.21235911548138,0.60572773218155,-0.93165552616119,-0.41418936848640,-1.00056660175323
106,1852514911,-29.41549110412598,-87.45024871826172,80.10901641845703,9.77543354034424,-0.22932755947113,0.67147105932236,-0.22831799089909,-0.37935608625412,-1.00946688652039
107,1852531578,-29.47459602355957,-87.44718170166016,80.18047332763672,9.77480888366699,-0.19107356667519,0.63623893260956,0.66403484344482,-0.06980100274086,-0.85201281309128
108,1852548245,-29.52329444885254,-87.44274139404297,80.23767852783203,9.79314708709717,-0.17233890295029,0.65387779474258,0.48023808002472,0.03976371511817,-0.83166354894638
109,1852564912,-29.53972434997559,-87.43539428710938,80.26335906982422,9.81300258636475,-0.20300094783306,0.65517264604568,0.51080679893494,0.20606696605682,-0.83759289979935
110,1852581579,-29.54959869384766,-87.42298889160156,80.28240966796875,9.75093078613281,-0.20140469074249,0.64045667648315,0.43814361095428,0.46951916813850,-0.71330726146698
111,1852598246,-29.49006271362305,-87.40935516357422,80.22940826416016,9.75225639343262,-0.22938396036625,0.63626784086227,0.43348211050034,0.65791338682175,-0.82497853040695
112,1852614913,-29.43895149230957,-87.39353179931641,80.19074249267578,9.76753807067871,-0.19928355515003,0.63814616203308,0.69605070352554,0.75061851739883,-0.73647391796112
113,1852631580,-29.40167999267578,-87.37541961669922,80.14896392822266,9.77819633483887,-0.16993509232998,0.66291141510010,-0.26417577266693,0.85852485895157,-0.68441611528397
114,1852648247,-29.38344764709473,-87.35877227783203,80.13295745849609,9.78842544555664,-0.26300713419914,0.70000940561295,0.27141135931015,0.75928205251694,-0.65426355600357
115,1852664914,-29.37724494934082,-87.33876037597656,80.14585113525391,9.75793266296387,-0.22176700830460,0.62236100435257,1.18638026714325,0.88777464628220,-0.49463889002800
116,1852681581,-29.35041999816895,-87.32146453857422,80.12705230712891,9.74742507934570,-0.21995049715042,0.65963613986969,0.64199507236481,0.79236721992493,-0.64561283588409
117,1852698248,-29.26873970031738,-87.30252838134766,80.05390930175781,9.76907730102539,-0.23841126263142,0.67465120553970,0.52439439296722,0.95701849460602,-0.74122506380081
118,1852714915,-29.21238136291504,-87.28575134277344,80.00505828857422,9.74863147735596,-0.20087938010693,0.66208529472351,0.32314261794090,0.81507289409637,-0.75162386894226
119,1852731582,-29.20147323608398,-87.27294158935547,80.01151275634766,9.75298500061035,-0.25186344981194,0.65818208456039,1.02320182323456,0.54383444786072,-0.71621435880661
120,1852748249,-29.20948600769043,-87.26362609863281,80.03833770751953,9.75701904296875,-0.27028569579124,0.69379705190659,1.08054220676422,0.31732213497162,-0.77931755781174
121,1852764916,-29.24628257751465,-87.25733184814453,80.10979461669922,9.80797576904297,-0.24735221266747,0.75007641315460,2.12271022796631,0.09497829526663,-0.75010633468628
122,1852781583,-29.26136016845703,-87.25262451171875,80.14987945556641,9.76417350769043,-0.22118541598320,0.66625440120697,1.52501869201660,0.07008915394545,-0.86907738447189
123,1852798250,-29.26067733764648,-87.24850463867188,80.17045593261719,9.75635910034180,-0.20878186821938,0.63467371463776,1.14337646961212,0.06282795220613,-0.94776582717896
124,1852814917,-29.25240898132324,-87.24494171142578,80.17167663574219,9.74269199371338,-0.22990323603153,0.64788371324539,0.62009620666504,0.07687651365995,-0.99454748630524
125,1852831584,-29.28063201904297,-87.24118041992188,80.21085357666016,9.76131057739258,-0.24621123075485,0.71104955673218,0.64647740125656,0.01439433824271,-0.90742594003677
126,1852848251,-29.26743888854980,-87.23650360107422,80.21975708007812,9.79618167877197,-0.24432870745659,0.72735840082169,1.28265202045441,0.11682593077421,-0.95317673683167
127,1852864918,-29.24663162231445,-87.23077392578125,80.21176147460938,9.75469017028809,-0.19511961936951,0.60302340984344,0.90699052810669,0.19791573286057,-0.95706981420517
128,1852881585,-29.21428298950195,-87.22484588623047,80.18955230712891,9.75242233276367,-0.22906021773815,0.64132308959961,0.34214723110199,0.22655710577965,-1.00883936882019
129,1852898252,-29.19328117370605,-87.21849822998047,80.17675781250000,9.78082466125488,-0.21857851743698,0.69629365205765,0.57928240299225,0.23987573385239,-0.95471966266632
130,1852914919,-29.17508125305176,-87.21202850341797,80.16459655761719,9.76994228363037,-0.28556317090988,0.69496107101440,0.35093238949776,0.22167789936066,-0.96773099899292
131,1852931586,-29.14604377746582,-87.20655822753906,80.16146087646484,9.78210735321045,-0.23660632967949,0.71510815620422,1.14799320697784,0.18394401669502,-0.97914785146713
132,1852948253,-29.13656997680664,-87.20313262939453,80.15971374511719,9.76094913482666,-0.20070143043995,0.63678658008575,0.66846591234207,0.06985864043236,-1.00789177417755
133,1852964920,-29.14934539794922,-87.19956207275391,80.17752838134766,9.76544094085693,-0.23278962075710,0.64609456062317,0.11323374509811,0.05677054449916,-0.97090691328049
134,1852981587,-29.14224624633789,-87.19593048095703,80.16886138916016,9.76639461517334,-0.25108206272125,0.69855225086212,-0.14770203828812,0.09075860679150,-1.03405523300171
135,1852998254,-29.15510940551758,-87.19300079345703,80.19477081298828,9.77214336395264,-0.26873058080673,0.74423813819885,0.40906682610512,0.02292976900935,-0.97152805328369
136,1853014921,-29.13418960571289,-87.18978881835938,80.19313049316406,9.78328704833984,-0.22006259858608,0.68429285287857,1.04989027976990,0.06153450906277,-1.03208291530609
137,1853031588,-29.12375259399414,-87.18826293945312,80.18228912353516,9.75262832641602,-0.22822761535645,0.65301871299744,-0.12472745031118,-0.01732059009373,-1.10679519176483
138,1853048255,-29.11661148071289,-87.18672943115234,80.17512512207031,9.75662136077881,-0.24424692988396,0.70680671930313,0.06913507729769,-0.02435767464340,-1.09138274192810
139,1853064922,-29.13865661621094,-87.18742370605469,80.20257568359375,9.77324199676514,-0.25637352466583,0.74043768644333,0.24202722311020,-0.17330192029476,-1.06436777114868
140,1853081589,-29.16562271118164,-87.19028472900391,80.24025726318359,9.75922489166260,-0.24202963709831,0.68884712457657,0.60089957714081,-0.30196732282639,-1.10018718242645
141,1853098256,-29.20930480957031,-87.19355773925781,80.29075622558594,9.74204254150391,-0.25991636514664,0.65012151002884,0.41518190503120,-0.35941660404205,-1.08638203144073
142,1853114923,-29.25593376159668,-87.19523620605469,80.34911346435547,9.80578804016113,-0.26239761710167,0.64638262987137,0.72338587045670,-0.28455707430840,-1.01900112628937
143,1853131590,-29.29376029968262,-87.19635009765625,80.38845825195312,9.80195713043213,-0.22468057274818,0.68127638101578,-0.10025451332331,-0.19814622402191,-1.04560649394989
144,1853148257,-29.33166313171387,-87.19578552246094,80.42279052734375,9.75996017456055,-0.25858122110367,0.71966665983200,-0.17294333875179,-0.12485549598932,-1.01282215118408
145,1853164924,-29.36230659484863,-87.19788360595703,80.45979309082031,9.76099872589111,-0.25780701637268,0.62539023160934,0.56997227668762,-0.27490749955177,-1.08020913600922
146,1853181591,-29.36167144775391,-87.19956207275391,80.46611785888672,9.77440834045410,-0.24500016868114,0.63783544301987,0.23585455119610,-0.18545517325401,-1.15402519702911
147,1853198258,-29.36970710754395,-87.19949340820312,80.46504211425781,9.77663993835449,-0.19811142981052,0.66566348075867,-0.49289718270302,-0.10428851097822,-1.12254703044891
148,1853214925,-29.39735031127930,-87.19690704345703,80.48394775390625,9.76597213745117,-0.28496691584587,0.69172620773315,-0.58881676197052,0.00157518091146,-1.00156545639038
149,1853231592,-29.39653396606445,-87.19418334960938,80.48944091796875,9.74984359741211,-0.25227311253548,0.64603751897812,0.35894915461540,0.04670475050807,-1.01958382129669
150,1853248259,-29.39411926269531,-87.19104766845703,80.48584747314453,9.76529884338379,-0.22447806596756,0.65014529228210,-0.18006367981434,0.06750226020813,-1.04456913471222
151,1853264926,-29.38295173645020,-87.18826293945312,80.46501922607422,9.76834106445312,-0.23130489885807,0.67619532346725,-0.53827011585236,0.08074403554201,-1.08887910842896
152,1853281593,-29.38120269775391,-87.18728637695312,80.45405578613281,9.76431465148926,-0.28320646286011,0.71201699972153,-0.54138845205307,-0.03908498212695,-1.12537074089050
153,1853298260,-29.42661666870117,-87.18728637695312,80.50560760498047,9.77337932586670,-0.27051264047623,0.68208223581314,0.27864697575569,-0.16711007058620,-0.98996931314468
154,1853314927,-29.50714111328125,-87.19049072265625,80.59719848632812,9.77550315856934,-0.22340382635593,0.66973847150803,0.55289494991302,-0.38849341869354,-0.97882783412933
155,1853331594,-29.59829330444336,-87.19628143310547,80.69392395019531,9.76283073425293,-0.29708099365234,0.66955506801605,0.02623380720615,-0.52459931373596,-1.05147802829742
156,1853348261,-29.61488723754883,-87.19766998291016,80.72262573242188,9.79283714294434,-0.28088223934174,0.69594562053680,0.69630038738251,-0.21601749956608,-1.09501969814301
157,1853364928,-29.58417320251465,-87.19621276855469,80.69087982177734,9.78224468231201,-0.21991463005543,0.65897059440613,0.01132081262767,0.03598583862185,-1.15474200248718
158,1853381595,-29.57596588134766,-87.19523620605469,80.69124603271484,9.75414466857910,-0.24724267423153,0.61561715602875,0.32461529970169,-0.05007922649384,-1.10708963871002
159,1853398262,-29.53603744506836,-87.19383239746094,80.65100097656250,9.76194190979004,-0.25450921058655,0.64289987087250,-0.04578910022974,0.04498870670795,-1.18442714214325
160,1853414929,-29.52333641052246,-87.19300079345703,80.63575744628906,9.76156044006348,-0.22949327528477,0.68089032173157,-0.08204387128353,-0.02462020516396,-1.13443124294281
161,1853431596,-29.49209403991699,-87.19439697265625,80.59654998779297,9.77115631103516,-0.29773056507111,0.66012543439865,-0.48408001661301,-0.10350091755390,-1.26513922214508
162,1853448263,-29.47008705139160,-87.19746398925781,80.57582092285156,9.74738597869873,-0.23004396259785,0.63346022367477,0.07453936338425,-0.21950083971024,-1.26818728446960
163,1853464930,-29.46792221069336,-87.20166015625000,80.57109832763672,9.75204372406006,-0.27126249670982,0.62983077764511,-0.19910033047199,-0.32041487097740,-1.27469277381897
164,1853481597,-29.46681594848633,-87.20796203613281,80.56630706787109,9.77879714965820,-0.25072383880615,0.67858111858368,0.04283724352717,-0.40064027905464,-1.30392348766327
165,1853498264,-29.42406845092773,-87.21350860595703,80.52163696289062,9.78918457031250,-0.26625403761864,0.65099215507507,-0.14026154577732,-0.31196910142899,-1.40444040298462
166,1853514931,-29.37489128112793,-87.22110748291016,80.46112823486328,9.77759265899658,-0.27017277479172,0.64841812849045,-0.66569334268570,-0.38117465376854,-1.49512219429016
167,1853531598,-29.30154609680176,-87.22921752929688,80.37448120117188,9.76538658142090,-0.27464085817337,0.64372873306274,-0.65601164102554,-0.40131893754005,-1.58792960643768
168,1853548265,-29.17865371704102,-87.23699951171875,80.23363494873047,9.77508735656738,-0.27319943904877,0.70386910438538,-1.06581473350525,-0.29167097806931,-1.71443080902100
169,1853564932,-29.06703758239746,-87.24195861816406,80.11744689941406,9.76673412322998,-0.23575127124786,0.67982339859009,-0.19636614620686,-0.17130412161350,-1.55994772911072
170,1853581599,-28.98774719238281,-87.25198364257812,80.02986907958984,9.72573280334473,-0.24558724462986,0.60124391317368,-0.64889127016068,-0.47614645957947,-1.64446949958801
171,1853598266,-28.91649818420410,-87.26319122314453,79.95819854736328,9.74245834350586,-0.24742358922958,0.64294683933258,-0.10006241500378,-0.57396131753922,-1.64015388488770
172,1853614933,-28.84726333618164,-87.27021026611328,79.89974212646484,9.76370334625244,-0.22110274434090,0.64180147647858,0.64596509933472,-0.36607593297958,-1.47751343250275
173,1853631600,-28.82334327697754,-87.27767944335938,79.87754821777344,9.78230953216553,-0.22556345164776,0.67769986391068,-0.07022362202406,-0.43393677473068,-1.40394091606140
174,1853648267,-28.79298973083496,-87.28660583496094,79.85550689697266,9.75313377380371,-0.26651594042778,0.61622959375381,0.56610471010208,-0.51071083545685,-1.43210208415985
175,1853664934,-28.76939964294434,-87.29701995849609,79.84281921386719,9.74416160583496,-0.26218983530998,0.65154361724854,0.81874841451645,-0.59948444366455,-1.44624018669128
176,1853681601,-28.74408340454102,-87.30529022216797,79.83148956298828,9.80744075775146,-0.25305190682411,0.64138603210449,1.01464712619781,-0.50336003303528,-1.38946974277496
177,1853698268,-28.67518997192383,-87.31227111816406,79.76802825927734,9.77131271362305,-0.20849518477917,0.60951763391495,0.09905712306499,-0.36219561100006,-1.50238335132599
178,1853714935,-28.60235214233398,-87.31978607177734,79.69343566894531,9.73407268524170,-0.28308734297752,0.66970944404602,0.25736919045448,-0.38216069340706,-1.51857054233551
179,1853731602,-28.51602554321289,-87.32965850830078,79.62073516845703,9.76084995269775,-0.26207411289215,0.64280652999878,0.91671681404114,-0.49694398045540,-1.58783996105194
180,1853748269,-28.44584465026855,-87.33927917480469,79.55577087402344,9.78732395172119,-0.22278100252151,0.65681445598602,0.59161490201950,-0.49967172741890,-1.55500447750092
181,1853764936,-28.39444732666016,-87.35173797607422,79.50695037841797,9.76359653472900,-0.22526678442955,0.63826316595078,0.30363860726357,-0.67150741815567,-1.60185050964355
182,1853781603,-28.37607574462891,-87.36477661132812,79.49671173095703,9.74525165557861,-0.22580429911613,0.60668474435806,0.50888597965240,-0.71220600605011,-1.50416350364685
183,1853798270,-28.30715942382812,-87.37714385986328,79.42891693115234,9.74056625366211,-0.23677234351635,0.58571696281433,0.13652849197388,-0.65575551986694,-1.65518844127655
184,1853814937,-28.23913383483887,-87.39105224609375,79.37035369873047,9.75062179565430,-0.24526457488537,0.61009263992310,0.56292223930359,-0.72410941123962,-1.66479980945587
185,1853831604,-28.17257118225098,-87.40497589111328,79.31922149658203,9.78272628784180,-0.23452612757683,0.62713652849197,0.83040845394135,-0.73034602403641,-1.64720380306244
186,1853848271,-28.14262580871582,-87.41760253906250,79.30554962158203,9.79591178894043,-0.22567892074585,0.60644364356995,0.77986824512482,-0.70500230789185,-1.52049791812897
187,1853864938,-28.11136054992676,-87.43158721923828,79.28034973144531,9.77712440490723,-0.23593217134476,0.61486726999283,0.43286740779877,-0.80177354812622,-1.59709894657135
188,1853881605,-28.05090713500977,-87.44534301757812,79.23041534423828,9.78515243530273,-0.22921593487263,0.62616640329361,0.44388088583946,-0.70899152755737,-1.63335382938385
189,1853898272,-28.02126121520996,-87.45840454101562,79.20438385009766,9.77554893493652,-0.24769417941570,0.59322732686996,0.23000203073025,-0.72277122735977,-1.55860328674316
190,1853914939,-27.96073150634766,-87.46874237060547,79.14965057373047,9.75726604461670,-0.22057147324085,0.58968269824982,0.15175524353981,-0.53720718622208,-1.55560660362244
191,1853931606,-27.91072273254395,-87.47959136962891,79.10196685791016,9.74104881286621,-0.23223620653152,0.58505797386169,-0.05543228983879,-0.57266801595688,-1.55271232128143
192,1853948273,-27.82600784301758,-87.48899841308594,79.02581024169922,9.74813270568848,-0.19845287501812,0.59410482645035,0.08434262126684,-0.48408639431000,-1.60176050662994
193,1853964940,-27.75072097778320,-87.49532318115234,78.94696044921875,9.76796817779541,-0.21397843956947,0.61145073175430,-0.18790756165981,-0.29372638463974,-1.48881483078003
194,1853981607,-27.70641136169434,-87.50143432617188,78.89788055419922,9.76455307006836,-0.20514836907387,0.59615194797516,-0.25897642970085,-0.32029321789742,-1.41179120540619
195,1853998274,-27.63797569274902,-87.50707244873047,78.82395935058594,9.74299812316895,-0.22294254601002,0.60205864906311,-0.21064525842667,-0.29393774271011,-1.46838235855103
196,1854014941,-27.61932563781738,-87.51517486572266,78.80088806152344,9.75130176544189,-0.21892859041691,0.61452519893646,-0.02173878066242,-0.46497932076454,-1.40022706985474
197,1854031608,-27.59749031066895,-87.52306365966797,78.77468109130859,9.75648498535156,-0.24634793400764,0.61136180162430,-0.22674280405045,-0.45196813344955,-1.41200900077820
198,1854048275,-27.56864356994629,-87.52939605712891,78.75559234619141,9.76800918579102,-0.21094089746475,0.58222669363022,0.32298895716667,-0.36496180295944,-1.35708248615265
199,1854064942,-27.55008316040039,-87.53518676757812,78.74343872070312,9.76906299591064,-0.21382629871368,0.58766108751297,0.20319835841656,-0.35221943259239,-1.32904922962189
200,1854081609,-27.51613807678223,-87.54138946533203,78.71310424804688,9.75685691833496,-0.21913662552834,0.58745372295380,0.09429315477610,-0.36199066042900,-1.38497459888458
201,1854098276,-27.47632789611816,-87.54673004150391,78.67044830322266,9.77941894531250,-0.24275198578835,0.55424618721008,-0.21180424094200,-0.28483885526657,-1.37679779529572
202,1854114943,-27.43677711486816,-87.54736328125000,78.63661193847656,9.77091979980469,-0.23525625467300,0.60554701089859,0.31873083114624,-0.05826889723539,-1.23377645015717
203,1854131610,-27.38245773315430,-87.54616546630859,78.58992767333984,9.77950096130371,-0.19835039973259,0.58076882362366,0.04414349421859,0.06095822528005,-1.22650897502899
204,1854148277,-27.35508346557617,-87.54457092285156,78.56021881103516,9.74265384674072,-0.20271842181683,0.56300419569016,-0.17395505309105,0.04267075657845,-1.17130076885223
205,1854164944,-27.30885505676270,-87.54282379150391,78.50133514404297,9.75398349761963,-0.19500541687012,0.57650864124298,-0.74323576688766,0.11938079446554,-1.21424067020416
206,1854181611,-27.19292259216309,-87.53637695312500,78.37775421142578,9.77957248687744,-0.25092053413391,0.61462253332138,-0.42534363269806,0.41679540276527,-1.25217282772064
207,1854198278,-27.14039802551270,-87.53050231933594,78.32093048095703,9.76256179809570,-0.21613037586212,0.57787579298019,-0.29313096404076,0.31034910678864,-1.11627197265625
208,1854214945,-27.07081794738770,-87.52567291259766,78.24671936035156,9.75119876861572,-0.24085579812527,0.60603606700897,-0.27041247487068,0.28896248340607,-1.17658972740173
209,1854231612,-26.97559928894043,-87.51904296875000,78.15412902832031,9.78649902343750,-0.21905082464218,0.57722133398056,0.13538873195648,0.39919954538345,-1.17834436893463
210,1854248279,-26.89738273620605,-87.51383209228516,78.06661224365234,9.75970458984375,-0.22766020894051,0.66139245033264,-0.39454445242882,0.30292138457298,-1.20668458938599
211,1854264946,-26.84989929199219,-87.50895690917969,78.02906799316406,9.76757717132568,-0.25943657755852,0.63691616058350,0.44923391938210,0.25831687450409,-1.09456503391266
212,1854281613,-26.75382614135742,-87.50173950195312,77.94574737548828,9.77119064331055,-0.21198220551014,0.53750598430634,0.65864342451096,0.42509400844574,-1.14622604846954
213,1854298280,-26.57699584960938,-87.48954772949219,77.76820373535156,9.76593208312988,-0.18808455765247,0.54157304763794,-0.05929340049624,0.78755855560303,-1.24295866489410
214,1854314947,-26.36722564697266,-87.47578430175781,77.53917694091797,9.76970863342285,-0.22368362545967,0.62744432687759,-1.09049248695374,0.93752712011337,-1.32472062110901
215,1854331614,-26.19500160217285,-87.45986175537109,77.35659027099609,9.74043750762939,-0.21478003263474,0.60979062318802,-0.47582629323006,1.00686097145081,-1.15431952476501
216,1854348281,-26.02467155456543,-87.44488525390625,77.18460845947266,9.75135707855225,-0.24659521877766,0.59390312433243,-0.12063580006361,0.94570404291153,-1.16742694377899
217,1854364948,-25.87360572814941,-87.43616485595703,77.03794097900391,9.73662948608398,-0.23131845891476,0.64048904180527,0.28400641679764,0.58995020389557,-1.26862907409668
218,1854381615,-25.77305412292480,-87.43250274658203,76.94005584716797,9.74678134918213,-0.25078064203262,0.67193377017975,0.01552129536867,0.25455182790756,-1.29238474369049
219,1854398282,-25.71425628662109,-87.43226623535156,76.88211059570312,9.76962375640869,-0.24492149055004,0.64669710397720,0.01436872594059,0.01795450225472,-1.28256237506866
220,1854414949,-25.66053771972656,-87.43677520751953,76.83737945556641,9.75553894042969,-0.26100945472717,0.61671108007431,0.35152149200439,-0.24140606820583,-1.37423026561737
221,1854431616,-25.66188049316406,-87.44602966308594,76.85700225830078,9.77041435241699,-0.28111335635185,0.65447229146957,1.09281706809998,-0.56689226627350,-1.32821691036224
222,1854448283,-25.59504890441895,-87.45755767822266,76.82224273681641,9.77259254455566,-0.25573781132698,0.62513220310211,1.84802675247192,-0.62534689903259,-1.52367389202118
223,1854464950,-25.50965309143066,-87.47176361083984,76.75949859619141,9.77411270141602,-0.22882741689682,0.60983514785767,1.74490368366241,-0.74598902463913,-1.64462339878082
224,1854481617,-25.42533874511719,-87.48596954345703,76.70148468017578,9.73478889465332,-0.22497946023941,0.57943117618561,1.37583744525909,-0.73345172405243,-1.64785087108612
225,1854498284,-25.31652069091797,-87.49751281738281,76.61743927001953,9.75682830810547,-0.22797277569771,0.59424018859863,1.55533123016357,-0.59573221206665,-1.64553272724152
226,1854514951,-25.23724937438965,-87.50613403320312,76.56446838378906,9.76523113250732,-0.18706399202347,0.61822181940079,1.70499885082245,-0.44483497738838,-1.47741115093231
227,1854531618,-25.17516326904297,-87.51509857177734,76.54282379150391,9.78744888305664,-0.25666579604149,0.58728760480881,2.35452437400818,-0.49591943621635,-1.41802787780762
228,1854548285,-25.11928176879883,-87.52179718017578,76.52948760986328,9.74570083618164,-0.16792865097523,0.56042575836182,2.50542163848877,-0.40516093373299,-1.35009026527405
229,1854564952,-25.07859992980957,-87.52891540527344,76.51972961425781,9.74362087249756,-0.22204248607159,0.59417986869812,1.86219704151154,-0.42083588242531,-1.34485244750977
230,1854581619,-25.05822563171387,-87.53598022460938,76.51994323730469,9.76243114471436,-0.22023534774780,0.61703920364380,1.25679576396942,-0.42920473217964,-1.32005274295807
231,1854598286,-25.01418876647949,-87.54234313964844,76.49980163574219,9.78567790985107,-0.21407821774483,0.60396766662598,1.41804051399231,-0.37799221277237,-1.35546231269836
232,1854614953,-24.97298622131348,-87.54959869384766,76.48371887207031,9.75381374359131,-0.21073073148727,0.57922720909119,1.31756842136383,-0.42357635498047,-1.37311589717865
233,1854631620,-24.96008491516113,-87.55519866943359,76.48493957519531,9.75913238525391,-0.20959521830082,0.59988892078400,0.66651928424835,-0.34698161482811,-1.28660905361176
234,1854648287,-24.94068145751953,-87.56089019775391,76.46949005126953,9.78121662139893,-0.22467377781868,0.62783312797546,0.33283704519272,-0.32489067316055,-1.31301581859589
235,1854664954,-24.93597793579102,-87.56571197509766,76.47288513183594,9.78474235534668,-0.18794886767864,0.61541974544525,0.64784127473831,-0.33137714862823,-1.26086199283600
236,1854681621,-24.93776893615723,-87.56844329833984,76.47838592529297,9.75370311737061,-0.19171375036240,0.54768276214600,0.24261629581451,-0.19595636427402,-1.19788682460785
237,1854698288,-24.94814872741699,-87.57134246826172,76.49866485595703,9.72325801849365,-0.21555803716183,0.56155771017075,0.60079711675644,-0.21227163076401,-1.16307914257050
238,1854714955,-24.93703460693359,-87.57199096679688,76.49122619628906,9.76924419403076,-0.20290172100067,0.55700516700745,0.26974016427994,-0.08177495002747,-1.18047010898590
239,1854731622,-24.93844795227051,-87.57166290283203,76.48719787597656,9.75397014617920,-0.21376504004002,0.55959260463715,-0.37139692902565,-0.02183482795954,-1.14666759967804
240,1854748289,-24.94721031188965,-87.57174682617188,76.48326873779297,9.74466514587402,-0.21297702193260,0.55660134553909,-0.49833989143372,-0.05074515938759,-1.14935064315796
241,1854764956,-24.99035453796387,-87.57045745849609,76.51468658447266,9.77602863311768,-0.21198211610317,0.57982826232910,-0.55852973461151,-0.01519473455846,-1.03659069538116
242,1854781623,-25.00305175781250,-87.56795501708984,76.51953125000000,9.79413795471191,-0.22852638363838,0.62123376131058,-0.44486060738564,0.07823399454355,-1.07468974590302
243,1854798290,-24.98943901062012,-87.56353759765625,76.49121093750000,9.76916217803955,-0.20770412683487,0.58063447475433,-0.47961059212685,0.21761187911034,-1.08935928344727
244,1854814957,-24.98044013977051,-87.55984497070312,76.47210693359375,9.73003864288330,-0.22931453585625,0.56036436557770,-0.64107310771942,0.17894954979420,-1.09860551357269
245,1854831624,-24.93569755554199,-87.55976867675781,76.41352081298828,9.76925563812256,-0.21744744479656,0.56694662570953,-0.93255198001862,0.02310265414417,-1.28868377208710
246,1854848291,-24.85746574401855,-87.55735778808594,76.31252288818359,9.76292037963867,-0.21763737499714,0.60381799936295,-1.22834014892578,0.19808860123158,-1.31827914714813
247,1854864958,-24.83666419982910,-87.55399322509766,76.27374267578125,9.75550079345703,-0.19227026402950,0.54846519231796,-0.98729902505875,0.17861016094685,-1.15192472934723
248,1854881625,-24.79087257385254,-87.54896545410156,76.20614624023438,9.74230384826660,-0.22218905389309,0.56878757476807,-1.40889680385590,0.30851772427559,-1.18382513523102
249,1854898292,-24.71672058105469,-87.54098510742188,76.12093353271484,9.75149059295654,-0.23478604853153,0.59972876310349,-0.49127081036568,0.47679325938225,-1.14662289619446
250,1854914959,-24.65922355651855,-87.53319549560547,76.05919647216797,9.77392482757568,-0.24177619814873,0.63909947872162,-0.37119838595390,0.42839798331261,-1.11645114421844
251,1854931626,-24.63233566284180,-87.52725982666016,76.03419494628906,9.75527667999268,-0.20232951641083,0.58524477481842,0.17694534361362,0.30945262312889,-1.05732429027557
252,1854948293,-24.62199020385742,-87.52124786376953,76.02370452880859,9.75333595275879,-0.21868090331554,0.54685467481613,-0.18863752484322,0.30067390203476,-1.02947676181793
253,1854964960,-24.60186767578125,-87.51840209960938,75.99999237060547,9.76257038116455,-0.26068598031998,0.57568353414536,-0.22496274113655,0.14457088708878,-1.13495647907257
254,1854981627,-24.61432266235352,-87.51588439941406,76.01496887207031,9.77274036407471,-0.23699180781841,0.64370596408844,0.45768618583679,0.07884869724512,-1.03976666927338
255,1854998294,-24.62007713317871,-87.51699066162109,76.02930450439453,9.74563217163086,-0.23097783327103,0.58692973852158,0.39685598015785,-0.11983541399240,-1.15005505084991
256,1855014961,-24.63934898376465,-87.51840209960938,76.05572509765625,9.73637104034424,-0.24099427461624,0.58414435386658,0.41721808910370,-0.14958457648754,-1.12506985664368
257,1855031628,-24.65481758117676,-87.51990509033203,76.08336639404297,9.76989173889160,-0.24182258546352,0.56652939319611,0.80994403362274,-0.15006481111050,-1.11804556846619
258,1855048295,-24.64485931396484,-87.52093505859375,76.07743072509766,9.78283786773682,-0.21046844124794,0.56380361318588,0.24535682797432,-0.07320109009743,-1.18420302867889
259,1855064962,-24.61781311035156,-87.51706695556641,76.05766296386719,9.78882122039795,-0.20988632738590,0.55755275487900,0.59732657670975,0.18979011476040,-1.09722876548767
260,1855081629,-24.57718849182129,-87.51045227050781,76.01914215087891,9.76362800598145,-0.18339240550995,0.51219409704208,0.04133889451623,0.35715627670288,-1.08720147609711
261,1855098296,-24.52665901184082,-87.50166320800781,75.96987915039062,9.74759006500244,-0.23195613920689,0.55017453432083,0.07512205094099,0.48352938890457,-1.05626130104065
262,1855114963,-24.52870559692383,-87.49205017089844,75.98003387451172,9.76864433288574,-0.21520213782787,0.59971022605896,0.44443157315254,0.47654992341995,-0.89049601554871
263,1855131630,-24.49377632141113,-87.47966003417969,75.95439910888672,9.77421379089355,-0.23694339394569,0.62814372777939,0.25328394770622,0.66549468040466,-0.91915637254715
264,1855148297,-24.49654388427734,-87.46812438964844,75.97239685058594,9.77216625213623,-0.23739185929298,0.56045585870743,0.64230251312256,0.57427513599396,-0.83311074972153
265,1855164964,-24.44475555419922,-87.45609283447266,75.92786407470703,9.74944305419922,-0.22506737709045,0.55598914623260,0.45028406381607,0.66039788722992,-0.96716761589050
266,1855181631,-24.43200683593750,-87.44250488281250,75.91623687744141,9.76693058013916,-0.24531194567680,0.55419218540192,0.05012405663729,0.72188121080399,-0.84389370679855
267,1855198298,-24.42308807373047,-87.43059539794922,75.89590454101562,9.75362586975098,-0.24564616382122,0.64125227928162,-0.17344281077385,0.61543482542038,-0.89623320102692
268,1855214965,-24.40972900390625,-87.42185211181641,75.88951110839844,9.76650714874268,-0.24694974720478,0.67388278245926,0.54223370552063,0.46465280652046,-0.94018459320068
269,1855231632,-24.39610290527344,-87.41722106933594,75.88613891601562,9.74854850769043,-0.23183903098106,0.62938559055328,0.40952143073082,0.20532420277596,-1.06416285037994
270,1855248299,-24.42448616027832,-87.41275787353516,75.92601013183594,9.76389980316162,-0.23308514058590,0.60770827531815,0.51531469821930,0.16516348719597,-0.95095467567444
271,1855264966,-24.46297073364258,-87.40866851806641,75.97505187988281,9.77562999725342,-0.22699686884880,0.57120144367218,0.64376235008240,0.13474839925766,-0.92936313152313
272,1855281633,-24.45531845092773,-87.40505218505859,75.97510528564453,9.73184680938721,-0.24543118476868,0.60387283563614,0.51961123943329,0.15725558996201,-1.06523215770721
273,1855298300,-24.46439170837402,-87.39992523193359,75.99311065673828,9.75591945648193,-0.22611556947231,0.60366559028625,0.49817341566086,0.23588652908802,-0.97889173030853
274,1855314967,-24.45729255676270,-87.39616394042969,75.98871612548828,9.79710102081299,-0.20346798002720,0.58319044113159,0.05022010207176,0.16615597903728,-1.08218777179718
275,1855331634,-24.42281913757324,-87.39060211181641,75.94817352294922,9.77534103393555,-0.24553780257702,0.59957945346832,-0.38614347577095,0.33071118593216,-1.11389005184174
276,1855348301,-24.42614746093750,-87.38221740722656,75.95149993896484,9.75702571868896,-0.25363242626190,0.58079618215561,-0.13221915066242,0.41940793395042,-0.94621634483337
277,1855364968,-24.39143371582031,-87.37356567382812,75.91324615478516,9.77891349792480,-0.21096521615982,0.56873404979706,-0.08513020724058,0.47095349431038,-1.03931856155396
278,1855381635,-24.34315490722656,-87.36560058593750,75.85379028320312,9.75238895416260,-0.22695411741734,0.58437597751617,-0.95269638299942,0.47882944345474,-1.11847460269928
279,1855398302,-24.30483245849609,-87.35795593261719,75.80300140380859,9.73257637023926,-0.25536715984344,0.62385314702988,-0.66015452146530,0.45117408037186,-1.08944904804230
280,1855414969,-24.27164459228516,-87.35041046142578,75.75752258300781,9.75790214538574,-0.25634098052979,0.59852868318558,-0.56026494503021,0.42645782232285,-1.08227741718292
281,1855431636,-24.21875572204590,-87.34266662597656,75.69772338867188,9.76682567596436,-0.23746667802334,0.59762340784073,-0.59484207630157,0.45221140980721,-1.13277280330658
282,1855448303,-24.15242004394531,-87.33552551269531,75.62065887451172,9.74714660644531,-0.24768742918968,0.61290770769119,-0.54796445369720,0.45858252048492,-1.17182576656342
283,1855464970,-24.09149932861328,-87.32819366455078,75.54555511474609,9.74864006042480,-0.26906421780586,0.63138794898987,-0.33934909105301,0.44937485456467,-1.15282118320465
284,1855481637,-24.02908134460449,-87.32365417480469,75.48291778564453,9.74465084075928,-0.22392897307873,0.59239375591278,-0.38403043150902,0.30194813013077,-1.22082304954529
285,1855498304,-24.00661087036133,-87.32555389404297,75.44874572753906,9.75497150421143,-0.26038488745689,0.59573233127594,-0.82321137189865,-0.08963804692030,-1.29630351066589
286,1855514971,-24.00306510925293,-87.33177947998047,75.44239044189453,9.73847961425781,-0.29399743676186,0.62950235605240,-0.12061660736799,-0.36991780996323,-1.32782006263733
287,1855531638,-23.98399925231934,-87.34097290039062,75.43879699707031,9.76590728759766,-0.25185024738312,0.64525598287582,0.76961040496826,-0.50967347621918,-1.39011013507843
288,1855548305,-23.96148300170898,-87.35137176513672,75.42471313476562,9.76924800872803,-0.24289138615131,0.64031738042831,0.65116447210312,-0.57140010595322,-1.43723750114441
289,1855564972,-23.92580413818359,-87.36240386962891,75.39740753173828,9.76298046112061,-0.24285130202770,0.55693280696869,0.41696190834045,-0.59136521816254,-1.49671006202698
290,1855581639,-23.86370468139648,-87.37162017822266,75.33716583251953,9.75671577453613,-0.22904409468174,0.55746924877167,0.16745580732822,-0.45250594615936,-1.52846968173981
291,1855598306,-23.76104354858398,-87.37766265869141,75.21893310546875,9.76620101928711,-0.22365993261337,0.54468965530396,-0.67248702049255,-0.22617293894291,-1.59527420997620
292,1855614973,-23.66114997863770,-87.38146972656250,75.11139678955078,9.75155544281006,-0.23443949222565,0.54319286346436,-0.46091333031654,-0.11220924556255,-1.52266228199005
293,1855631640,-23.57099914550781,-87.38513946533203,75.01103210449219,9.75438213348389,-0.26400983333588,0.58154743909836,-0.38205820322037,-0.12088552862406,-1.49472498893738
294,1855648307,-23.48770523071289,-87.38843536376953,74.93540954589844,9.75853347778320,-0.20338721573353,0.60990107059479,0.45568835735321,-0.10782305151224,-1.42435419559479
295,1855664974,-23.40833663940430,-87.39135742187500,74.86471557617188,9.78277301788330,-0.23216505348682,0.58232933282852,0.18241365253925,-0.11061485856771,-1.42499458789825
296,1855681641,-23.31449317932129,-87.39308166503906,74.76864624023438,9.75101184844971,-0.23994825780392,0.57790327072144,-0.06480653584003,-0.01446477137506,-1.44321799278259
297,1855698308,-23.17861175537109,-87.39518737792969,74.63031768798828,9.75377941131592,-0.22229337692261,0.54294294118881,-0.04823511838913,0.02667562663555,-1.54980528354645
298,1855714975,-23.03029251098633,-87.40128326416016,74.47032165527344,9.74660968780518,-0.28162053227425,0.60479253530502,-0.90714412927628,-0.17558144032955,-1.71320140361786
299,1855731642,-22.90868949890137,-87.40814208984375,74.34905242919922,9.75450801849365,-0.26146653294563,0.65944987535477,0.01164097245783,-0.26732617616653,-1.62713003158569
300,1855748309,-22.77888298034668,-87.41669464111328,74.22484588623047,9.75471210479736,-0.20320037007332,0.61459058523178,0.42723259329796,-0.34515032172203,-1.66280841827393
301,1855764976,-22.62826919555664,-87.42701721191406,74.08296203613281,9.73288822174072,-0.04930748790503,0.59331858158112,0.51890045404434,-0.44771635532379,-1.75963723659515
302,1855781643,-22.54023933410645,-87.44044494628906,73.95465850830078,9.78242588043213,0.17113596200943,0.47328218817711,-2.52771115303040,-0.61914211511612,-1.79148650169373
303,1855798310,-22.52630043029785,-87.45639801025391,73.77488708496094,9.86240100860596,0.34506681561470,0.47211667895317,-9.92586612701416,-0.70249897241592,-1.96859931945801
304,1855814977,-22.48024559020996,-87.45886230468750,73.50742340087891,9.81308460235596,-0.35377746820450,0.51129889488220,-12.96937465667725,0.12466987222433,-1.86690413951874
305,1855831644,-22.31664657592773,-87.45132446289062,73.17489624023438,9.80289936065674,-0.44577425718307,0.56038242578506,-10.02584552764893,0.74182081222534,-1.81320667266846
306,1855848311,-22.08107948303223,-87.43906402587891,72.81373596191406,9.77812099456787,-0.27515348792076,0.58592069149017,-7.63196468353271,1.01866841316223,-1.79821038246155
307,1855864978,-21.73000335693359,-87.43036651611328,72.32991790771484,9.71123313903809,-0.44582611322403,0.55437237024307,-7.84893178939819,0.94828492403030,-2.18731904029846
308,1855881645,-21.32627296447754,-87.42861175537109,71.81273651123047,9.69450855255127,-0.37758800387383,0.62186074256897,-6.73792695999146,0.59143573045731,-2.43523645401001
309,1855898312,-20.88375473022461,-87.43334197998047,71.29838562011719,9.73911762237549,-0.37383851408958,0.70701760053635,-4.27497053146362,0.23786513507366,-2.56505417823792
310,1855914979,-20.44643783569336,-87.44028472900391,70.80487060546875,9.76873779296875,-0.29173180460930,0.69580501317978,-3.01179146766663,0.06541485339403,-2.55226087570190
311,1855931646,-20.03532981872559,-87.45208740234375,70.36528778076172,9.74660301208496,-0.33104050159454,0.58385783433914,-1.78796505928040,-0.26878610253334,-2.52936291694641
312,1855948313,-19.64794731140137,-87.46781158447266,69.97126770019531,9.72481441497803,-0.30473372340202,0.61094152927399,-0.36667138338089,-0.52292162179947,-2.47486519813538
313,1855964980,-19.31995201110840,-87.48533630371094,69.69335937500000,9.73977947235107,-0.43196192383766,0.61394709348679,3.29696297645569,-0.74855685234070,-2.20146298408508
314,1855981647,-18.90053367614746,-87.50103759765625,69.36164093017578,9.69703483581543,-0.32624086737633,0.58707928657532,5.36847352981567,-0.62297135591507,-2.30630207061768
315,1855998314,-18.41589164733887,-87.52250671386719,68.97328948974609,9.72384548187256,-0.26736286282539,0.60645496845245,6.09829425811768,-0.89006048440933,-2.53078436851501
316,1856014981,-17.94397544860840,-87.54991912841797,68.63000488281250,9.74889469146729,-0.26241081953049,0.61865627765656,7.57828044891357,-1.27802276611328,-2.53038144111633
317,1856031648,-17.44359588623047,-87.58144378662109,68.28820800781250,9.80048751831055,-0.08639388531446,0.59921914339066,9.31846714019775,-1.50627696514130,-2.57569742202759
318,1856048315,-16.93408393859863,-87.61730957031250,67.86734008789062,9.83019351959229,-0.00119574286509,0.62741631269455,5.40413999557495,-1.73060560226440,-2.81652021408081
319,1856064982,-16.38966369628906,-87.64781951904297,67.38395690917969,9.83948421478271,-0.10987477004528,0.55041712522507,3.75984191894531,-1.40569555759430,-2.84787011146545
320,1856081649,-15.78414058685303,-87.67931365966797,66.82362365722656,9.78171253204346,-0.19206757843494,0.56223851442337,2.72789359092712,-1.39959967136383,-3.01202154159546
321,1856098316,-15.16273975372314,-87.70603942871094,66.33359527587891,9.69047451019287,-0.51718699932098,0.47039359807968,7.97905540466309,-1.22866702079773,-2.74548983573914
322,1856114983,-14.35690212249756,-87.72840881347656,65.67134857177734,9.71831321716309,-0.07367501407862,0.43809121847153,8.88132190704346,-0.85690516233444,-3.04338526725769
323,1856131650,-13.43037033081055,-87.74814605712891,64.85210418701172,9.76195240020752,-0.04384471103549,0.52983778715134,6.06493520736694,-0.68426269292831,-3.37497997283936
324,1856148317,-12.53002548217773,-87.76261901855469,64.02696990966797,9.80160427093506,-0.05810702964664,0.55782806873322,3.95894289016724,-0.42029806971550,-3.29979348182678
325,1856164984,-11.63428974151611,-87.77331542968750,63.18648529052734,9.79619216918945,0.02058635838330,0.53149753808975,3.30467915534973,-0.20028492808342,-3.24778676033020
326,1856181651,-10.74375057220459,-87.78742218017578,62.29846954345703,9.75935173034668,0.00365538499318,0.48931857943535,0.03382156789303,-0.41085970401764,-3.38692712783813
327,1856198318,-9.85931968688965,-87.80233764648438,61.38153076171875,9.73497676849365,-0.03999487683177,0.54532903432846,-1.88603615760803,-0.46884691715240,-3.43510532379150
328,1856214985,-8.99680137634277,-87.81905364990234,60.46770477294922,9.73320674896240,-0.08684572577477,0.55179971456528,-3.08569669723511,-0.65626782178879,-3.43251824378967
329,1856231652,-8.10384464263916,-87.84006500244141,59.50992965698242,9.73910045623779,-0.04172182083130,0.58863019943237,-3.74017786979675,-0.88092964887619,-3.53111433982849
330,1856248319,-7.13723373413086,-87.86870574951172,58.46818923950195,9.75127887725830,0.03006828762591,0.59331136941910,-4.57974910736084,-1.39648759365082,-3.75681281089783
331,1856264986,-6.16319561004639,-87.90109252929688,57.38535690307617,9.79601955413818,-0.00450936332345,0.55717587471008,-6.72852802276611,-1.60794627666473,-3.81668329238892
332,1856281653,-5.08875846862793,-87.93408203125000,56.19918823242188,9.77464103698730,-0.16513562202454,0.57458829879761,-6.92005968093872,-1.67985415458679,-3.98447251319885
333,1856298320,-3.84519815444946,-87.96991729736328,54.87338256835938,9.73151969909668,-0.21873728930950,0.52998000383377,-4.86379384994507,-1.88960897922516,-4.21889257431030
334,1856314987,-2.47650885581970,-88.01120758056641,53.42017745971680,9.78309249877930,-0.03912401571870,0.55308043956757,-5.05585145950317,-2.25781750679016,-4.41435623168945
335,1856331654,-0.92957657575607,-88.05710601806641,51.77342987060547,9.74843406677246,-0.04347866028547,0.53207415342331,-5.86412477493286,-2.60383224487305,-4.70413827896118
336,1856348321,0.61756008863449,-88.10349273681641,50.13508987426758,9.71728706359863,-0.20675784349442,0.57038629055023,-5.37177181243896,-2.71710467338562,-4.53856468200684
337,1856364988,2.34013485908508,-88.15453338623047,48.37903976440430,9.72188091278076,-0.24585299193859,0.50759172439575,-1.83716702461243,-3.11466431617737,-4.60417127609253
338,1856381655,4.35477733612061,-88.21282958984375,46.35616683959961,9.76195716857910,-0.17607583105564,0.58825379610062,-0.17748960852623,-3.65212130546570,-4.89473438262939
339,1856398322,6.44506120681763,-88.26992034912109,44.29418563842773,9.79898643493652,-0.04476558789611,0.53814959526062,1.85403954982758,-3.69109153747559,-4.73053216934204
340,1856414989,8.86243820190430,-88.32591247558594,41.86500167846680,9.72358226776123,-0.07670233398676,0.42485770583153,-0.60825687646866,-3.84630417823792,-5.14037322998047
341,1856431656,11.56028270721436,-88.38021087646484,39.18143463134766,9.73692893981934,-0.07042553275824,0.47070258855820,1.05142700672150,-3.95168805122375,-5.29632902145386
342,1856448323,14.61226749420166,-88.43264770507812,36.14524841308594,9.76475906372070,0.02742827311158,0.52043288946152,1.02902889251709,-4.15670537948608,-5.56831121444702
343,1856464990,18.05805015563965,-88.48496246337891,32.70809173583984,9.78289127349854,-0.03021833486855,0.51422029733658,0.65818893909454,-4.55393934249878,-5.80919265747070
344,1856481657,22.03244781494141,-88.54142761230469,28.74649047851562,9.73774814605713,-0.08622106164694,0.51108634471893,1.01215004920959,-5.27008914947510,-6.04547548294067
345,1856498324,26.86392974853516,-88.60422515869141,23.94084739685059,9.68612766265869,-0.00954779330641,0.52232974767685,1.88734900951385,-6.37289619445801,-6.46524286270142
346,1856514991,32.61378479003906,-88.67013549804688,18.22082710266113,9.69084167480469,-0.01920692808926,0.54912918806076,1.95323801040649,-7.50450372695923,-6.68551254272461
347,1856531658,39.22055053710938,-88.73050689697266,11.66508007049561,9.76621150970459,0.01679933629930,0.50492578744888,3.30672836303711,-8.31382751464844,-6.67734098434448
348,1856548325,46.61806488037109,-88.77539062500000,4.32792377471924,9.79763698577881,0.15534235537052,0.33592736721039,3.65725207328796,-8.75490474700928,-6.77209758758545
349,1856564992,54.82881927490234,-88.79634857177734,-3.84418129920959,9.71146392822266,0.18318434059620,0.31376820802689,2.39113879203796,-9.20192432403564,-7.19911336898804
350,1856581659,63.36895751953125,-88.79277801513672,-12.37771224975586,9.74706649780273,0.07732436805964,0.33963337540627,0.21983391046524,-9.64740562438965,-7.16319084167480
351,1856598326,72.14265441894531,-88.76235961914062,-21.14591026306152,9.72772312164307,-0.03816863521934,0.33131298422813,-0.11732543259859,-10.29347419738770,-7.22015285491943
352,1856614993,81.05158233642578,-88.69689178466797,-29.99317359924316,9.70231342315674,0.04286276921630,0.38068503141403,3.27060294151306,-11.14503383636475,-7.66149997711182
353,1856631660,89.86847686767578,-88.59765625000000,-38.75506973266602,9.65319347381592,0.18610736727715,0.33855637907982,3.03159809112549,-12.45554733276367,-7.83858728408813
354,1856648327,98.15753936767578,-88.46290588378906,-47.00869369506836,9.62551784515381,0.15222784876823,0.32456609606743,2.00219798088074,-13.67676639556885,-8.01844120025635
355,1856664994,105.81149291992188,-88.29199981689453,-54.62076568603516,9.61848163604736,0.26853385567665,0.24838916957378,2.46352171897888,-15.09517288208008,-8.12977981567383
356,1856681661,112.61998748779297,-88.08490753173828,-61.41940307617188,9.76948356628418,0.21126000583172,0.22734938561916,0.48723730444908,-16.45314025878906,-8.23633575439453
357,1856698328,118.48318481445312,-87.84978485107422,-67.26679229736328,9.73569965362549,0.23909506201744,0.17198452353477,0.98692256212234,-17.39667129516602,-8.15186023712158
358,1856714995,123.62188720703125,-87.58443450927734,-72.39556121826172,9.69058895111084,0.21173314750195,0.12162354588509,0.51413726806641,-18.75114059448242,-8.16935443878174
359,1856731662,128.21325683593750,-87.28907012939453,-76.99239349365234,9.69366168975830,0.27903324365616,0.11687693744898,-0.09669449925423,-20.37604331970215,-8.02023983001709
360,1856748329,132.46777343750000,-86.95869445800781,-81.29487609863281,9.65179252624512,0.31443879008293,0.09426196664572,-2.75505471229553,-22.66407775878906,-7.64409446716309
361,1856764996,136.41522216796875,-86.58126831054688,-85.32015991210938,9.58604240417480,0.21998676657677,0.06092812120914,-4.31541776657104,-25.51301574707031,-7.60706853866577
362,1856781663,140.16139221191406,-86.14491271972656,-89.18309783935547,9.44127273559570,0.41656371951103,0.15318010747433,-6.59403610229492,-29.25710487365723,-7.43528747558594
363,1856798330,143.80725097656250,-85.61827087402344,-92.97335052490234,9.60571956634521,0.56296968460083,0.39130863547325,-8.10769844055176,-34.86870193481445,-7.60483026504517
364,1856814997,146.98681640625000,-85.04891967773438,-96.29054260253906,10.23414993286133,0.48502379655838,0.35485869646072,-7.57709598541260,-37.23337554931641,-7.12241697311401
365,1856831664,149.83779907226562,-84.44318389892578,-99.27099609375000,10.78337097167969,1.16190958023071,0.08592160046101,-6.97074747085571,-39.47340393066406,-6.17169046401978
366,1856848331,152.13661193847656,-83.80132293701172,-101.94368743896484,10.99659824371338,1.16917860507965,0.05045248568058,-21.53377151489258,-41.56875991821289,-5.41120529174805
367,1856864998,154.05607604980469,-83.14871215820312,-104.28808593750000,10.72964477539062,1.20062899589539,0.03232225030661,-24.54799652099609,-42.09382629394531,-4.57708549499512
368,1856881665,155.39489746093750,-82.49179840087891,-106.34528350830078,10.98861598968506,0.83318269252777,0.65971499681473,-42.10793685913086,-42.18655395507812,-4.00476932525635
369,1856898332,156.51866149902344,-81.82466125488281,-108.23755645751953,10.38154983520508,0.09564345330000,-0.05654704943299,-45.00443649291992,-42.82233428955078,-3.29699492454529
370,1856914999,157.56455993652344,-81.09691619873047,-109.88064575195312,10.74860000610352,0.22092388570309,0.09318479150534,-34.72169113159180,-45.89527130126953,-4.70090103149414
371,1856931666,158.38424682617188,-80.54707336425781,-111.04809570312500,11.10247707366943,-0.04914800450206,0.00755541771650,-19.94617843627930,-34.75543212890625,-3.17240071296692
372,1856948333,159.52821350097656,-80.06179809570312,-112.22434997558594,9.89541721343994,0.74987661838531,-1.05360269546509,-0.91631662845612,-31.44188880920410,-0.52550387382507
373,1856965000,160.47178649902344,-79.29133605957031,-113.52787017822266,9.84001255035400,0.77934426069260,-1.18398976325989,-20.31089019775391,-48.21849822998047,-3.80117917060852
374,1856981667,161.36843872070312,-78.38987731933594,-114.86305999755859,9.63292980194092,-0.58575993776321,-1.52635061740875,-24.77054786682129,-56.16052627563477,-4.18921709060669
375,1856998334,162.37553405761719,-77.57192230224609,-116.24988555908203,9.39534759521484,-0.70091718435287,-1.55090367794037,-20.94258880615234,-52.02388000488281,0.02832795679569
376,1857015001,163.08151245117188,-76.92518615722656,-117.61529541015625,9.11692142486572,-0.36705148220062,-0.32267493009567,-37.53091430664062,-42.42213439941406,4.57134246826172
377,1857031668,163.23948669433594,-76.55621337890625,-118.64984130859375,8.68042659759521,0.08441070467234,1.24321532249451,-50.92662048339844,-25.32347869873047,6.03050851821899
378,1857048335,162.84455871582031,-76.54138946533203,-119.26850891113281,8.25347423553467,0.44728288054466,2.31620049476624,-59.78548049926758,-3.39325141906738,6.81043148040771
379,1857065002,161.89668273925781,-76.87223052978516,-119.49195098876953,8.08377933502197,0.15380339324474,2.49408817291260,-69.91379547119141,17.94385719299316,7.75340986251831
380,1857081669,160.91633605957031,-77.56104278564453,-119.38073730468750,8.26771545410156,-0.15675126016140,2.01541686058044,-52.31747055053711,39.58134078979492,10.57403373718262
381,1857098336,159.65988159179688,-78.54010009765625,-118.84630584716797,8.60861396789551,0.35894113779068,2.02966213226318,-44.01737594604492,57.46923828125000,12.35115146636963
382,1857115003,158.13243103027344,-79.74784851074219,-117.73665618896484,8.77487945556641,0.43950963020325,0.99049520492554,-26.27219009399414,72.01757049560547,13.16541385650635
383,1857131670,156.08660888671875,-81.05205535888672,-115.97209167480469,9.28934478759766,0.80924105644226,-0.07298918813467,-18.37154579162598,78.84051513671875,12.93068504333496
384,1857148337,153.44174194335938,-82.39047241210938,-113.44338989257812,9.84863281250000,0.84731775522232,-0.77341014146805,-8.57113456726074,81.79959106445312,13.20570468902588
385,1857165004,149.89299011230469,-83.69065856933594,-109.93821716308594,9.85607719421387,1.62679612636566,-1.51102542877197,-4.18510389328003,80.57156372070312,13.28280067443848
386,1857181671,144.40026855468750,-84.96071624755859,-104.88550567626953,10.07081985473633,1.23103594779968,-1.64356279373169,-27.90472030639648,80.02217102050781,14.75849914550781
387,1857198338,136.59989929199219,-86.11808776855469,-97.07539367675781,9.85132217407227,2.07611703872681,-3.20152544975281,-0.82546997070312,76.44211578369141,14.47572040557861
388,1857215005,122.63909149169922,-87.00115203857422,-83.76743316650391,9.89302062988281,3.65816879272461,-1.10315871238708,-40.45125961303711,70.35478973388672,8.35793972015381
389,1857231672,102.14123535156250,-87.56233978271484,-63.56962966918945,9.14132404327393,2.06341743469238,-2.91358828544617,-18.94461631774902,65.88922119140625,7.08988094329834
390,1857248339,79.56568908691406,-87.60543060302734,-41.53212738037109,9.42408657073975,3.76175761222839,-2.01086425781250,-32.98666381835938,56.16365051269531,0.44029527902603
391,1857265006,62.64830017089844,-87.29267883300781,-25.14714813232422,9.55169963836670,1.99142694473267,-1.92907238006592,-32.74697875976562,47.68731689453125,-4.26279735565186
392,1857281673,51.59874725341797,-86.83956909179688,-14.34024143218994,9.32371997833252,0.82288658618927,-1.53276288509369,-15.41478919982910,42.63696289062500,-5.56961870193481
393,1857298340,44.51325607299805,-86.35787963867188,-7.13370943069458,9.03004169464111,0.27289229631424,-1.06391930580139,6.45025968551636,38.33827972412109,-5.25269937515259
394,1857315007,39.99824905395508,-85.90729522705078,-2.12813925743103,9.29125785827637,-0.12447135150433,-0.85777765512466,28.69480705261230,33.54991531372070,-4.17783212661743
395,1857331674,36.93904495239258,-85.49337005615234,1.61049091815948,9.48801898956299,-0.03273041546345,-0.19867382943630,40.09489059448242,29.84224510192871,-3.34258246421814
396,1857348341,34.04994201660156,-85.08856964111328,5.33058547973633,9.66868972778320,-0.74578738212585,0.40093836188316,49.07074356079102,30.35529136657715,-0.26069554686546
397,1857365008,31.40079498291016,-84.63224792480469,9.11833763122559,9.46229934692383,0.02198408916593,0.86857765913010,67.37288665771484,33.97959136962891,1.23841166496277
398,1857381675,29.17799568176270,-84.12821197509766,12.46293258666992,9.64709186553955,0.77992182970047,1.48196613788605,66.31401824951172,35.95986938476562,0.61549824476242
399,1857398342,26.97697257995605,-83.55481719970703,15.68673133850098,9.76680278778076,0.72188913822174,1.88472282886505,60.21301651000977,40.05234909057617,1.00899243354797
400,1857415009,24.83138275146484,-82.90374755859375,18.74490737915039,9.69207000732422,0.65423792600632,1.82309401035309,53.43426895141602,44.50778961181641,1.28387117385864
401,1857431676,22.91561126708984,-82.19520568847656,21.48086929321289,9.77467155456543,0.62150526046753,1.49756562709808,47.79090881347656,47.41759490966797,1.13603091239929
402,1857448343,21.28799629211426,-81.47239685058594,23.77551651000977,9.72820377349854,0.54102915525436,1.22876608371735,38.59228515625000,47.47396469116211,0.66866677999496
403,1857465010,19.89570617675781,-80.78592681884766,25.68519592285156,9.66644287109375,0.32689923048019,1.13966155052185,29.65109825134277,44.71967315673828,0.91080957651138
404,1857481677,18.75496101379395,-80.15839385986328,27.27670860290527,9.81290054321289,0.11985234916210,1.19941377639771,25.70531845092773,40.70891189575195,1.30792307853699
405,1857498344,17.74711990356445,-79.58676910400391,28.71295166015625,10.13024139404297,0.23856598138809,1.40518796443939,24.34940338134766,37.28666305541992,2.49299764633179
406,1857515011,16.74511718750000,-79.08128356933594,30.04517555236816,10.06806468963623,0.54627847671509,1.61627638339996,18.41593742370605,33.31511306762695,3.98193073272705
407,1857531678,15.70949363708496,-78.66339111328125,31.25397872924805,9.99673652648926,0.70616775751114,1.58871161937714,9.01425075531006,27.95685958862305,5.27500295639038
408,1857548345,14.64397335052490,-78.35684967041016,32.31546020507812,9.81483936309814,0.45527261495590,1.56371760368347,-1.52447688579559,21.05395698547363,6.26787376403809
409,1857565012,13.67840576171875,-78.17600250244141,33.20483779907227,9.85021305084229,0.38191825151443,1.52000188827515,-5.68968677520752,13.16435623168945,6.70430278778076
410,1857581679,12.86847972869873,-78.12429809570312,33.86189270019531,10.03334045410156,0.40811184048653,1.52371370792389,-10.01565933227539,4.86803531646729,6.00059127807617
411,1857598346,12.21973991394043,-78.17877960205078,34.30853271484375,9.95033359527588,0.51710850000381,1.51555550098419,-12.70093441009521,-2.00671768188477,4.91339588165283
412,1857615013,11.56162643432617,-78.33059692382812,34.65177536010742,9.60412883758545,0.69330275058746,1.88568234443665,-19.31851387023926,-8.04789543151855,4.80988740921021
413,1857631680,10.80579662322998,-78.54353332519531,35.00229263305664,8.79545211791992,0.86429905891418,1.95815777778625,-24.74444389343262,-11.71403884887695,5.44275856018066
414,1857648347,9.99199581146240,-78.81478881835938,35.31499099731445,7.76266574859619,1.02151203155518,1.86961829662323,-30.42480850219727,-15.33639240264893,5.39048433303833
415,1857665014,9.29038906097412,-79.17411041259766,35.53335189819336,5.86147880554199,0.62432157993317,1.67428481578827,-29.22877693176270,-20.82543945312500,4.90484142303467
416,1857681681,9.10895061492920,-79.65203857421875,35.64173889160156,2.64199900627136,0.36422261595726,1.59511470794678,-4.48253631591797,-28.10153388977051,4.59201192855835
417,1857698348,9.76422309875488,-80.22106933593750,35.51576232910156,-1.16741061210632,1.21942389011383,2.21279287338257,31.90001296997070,-33.87339019775391,3.12099528312683
418,1857715015,11.26149845123291,-80.85573577880859,34.86045837402344,-2.70841336250305,2.52792930603027,2.92202115058899,51.08486175537109,-38.59397888183594,-0.58345937728882
419,1857731682,13.45276737213135,-81.57976531982422,33.51662826538086,-0.74243724346161,1.89665555953979,2.60877418518066,51.82989120483398,-45.04361724853516,-3.90844726562500
420,1857748349,16.49383735656738,-82.39339447021484,31.45965003967285,2.01747012138367,1.76327538490295,1.72995448112488,60.31060028076172,-51.55644989013672,-5.19858455657959
421,1857765016,20.24058151245117,-83.31126403808594,28.38033676147461,2.85468268394470,2.13949966430664,0.85979133844376,41.55436706542969,-59.43750762939453,-5.67674446105957
422,1857781683,24.73543739318848,-84.35583496093750,24.06472396850586,1.53560459613800,1.48144972324371,0.26348409056664,12.35564994812012,-68.41976928710938,-2.98512792587280
423,1857798350,30.13713836669922,-85.41567993164062,18.27351570129395,0.30315884947777,0.47480568289757,0.80144876241684,-21.85588836669922,-70.53078460693359,0.47641173005104
424,1857815017,35.59140396118164,-86.21509552001953,12.19940853118896,-0.81348860263824,-0.69853132963181,1.69630706310272,-36.06073379516602,-54.54805755615234,2.29555344581604
425,1857831684,38.11722183227539,-86.52893066406250,8.99693584442139,-1.36124873161316,0.24353095889091,2.78238129615784,-40.15225219726562,-22.33493041992188,0.29130819439888
426,1857848351,36.64191436767578,-86.42269897460938,9.22399139404297,1.13515532016754,-0.65923506021500,3.49550843238831,-74.96904754638672,5.52242565155029,-4.33102035522461
427,1857865018,34.81398010253906,-86.11067962646484,9.74334049224854,4.37061214447021,-4.04941225051880,3.45003128051758,-78.69498443603516,16.25182151794434,-10.36147308349609
428,1857881685,36.61045455932617,-85.87407684326172,7.41464853286743,4.99813652038574,-7.24090576171875,3.99822115898132,-31.63968086242676,5.71233081817627,-17.39066696166992
429,1857898352,41.34111404418945,-85.80596160888672,3.62789034843445,3.73725628852844,-7.37890148162842,5.33372926712036,57.21728897094727,-7.30530834197998,-16.60193824768066
430,1857915019,47.51662826538086,-85.86824798583984,-1.10636878013611,1.70438802242279,-4.96673107147217,7.13554763793945,87.24303436279297,-17.20726966857910,-13.37387275695801
431,1857931686,51.61443710327148,-85.87355804443359,-3.44468450546265,0.05729161575437,-8.39633941650391,5.88758754730225,105.95355987548828,-7.99226999282837,-7.53219604492188
432,1857948353,54.07431411743164,-86.44218444824219,-2.55541563034058,8.05351066589355,-9.05799102783203,-42.01224136352539,201.00654602050781,-17.70276641845703,28.04485130310059
433,1857965020,161.80490112304688,-82.02455139160156,-108.52140808105469,9.09516525268555,1.08711564540863,-68.86554718017578,118.63354492187500,-575.95190429687500,17.95722198486328
434,1857981687,171.24150085449219,-78.50162506103516,-114.29506683349609,40.18192672729492,-5.18572711944580,61.68414688110352,224.58483886718750,-218.70593261718750,6.62693071365356
435,1857998354,177.98223876953125,-72.97403717041016,-115.60491180419922,111.73900604248047,19.09287452697754,-12.82901954650879,327.98922729492188,-331.91482543945312,-13.08074951171875
436,1858015021,170.62704467773438,-66.58759307861328,-116.13373565673828,-8.59515190124512,6.89176750183105,-2.85908746719360,-470.54949951171875,-382.51870727539062,-28.33273506164551
437,1858031688,176.13565063476562,-63.60312652587891,-116.97745513916016,-20.99916648864746,5.12693214416504,-3.78852796554565,284.51129150390625,-180.26318359375000,-0.64508962631226
438,1858048355,173.37414550781250,-60.19805145263672,-117.65588378906250,7.31233215332031,-8.19914054870605,-20.41065406799316,-201.52517700195312,-205.10482788085938,-0.75621134042740
439,1858065022,172.21046447753906,-58.19712066650391,-117.20346832275391,16.30557823181152,7.42921733856201,-5.82271766662598,-46.49139404296875,-117.24615478515625,-30.04000282287598
440,1858081689,172.18203735351562,-56.69217681884766,-117.26213836669922,8.18827629089355,3.67522239685059,-8.25221920013428,-4.66824817657471,-89.60347747802734,-11.55878925323486
441,1858098356,171.81373596191406,-55.63728332519531,-117.96952819824219,9.77797222137451,5.39891195297241,-9.93358993530273,-57.34574890136719,-65.85457611083984,13.42131996154785
442,1858115023,171.57653808593750,-55.15827941894531,-118.25984954833984,13.86638069152832,5.29956865310669,-9.98187732696533,-28.56118011474609,-29.75734138488770,4.47203016281128
443,1858131690,172.00170898437500,-55.25032806396484,-118.72251129150391,11.76346206665039,2.92958903312683,-9.99442863464355,2.72213292121887,3.31119966506958,15.30903053283691
444,1858148357,173.00010681152344,-55.85213470458984,-119.26642608642578,10.01239109039307,3.48374581336975,-10.35927295684814,32.99339675903320,33.49261856079102,21.86046218872070
445,1858165024,174.13636779785156,-57.13631057739258,-119.95722198486328,12.06764507293701,2.26934266090393,-10.92753887176514,33.61935424804688,74.10608673095703,30.21352577209473
446,1858181691,175.51197814941406,-59.06460189819336,-120.62219238281250,13.14050579071045,0.95588171482086,-11.92643070220947,48.65418624877930,113.41959381103516,30.28758239746094
447,1858198358,176.81616210937500,-62.02817153930664,-121.27134704589844,16.41576004028320,2.63556265830994,-11.28584480285645,44.31021881103516,176.22442626953125,29.86021423339844
448,1858215025,177.76240539550781,-66.63034820556641,-122.01324462890625,23.01900482177734,5.21013784408569,-11.62408924102783,16.59636497497559,274.97445678710938,31.18807220458984
449,1858231692,176.24707031250000,-73.14827728271484,-121.42621612548828,35.40788269042969,9.60290336608887,-8.84434127807617,-57.77574539184570,391.19781494140625,7.20744371414185
450,1858248359,163.81257629394531,-81.62414550781250,-111.40142822265625,48.23121643066406,10.00401496887207,-4.67580223083496,-157.27023315429688,521.58679199218750,-42.81455993652344
451,1858265026,68.23882293701172,-85.48594665527344,-19.30908203125000,44.28733825683594,6.56654739379883,0.99565458297729,-227.27131652832031,571.57244873046875,-101.46009063720703
452,1858281693,25.54773139953613,-83.07562255859375,16.01447486877441,-0.40776991844177,-30.68191719055176,-55.11770248413086,-451.51815795898438,246.44664001464844,40.98863983154297
453,1858298360,17.79345893859863,-84.32266998291016,18.51643180847168,-18.93211936950684,13.17679977416992,5.66798019409180,-315.98919677734375,-63.17744827270508,41.77213287353516
454,1858315027,49.64474487304688,-87.45616912841797,-18.93490791320801,8.02127552032471,-27.11083030700684,-14.69966316223145,-330.90887451171875,-235.63778686523438,-35.19921493530273
455,1858331694,118.49703216552734,-86.85440063476562,-84.79943847656250,1.45498204231262,-5.66801881790161,6.59543752670288,182.12738037109375,-183.21940612792969,-50.31696319580078
456,1858348361,149.21157836914062,-85.13732147216797,-109.12792968750000,4.40890455245972,-3.92128705978394,10.08945274353027,386.17871093750000,-142.68280029296875,-2.97642445564270
457,1858365028,156.01962280273438,-84.24613189697266,-109.30725097656250,1.29512774944305,11.62944984436035,17.10008430480957,397.73608398437500,-47.69993209838867,-24.84597015380859
458,1858381695,153.03506469726562,-84.76927947998047,-102.57796478271484,2.37948369979858,8.38474845886230,8.75550365447998,222.78778076171875,44.97613525390625,-22.69464302062988
459,1858398362,141.06353759765625,-85.85811614990234,-91.36764526367188,0.40762597322464,8.70831394195557,10.85558795928955,-47.83595657348633,84.42017364501953,-12.12399291992188
460,1858415029,117.93119812011719,-86.90377044677734,-71.25003051757812,-0.76624757051468,4.09904146194458,5.69651603698730,-182.88259887695312,97.99954986572266,-2.31007170677185
461,1858431696,87.35006713867188,-87.48013305664062,-44.53060913085938,-0.98535245656967,-0.83687508106232,2.44977831840515,-232.90562438964844,84.13764953613281,14.12319564819336
462,1858448363,58.84399414062500,-87.63710784912109,-18.67034721374512,-1.19903862476349,-3.70561504364014,-1.21692550182343,-159.63314819335938,61.05726623535156,26.78897857666016
463,1858465030,38.18002319335938,-87.58467864990234,0.53284788131714,-0.88644105195999,-0.37754356861115,0.62633121013641,-88.49458312988281,38.46977615356445,28.67140579223633
464,1858481697,27.25752830505371,-87.15036773681641,11.07761764526367,0.09052392840385,0.31204637885094,1.55542838573456,-23.49310493469238,37.54928207397461,9.68434619903564
465,1858498364,23.93655967712402,-86.48865509033203,15.49610424041748,0.95118641853333,-0.77346402406693,0.90653419494629,65.26921844482422,42.01076126098633,-4.80022907257080
466,1858515031,23.40964508056641,-85.80184936523438,17.76599884033203,1.12503695487976,0.71985018253326,1.32855021953583,104.14409637451172,41.32236862182617,-9.18161392211914
467,1858531698,24.07794761657715,-85.09428405761719,18.49151802062988,1.03634059429169,2.94158840179443,2.11671948432922,83.38774871826172,40.19542312622070,-15.00909709930420
468,1858548365,24.62463569641113,-84.41040039062500,18.44384956359863,1.04184699058533,1.72910237312317,1.07796180248260,29.86435699462891,37.25560760498047,-18.26133155822754
469,1858565032,23.90691375732422,-83.77792358398438,19.17492675781250,0.61349439620972,-0.31694152951241,0.14155942201614,0.50326651334763,36.47709274291992,-12.58902168273926
470,1858581699,21.92783546447754,-83.19467926025391,20.84480476379395,0.09131184220314,-0.50132280588150,-0.17363506555557,-19.25868988037109,36.69935989379883,-4.26160812377930
471,1858598366,19.24058151245117,-82.65660858154297,22.98341178894043,0.10367337614298,-0.53201436996460,-0.40179774165154,-33.94559478759766,35.82987976074219,2.33738994598389
472,1858615033,16.42331504821777,-82.16318511962891,25.17134475708008,-0.14447523653507,-0.25640740990639,0.00883208401501,-38.95429611206055,33.55251312255859,6.32568597793579
473,1858631700,14.01176071166992,-81.66591644287109,27.16758155822754,-0.31126990914345,-0.75122714042664,0.41776657104492,-26.15007209777832,33.27169799804688,7.30298328399658
474,1858648367,12.73019123077393,-81.09217071533203,28.51550292968750,-0.21336641907692,-0.34013381600380,0.80768918991089,3.03103399276733,36.35457992553711,2.70158910751343
475,1858665034,12.51644039154053,-80.53090667724609,29.05287933349609,-0.18972556293011,-0.22898709774017,0.92343890666962,18.97774124145508,34.05197143554688,-3.47835731506348
476,1858681701,13.23063468933105,-80.03517913818359,28.97453689575195,-0.38553005456924,0.45954272150993,-0.06392307579517,38.19779968261719,28.88632774353027,-8.54998779296875
477,1858698368,13.97909450531006,-79.77565002441406,28.53106307983398,-0.58514684438705,0.41158291697502,-0.67170119285583,18.69853401184082,14.11992263793945,-9.34997463226318
478,1858715035,14.95018291473389,-79.74662017822266,27.78672981262207,-0.44306781888008,-0.79940718412399,-1.06704032421112,14.31256294250488,-0.20321136713028,-9.27922058105469
479,1858731702,16.31445884704590,-79.94828796386719,26.62910842895508,-0.37963077425957,-0.27368581295013,-0.53613752126694,13.48906707763672,-14.84849548339844,-9.69510746002197
480,1858748369,18.12275886535645,-80.34942626953125,25.00746917724609,-0.58379369974136,-0.66201591491699,-0.60759609937668,12.64416503906250,-27.80675315856934,-9.94669628143311
481,1858765036,20.65515899658203,-80.94071197509766,22.48540115356445,0.01457290537655,1.19533503055573,-0.34653267264366,2.65606713294983,-41.50012588500977,-12.61165523529053
482,1858781703,23.51133155822754,-81.74493408203125,19.03233337402344,0.41073790192604,1.47006678581238,-1.02076137065887,-33.42995071411133,-56.28788757324219,-11.96197128295898
483,1858798370,29.54004859924316,-84.59449005126953,14.52654170989990,8.02383232116699,-2.91338253021240,-76.27089691162109,93.41722869873047,-166.87533569335938,46.21928024291992
484,1858815037,157.73031616210938,-84.06165313720703,-117.08957672119141,51.64558792114258,-41.46605300903320,6.27983236312866,-193.41600036621094,-621.77856445312500,25.29691886901855
485,1858831704,170.66677856445312,-82.14032745361328,-121.91815185546875,25.43118858337402,8.81127357482910,52.33100509643555,488.46240234375000,-120.11372375488281,0.98906475305557
486,1858848371,172.78474426269531,-77.97198486328125,-117.58199310302734,102.95407104492188,35.16540145874023,23.12462234497070,383.43197631835938,-240.65803527832031,-81.69548034667969
487,1858865038,170.29447937011719,-73.82144165039062,-119.27552795410156,14.27957344055176,-6.95728778839111,-34.13014221191406,-247.81794738769531,-249.77871704101562,-13.30102634429932
488,1858881705,169.69662475585938,-72.03464508056641,-119.63502502441406,-11.03229904174805,6.48734235763550,-8.44728565216064,-56.46532440185547,-106.53947448730469,-13.55821609497070
489,1858898372,171.91320800781250,-72.26556396484375,-121.58161926269531,-26.53497123718262,-0.36943128705025,-16.97890472412109,21.81628227233887,8.05367088317871,36.39772796630859
490,1858915039,173.63163757324219,-74.22659301757812,-126.39341735839844,11.86615276336670,4.06154489517212,-9.04518985748291,-173.38175964355469,106.23838806152344,96.20595550537109
491,1858931706,176.91294860839844,-76.79248809814453,-130.95921325683594,21.45502853393555,-1.60413789749146,-5.57906103134155,-68.45015716552734,147.70231628417969,79.85327148437500
492,1858948373,-179.88020324707031,-78.56501007080078,-133.94105529785156,10.37278270721436,3.06879925727844,-4.98321533203125,17.55762863159180,105.34252166748047,39.78096771240234
493,1858965040,-177.86073303222656,-80.08824920654297,-136.81871032714844,7.28388023376465,0.02245450578630,-2.81996345520020,-48.55933380126953,92.01760101318359,29.04467010498047
494,1858981707,-175.59506225585938,-81.62487030029297,-139.95683288574219,8.78618526458740,-2.82769274711609,-1.87189137935638,-50.02548599243164,93.73780059814453,23.49419212341309
495,1858998374,-174.23623657226562,-83.27279663085938,-141.93830871582031,13.60505676269531,-3.74032855033875,-1.91076815128326,-36.43024826049805,99.82093048095703,5.68770647048950
496,1859015041,-174.18249511718750,-84.96405792236328,-141.86830139160156,9.44883346557617,-2.90588474273682,-1.81793034076691,7.22523355484009,100.78076171875000,-11.78724479675293
497,1859031708,-174.78349304199219,-86.54515075683594,-141.36424255371094,7.82634067535400,-1.09616518020630,1.85481929779053,-6.19807338714600,93.88262939453125,-12.45901489257812
498,1859048375,-172.38578796386719,-88.00129699707031,-143.37036132812500,10.26635932922363,1.24180543422699,4.78314876556396,22.87708282470703,86.56036376953125,-5.02660894393921
499,1859065042,-155.89227294921875,-89.26378631591797,-159.51248168945312,8.94891452789307,0.98232787847519,1.49087643623352,18.70971679687500,75.33242797851562,2.69433379173279
500,1859081709,-54.34797286987305,-89.63577270507812,99.41195678710938,8.51704025268555,0.80441021919250,1.33970427513123,34.22576522827148,64.59527587890625,4.53811788558960
501,1859098376,-23.67322158813477,-88.68716430664062,68.97791290283203,8.58613586425781,-0.21269012987614,2.02247667312622,14.96894168853760,56.54935073852539,5.78257942199707
502,1859115043,-17.50564956665039,-88.01909637451172,62.88957595825195,8.91723155975342,0.09796674549580,2.39382934570312,4.43600416183472,40.29109573364258,2.36241388320923
503,1859131710,-15.12243652343750,-87.60150909423828,60.21623229980469,8.99623870849609,-1.76835227012634,2.48613500595093,-17.48604583740234,25.50101089477539,-0.23267292976379
504,1859148377,-12.01819992065430,-87.34539031982422,57.39704513549805,9.34228706359863,-1.91164100170135,1.25356590747833,17.19528579711914,16.62907791137695,-4.95020866394043
505,1859165044,-8.82376194000244,-87.12819671630859,54.63550949096680,9.86746597290039,-0.33479207754135,0.79069417715073,26.14725112915039,14.26572513580322,-6.77438926696777
506,1859181711,-6.24249982833862,-86.92955017089844,52.29802703857422,10.19245529174805,1.11477148532867,1.83311760425568,14.76459598541260,12.75571441650391,-6.90012264251709
507,1859198378,-4.77746677398682,-86.69951629638672,51.05136108398438,10.26630115509033,-0.11986098438501,0.04414252191782,13.15985393524170,14.13664627075195,-4.02755069732666
508,1859215045,-3.64265465736389,-86.37096405029297,50.29872512817383,10.24263191223145,0.81588464975357,-0.74415749311447,22.94902610778809,19.84709930419922,-2.47438001632690
509,1859231712,-3.23235750198364,-85.99121856689453,49.99656677246094,10.18424320220947,1.21678555011749,-0.05553437396884,6.43948030471802,22.79383468627930,-1.02574574947357
510,1859248379,-3.48573923110962,-85.58847045898438,50.16270828247070,9.79310131072998,0.63498997688293,0.60794359445572,-5.33758926391602,24.08266067504883,0.97397613525391
511,1859265046,-4.12543869018555,-85.20924377441406,50.47460556030273,9.70839977264404,0.37876421213150,1.33974695205688,-19.80319786071777,22.62091827392578,1.83901655673981
512,1859281713,-4.41210699081421,-84.91358184814453,50.52793502807617,9.57767009735107,-0.25523799657822,1.61642622947693,-14.05432128906250,17.72426223754883,0.42462086677551
513,1859298380,-4.47545480728149,-84.65361022949219,50.45103073120117,9.65069293975830,-0.28730127215385,1.14306771755219,-8.43321418762207,15.64124298095703,-0.38227629661560
514,1859315047,-4.42650651931763,-84.41847229003906,50.21193313598633,9.93389320373535,0.29802891612053,1.44914829730988,-11.37782192230225,14.23482513427734,-1.44164454936981
515,1859331714,-4.76652574539185,-84.15615081787109,50.31664276123047,9.70242595672607,0.02272373251617,0.43444919586182,-14.17318439483643,15.71917724609375,0.71864217519760
516,1859348381,-5.07135486602783,-83.89305114746094,50.33553314208984,9.88317203521729,0.34242242574692,1.09637010097504,-17.20138549804688,15.77773189544678,0.29919531941414
517,1859365048,-5.42715835571289,-83.66036224365234,50.49824905395508,9.54171180725098,-0.36841687560081,1.15208745002747,-11.66199398040771,13.89117813110352,1.16525113582611
518,1859381715,-5.66212415695190,-83.47435760498047,50.66122055053711,9.64463138580322,-0.43042880296707,1.75991594791412,-4.40405416488647,11.08021831512451,1.00175786018372
519,1859398382,-5.76599597930908,-83.34946441650391,50.77548217773438,9.58199977874756,-0.48062554001808,1.95841133594513,0.55837625265121,7.46417665481567,0.35994175076485
520,1859415049,-5.67054986953735,-83.26847839355469,50.69952774047852,9.48411655426025,-0.68569892644882,1.71103739738464,1.19571614265442,4.98560237884521,-1.21193540096283
521,1859431716,-5.27626848220825,-83.25447845458984,50.36528396606445,9.59486293792725,-0.55203503370285,1.79749095439911,3.74421238899231,1.17231261730194,-3.43249893188477
522,1859448383,-4.75907373428345,-83.29557037353516,49.88324737548828,9.62740802764893,-0.13217273354530,1.95983004570007,2.30388164520264,-2.06212949752808,-4.76520442962646
523,1859465050,-4.32720994949341,-83.38265991210938,49.46107864379883,9.61057376861572,-0.03827814012766,1.35892975330353,0.76487851142883,-4.85361957550049,-4.51256084442139
524,1859481717,-3.89593267440796,-83.48753356933594,49.01641082763672,9.84864139556885,0.00450734468177,1.18461084365845,-0.62680691480637,-5.94811534881592,-4.66617393493652
525,1859498384,-3.47140598297119,-83.58418273925781,48.61813354492188,9.88624668121338,0.17158330976963,1.22948777675629,1.74091446399689,-5.48604869842529,-4.22659492492676
526,1859515051,-3.16321110725403,-83.65424346923828,48.28682708740234,9.88333225250244,0.08478952944279,1.02440464496613,-1.26663136482239,-3.96464776992798,-3.62238526344299
527,1859531718,-2.88812851905823,-83.68016052246094,48.00340270996094,9.89378356933594,0.13685679435730,0.76508635282516,-0.39834788441658,-1.34792590141296,-3.12659978866577
528,1859548385,-2.62492275238037,-83.67783355712891,47.74410247802734,9.79847145080566,0.18194931745529,0.90401560068130,0.33042946457863,0.33115941286087,-2.87445569038391
529,1859565052,-2.45392417907715,-83.67478942871094,47.52958679199219,9.86486244201660,-0.05695252865553,1.27543449401855,-2.53212928771973,0.35062509775162,-2.57705378532410
530,1859581719,-2.26513457298279,-83.68028259277344,47.34661865234375,9.77518939971924,-0.25353813171387,1.45378136634827,0.41160890460014,-0.17497956752777,-2.39177131652832
531,1859598386,-1.93914067745209,-83.70331573486328,47.12936782836914,9.73000717163086,-0.08793120086193,1.23596417903900,6.60538148880005,-1.21861386299133,-2.65205454826355
532,1859615053,-1.57391130924225,-83.74063110351562,46.80629730224609,9.78554058074951,-0.01638320647180,1.26125872135162,2.64823174476624,-2.06406354904175,-3.35934925079346
533,1859631720,-1.22257959842682,-83.78520965576172,46.39729690551758,9.84893512725830,0.35423150658607,1.48802363872528,-3.31060838699341,-2.49385762214661,-3.90391373634338
534,1859648387,-0.94448477029800,-83.83203887939453,45.98501586914062,9.86398983001709,0.22993208467960,1.24657845497131,-7.90529108047485,-2.65010166168213,-3.89220261573792
535,1859665054,-0.75136482715607,-83.88477325439453,45.57704544067383,9.79434585571289,0.10852307826281,1.13200759887695,-12.74561119079590,-3.01067900657654,-3.83711147308350
536,1859681721,-0.49721083045006,-83.94754791259766,45.09116744995117,9.74747943878174,0.08320263773203,1.31337368488312,-13.73947715759277,-3.61981368064880,-4.30380153656006
537,1859698388,-0.30423590540886,-84.01300048828125,44.60930633544922,9.82791614532471,0.04139783605933,1.35127294063568,-17.16579818725586,-3.78322339057922,-4.23293209075928
538,1859715055,-0.29730215668678,-84.05485534667969,44.22586822509766,9.85408210754395,0.28037288784981,1.09438240528107,-22.46881294250488,-2.39227533340454,-3.57699251174927
539,1859731722,-0.29003319144249,-84.08878326416016,43.85915374755859,9.70382213592529,-0.07434196770191,0.88717669248581,-21.45501518249512,-1.91792678833008,-3.45522904396057
540,1859748389,-0.14246363937855,-84.11457061767578,43.51428985595703,9.79588031768799,0.00214275601320,1.01305639743805,-11.72517299652100,-1.42608380317688,-3.30370020866394
541,1859765056,0.02221230417490,-84.15126037597656,43.16824722290039,9.72400283813477,0.18044647574425,1.26151287555695,-10.77969837188721,-2.09438991546631,-3.29694485664368
542,1859781723,0.22501768171787,-84.20566558837891,42.77690887451172,9.77591133117676,-0.06770614534616,1.32101547718048,-11.18718433380127,-3.15740704536438,-3.54623341560364
543,1859798390,0.49276566505432,-84.25342559814453,42.40014266967773,9.80048274993896,0.09460097551346,0.88882112503052,-6.42907047271729,-2.77905511856079,-3.42764568328857
544,1859815057,0.89294087886810,-84.29954528808594,41.87005233764648,9.89148235321045,0.29161342978477,0.74402785301208,-7.63110065460205,-2.68827080726624,-4.31269311904907
545,1859831724,1.45723462104797,-84.34781646728516,41.22937011718750,9.88172912597656,0.17381060123444,0.78226572275162,-4.38797426223755,-2.85698819160461,-4.91802930831909
546,1859848391,2.14606332778931,-84.41875457763672,40.49303817749023,9.78460121154785,0.18665054440498,0.85371333360672,-2.62770295143127,-4.26750469207764,-5.36716079711914
547,1859865058,2.95715188980103,-84.52310943603516,39.66069030761719,9.66839504241943,0.03876974061131,0.88406658172607,-1.03733384609222,-6.35859060287476,-5.70806694030762
548,1859881725,3.96793770790100,-84.66946411132812,38.65882492065430,9.65504360198975,0.04783869162202,1.11452543735504,0.82440268993378,-8.97422027587891,-6.30383872985840
549,1859898392,5.02999877929688,-84.84371948242188,37.63809967041016,9.75604057312012,0.04874641075730,1.33116173744202,2.76076197624207,-10.72437667846680,-5.94345569610596
550,1859915059,5.89116859436035,-84.99007415771484,36.82116317749023,9.97635078430176,0.12156239897013,1.31889581680298,2.86291861534119,-9.03141307830811,-4.66954278945923
551,1859931726,6.42607069015503,-85.05565643310547,36.28245544433594,9.77773666381836,0.27255120873451,0.94395446777344,-0.10152876377106,-4.09931325912476,-3.54326105117798
552,1859948393,6.96189260482788,-85.12339782714844,35.72030639648438,9.71967411041260,0.19084815680981,1.00559520721436,-1.44383263587952,-4.25499296188354,-3.57106971740723
553,1859965060,7.51186084747314,-85.20335388183594,35.18532943725586,9.73360824584961,0.02476859837770,1.08660519123077,1.02623689174652,-4.97778367996216,-3.25817298889160
554,1859981727,8.13616943359375,-85.28540802001953,34.65357208251953,9.76443958282471,0.21412079036236,0.90828227996826,5.67551946640015,-5.11801385879517,-3.12776589393616
555,1859998394,8.82436275482178,-85.37403106689453,34.02393722534180,9.77702236175537,0.37469840049744,0.80250483751297,3.65515112876892,-5.58598423004150,-3.43860197067261
556,1860015061,9.60344123840332,-85.47342681884766,33.25671386718750,9.77839756011963,0.23347343504429,1.03172397613525,0.86821955442429,-6.35766267776489,-3.85320138931274
557,1860031728,10.39703750610352,-85.57605743408203,32.51084518432617,9.78586292266846,0.04115847498178,1.03473401069641,3.02569937705994,-6.53777027130127,-3.55403161048889
558,1860048395,11.20776748657227,-85.66758728027344,31.78354454040527,9.83266067504883,0.27448442578316,0.90199047327042,5.14874887466431,-5.89139556884766,-3.42767143249512
559,1860065062,12.01944541931152,-85.75112152099609,31.00113296508789,9.78531074523926,0.34431409835815,0.87233716249466,1.90444540977478,-5.49682569503784,-3.61531639099121
560,1860081729,12.79414367675781,-85.82500457763672,30.21387100219727,9.74382209777832,0.21344764530659,0.88649082183838,-0.60778939723969,-4.95169019699097,-3.62272477149963
561,1860098396,13.50642299652100,-85.89506530761719,29.49978828430176,9.81098079681396,0.16941034793854,0.89295524358749,0.01039235293865,-4.68156671524048,-3.23907208442688
562,1860115063,14.22170352935791,-85.95513916015625,28.81371688842773,9.77662467956543,0.34732863306999,0.78349781036377,1.86861956119537,-4.08736515045166,-3.15937805175781
563,1860131730,14.94054031372070,-86.01601409912109,28.06878280639648,9.76070785522461,0.23630963265896,0.85462504625320,-1.44097054004669,-4.19683313369751,-3.29687952995300
564,1860148397,15.62766742706299,-86.07743835449219,27.39982223510742,9.80094051361084,0.12223309278488,0.97963225841522,1.20270192623138,-4.16404914855957,-2.88256859779358
565,1860165064,16.32814216613770,-86.13294982910156,26.77787971496582,9.83099460601807,0.28871619701385,0.85777932405472,4.80199050903320,-3.79012918472290,-2.70222949981689
566,1860181731,17.03393173217773,-86.19126129150391,26.09710121154785,9.75725364685059,0.36163994669914,0.72092312574387,1.60530817508698,-4.02457523345947,-2.79845666885376
567,1860198398,17.77128219604492,-86.24960327148438,25.38804626464844,9.71554565429688,0.24285481870174,0.69050538539886,1.80840396881104,-4.05443906784058,-2.81699991226196
568,1860215065,18.51578903198242,-86.30869293212891,24.68346405029297,9.73827743530273,0.23563878238201,0.83662533760071,2.50047206878662,-4.10211753845215,-2.69079351425171
569,1860231732,19.26679611206055,-86.36563110351562,24.00495910644531,9.85675334930420,0.19865088164806,0.84990191459656,4.45533609390259,-3.94766020774841,-2.54530096054077
570,1860248399,20.00806236267090,-86.41603088378906,23.35865020751953,9.80061626434326,0.43274879455566,0.64345282316208,5.78487825393677,-3.55499172210693,-2.46829581260681
571,1860265066,20.76274299621582,-86.47013854980469,22.61666297912598,9.74912452697754,0.34661495685577,0.63850647211075,0.85538101196289,-3.89201688766479,-2.64575386047363
572,1860281733,21.52986335754395,-86.52481079101562,21.87414932250977,9.72132110595703,0.26615345478058,0.71865296363831,1.57517457008362,-3.92793822288513,-2.54381489753723
573,1860298400,22.38906288146973,-86.58448028564453,21.04963684082031,9.78277587890625,0.24564187228680,0.78894460201263,2.19123077392578,-4.31184101104736,-2.61243820190430
574,1860315067,23.26469612121582,-86.64112091064453,20.24382781982422,9.80095386505127,0.32767164707184,0.62993955612183,4.29315662384033,-4.11794614791870,-2.51001930236816
575,1860331734,24.17306900024414,-86.69951629638672,19.35243415832520,9.75195884704590,0.40764713287354,0.62111824750900,1.11718142032623,-4.35099601745605,-2.62573766708374
576,1860348401,25.13230323791504,-86.76052093505859,18.41006469726562,9.70894241333008,0.25585594773293,0.63856941461563,1.12765693664551,-4.54914903640747,-2.60547780990601
577,1860365068,26.12670326232910,-86.82220458984375,17.43564605712891,9.81936931610107,0.27362784743309,0.71962118148804,1.29928123950958,-4.64438295364380,-2.54569125175476
578,1860381735,27.14558601379395,-86.88417053222656,16.45886230468750,9.80288600921631,0.32692599296570,0.68218779563904,2.63545680046082,-4.64572763442993,-2.41131401062012
579,1860398402,28.13426017761230,-86.94418334960938,15.51905727386475,9.79623699188232,0.33636820316315,0.52967685461044,3.04983925819397,-4.46383285522461,-2.22794651985168
580,1860415069,29.14911079406738,-87.00095367431641,14.51074218750000,9.76316642761230,0.41704112291336,0.50644910335541,0.49361425638199,-4.40665149688721,-2.37547540664673
581,1860431736,30.21513938903809,-87.05436706542969,13.44183826446533,9.76422500610352,0.28924134373665,0.54646062850952,-0.07909841835499,-4.32747745513916,-2.50239300727844
582,1860448403,31.29038047790527,-87.10680389404297,12.37683773040771,9.73785781860352,0.30190560221672,0.63132464885712,0.71956324577332,-4.25348186492920,-2.39625382423401
583,1860465070,32.45200347900391,-87.16248321533203,11.22786617279053,9.73152923583984,0.33118197321892,0.58772492408752,0.85874265432358,-4.54852771759033,-2.37075662612915
584,1860481737,33.64170074462891,-87.22004699707031,10.07172393798828,9.77058982849121,0.31064713001251,0.62117201089859,2.11786961555481,-4.63269758224487,-2.18021702766418
585,1860498404,34.87834930419922,-87.27854156494141,8.87383365631104,9.79871368408203,0.36071783304214,0.59649497270584,2.42405629158020,-4.73065328598022,-2.08984255790710
586,1860515071,36.18872833251953,-87.33501434326172,7.59224176406860,9.79190063476562,0.31420969963074,0.47528702020645,1.82709479331970,-4.75047111511230,-2.18905997276306
587,1860531738,37.43771743774414,-87.38663482666016,6.36266040802002,9.78313541412354,0.47307345271111,0.38655173778534,1.28811395168304,-4.38513135910034,-2.09818601608276
588,1860548405,38.67946624755859,-87.43447875976562,5.12134027481079,9.69237422943115,0.30195167660713,0.40156963467598,0.09394740313292,-4.25496864318848,-2.07733750343323
589,1860565072,39.91003417968750,-87.47881317138672,3.90857791900635,9.76000976562500,0.33778989315033,0.46388837695122,1.16108143329620,-3.99690032005310,-2.03389215469360
590,1860581739,41.09266662597656,-87.52361297607422,2.75167536735535,9.77994823455811,0.32569614052773,0.50381022691727,1.63269448280334,-3.89436697959900,-1.78243291378021
591,1860598406,42.24109268188477,-87.56506347656250,1.63730144500732,9.72829055786133,0.31286224722862,0.43465393781662,2.11298370361328,-3.66346812248230,-1.69988298416138
592,1860615073,43.46943664550781,-87.60445404052734,0.45143371820450,9.74288845062256,0.39953115582466,0.44171938300133,2.61538958549500,-3.68943905830383,-1.79438078403473
593,1860631740,44.49782180786133,-87.63967132568359,-0.54220592975616,9.79882812500000,0.41774263978004,0.32559129595757,2.14959692955017,-3.12798237800598,-1.53395092487335
594,1860648407,45.38499450683594,-87.66770935058594,-1.42541885375977,9.73251724243164,0.41139197349548,0.30705448985100,0.27739834785461,-2.63730788230896,-1.53981649875641
595,1860665074,46.19840240478516,-87.69234466552734,-2.23922705650330,9.72487640380859,0.33801677823067,0.31456872820854,0.03319405764341,-2.33964991569519,-1.53200435638428
596,1860681741,46.92716217041016,-87.71372985839844,-2.96749925613403,9.68177604675293,0.41036331653595,0.36749818921089,0.06719491630793,-2.06281471252441,-1.46349036693573
597,1860698408,47.61149978637695,-87.73324584960938,-3.65310716629028,9.70042228698730,0.27338436245918,0.35646912455559,-0.04327265918255,-1.89455878734589,-1.44803977012634
598,1860715075,48.15839767456055,-87.74848937988281,-4.17748355865479,9.78267860412598,0.38688948750496,0.35134512186050,1.37860369682312,-1.43844127655029,-1.33876943588257
599,1860731742,48.46435165405273,-87.75493621826172,-4.47849607467651,9.80961132049561,0.45299080014229,0.29406937956810,0.29089620709419,-0.70226818323135,-1.34352052211761
600,1860748409,48.54388427734375,-87.75746154785156,-4.59605073928833,9.76187896728516,0.42736354470253,0.28261098265648,-2.25715136528015,-0.18924583494663,-1.25820469856262
601,1860765076,48.41349411010742,-87.75344848632812,-4.49681663513184,9.69833660125732,0.34405323863029,0.30870658159256,-1.88089430332184,0.43776586651802,-1.18490755558014
602,1860781743,48.23519515991211,-87.74649047851562,-4.34626436233521,9.66888523101807,0.34036105871201,0.33583927154541,-1.68390071392059,0.63834530115128,-1.22490823268890
603,1860798410,48.10831451416016,-87.74172210693359,-4.24756002426147,9.69886112213135,0.33502149581909,0.38438826799393,-1.70002388954163,0.46729090809822,-1.21695542335510
604,1860815077,47.98456573486328,-87.73999023437500,-4.13057088851929,9.72584724426270,0.33808350563049,0.41904181241989,-0.42378136515617,0.37192198634148,-1.04454362392426
605,1860831744,47.83112716674805,-87.73947143554688,-3.97171926498413,9.77743148803711,0.34313353896141,0.44349604845047,0.31238526105881,0.39813655614853,-0.92234522104263
606,1860848411,47.68919372558594,-87.74008178710938,-3.82005858421326,9.76246929168701,0.40037244558334,0.38187536597252,0.58724790811539,0.35951262712479,-0.90435236692429
607,1860865078,47.49877548217773,-87.73929595947266,-3.63632440567017,9.73152732849121,0.37872752547264,0.37496781349182,-0.40773493051529,0.46602305769920,-0.90724658966064
608,1860881745,47.42950439453125,-87.74060058593750,-3.56964445114136,9.67796230316162,0.29025837779045,0.42826533317566,-0.16535559296608,0.16442711651325,-0.99424654245377
609,1860898412,47.42138290405273,-87.74414825439453,-3.55207872390747,9.72049903869629,0.32909417152405,0.43064486980438,0.55563545227051,-0.01631528884172,-0.97394847869873
610,1860915079,47.52237319946289,-87.74848937988281,-3.64816451072693,9.73927116394043,0.30105981230736,0.43953555822372,0.29250341653824,-0.24731621146202,-1.12374436855316
611,1860931746,47.74022293090820,-87.75703430175781,-3.85510826110840,9.73208236694336,0.31434839963913,0.44941040873528,0.67969065904617,-0.59712171554565,-1.13242721557617
612,1860948413,47.98815917968750,-87.76866149902344,-4.07515954971313,9.74586772918701,0.32950735092163,0.39580205082893,1.68669235706329,-0.74124443531036,-1.01231646537781
613,1860965080,48.16955947875977,-87.77983093261719,-4.23722743988037,9.78231239318848,0.38196152448654,0.35862079262733,1.17516183853149,-0.62331700325012,-0.93195009231567
614,1860981747,48.34365081787109,-87.78990173339844,-4.40467643737793,9.74520778656006,0.36875876784325,0.35798674821854,0.39876413345337,-0.58930337429047,-0.98139542341232
615,1860998414,48.41263198852539,-87.79850769042969,-4.45769786834717,9.74742031097412,0.36790251731873,0.34972435235977,0.96511203050613,-0.32918080687523,-0.86652243137360
616,1861015081,48.43566131591797,-87.80796051025391,-4.47522211074829,9.73168468475342,0.39902755618095,0.36435994505882,0.33060234785080,-0.30211457610130,-0.77089101076126
617,1861031748,48.38753128051758,-87.81716918945312,-4.41628646850586,9.73950576782227,0.32378184795380,0.33782437443733,0.64722651243210,-0.15972079336643,-0.66160160303116
618,1861048415,48.22370529174805,-87.82336425781250,-4.23279094696045,9.72534656524658,0.35030233860016,0.35281527042389,1.19161796569824,0.18544873595238,-0.61760544776917
619,1861065082,48.06077194213867,-87.82921600341797,-4.05827713012695,9.71408748626709,0.35676935315132,0.35526812076569,0.68056786060333,0.16356270015240,-0.62794017791748
620,1861081749,47.75122070312500,-87.83427429199219,-3.73466801643372,9.76480388641357,0.31983941793442,0.34777125716209,0.84494370222092,0.46447986364365,-0.45060417056084
621,1861098416,47.39092254638672,-87.83807373046875,-3.36468172073364,9.78341102600098,0.35780090093613,0.34609994292259,0.55922126770020,0.57169461250305,-0.41539958119392
622,1861115083,47.04555892944336,-87.84223937988281,-3.01935315132141,9.73957538604736,0.33396410942078,0.36161535978317,-0.00998895242810,0.52109676599503,-0.44709524512291
623,1861131750,46.75600814819336,-87.84650421142578,-2.73305892944336,9.71375846862793,0.28846046328545,0.42622309923172,-0.20824407041073,0.40651836991310,-0.52648186683655
624,1861148417,46.54734802246094,-87.85142517089844,-2.51049518585205,9.73214626312256,0.26277571916580,0.40183538198471,0.84816449880600,0.28859111666679,-0.62099909782410
625,1861165084,46.42633819580078,-87.85597991943359,-2.37484860420227,9.77602100372314,0.32210573554039,0.39009290933609,0.87113279104233,0.13665015995502,-0.75129741430283
626,1861181751,46.28590393066406,-87.85908508300781,-2.21582412719727,9.75377750396729,0.32280400395393,0.40069901943207,1.10236430168152,0.23774349689484,-0.78039342164993
627,1861198418,46.07496643066406,-87.85816955566406,-1.99318897724152,9.78421401977539,0.31754857301712,0.33525851368904,0.70114773511887,0.51206189393997,-0.85927408933640
628,1861215085,45.83690643310547,-87.85433959960938,-1.75442576408386,9.72198200225830,0.32588347792625,0.35078790783882,0.02339720167220,0.64582419395447,-0.94188791513443
629,1861231752,45.53694534301758,-87.84851074218750,-1.44011950492859,9.74443531036377,0.28825172781944,0.37332350015640,0.84726166725159,0.85579067468643,-0.90771400928497
630,1861248419,45.21524429321289,-87.83997344970703,-1.10408234596252,9.73401737213135,0.32897689938545,0.38438928127289,0.83327710628510,0.99804359674454,-0.97346186637878
631,1861265086,44.86696243286133,-87.83183288574219,-0.74727493524551,9.71354198455811,0.28363701701164,0.38676291704178,0.49648299813271,1.02894532680511,-0.93094474077225
632,1861281753,44.58147811889648,-87.82417297363281,-0.44686824083328,9.73532962799072,0.33872830867767,0.41926530003548,0.88081437349319,0.91122943162918,-0.98836851119995
633,1861298420,44.31145095825195,-87.81716918945312,-0.17514394223690,9.78217983245850,0.32583701610565,0.42147320508957,0.07423201203346,0.82637459039688,-0.99299156665802
634,1861315087,44.12177276611328,-87.81331634521484,0.02093815989792,9.73180198669434,0.30403515696526,0.40892019867897,0.39120197296143,0.60185366868973,-1.01528751850128
635,1861331754,43.98482894897461,-87.81117248535156,0.16568875312805,9.74981880187988,0.31067278981209,0.40757265686989,0.45459982752800,0.41936954855919,-1.00314056873322
636,1861348421,43.86916351318359,-87.81063079833984,0.28836259245872,9.72404193878174,0.31133791804314,0.41387799382210,0.39824545383453,0.31050914525986,-0.96882593631744
637,1861365088,43.79210662841797,-87.81215667724609,0.37403571605682,9.74757003784180,0.31413820385933,0.41116932034492,0.51280462741852,0.16472806036472,-0.94939225912094
638,1861381755,43.79212570190430,-87.81591033935547,0.38320773839951,9.74173736572266,0.29995056986809,0.43995943665504,0.55249148607254,-0.03472441434860,-1.00397288799286
639,1861398422,43.79384231567383,-87.82093811035156,0.39318594336510,9.76281738281250,0.30179238319397,0.43786862492561,0.70410597324371,-0.09488864243031,-0.94400078058243
640,1861415089,43.79889678955078,-87.82399749755859,0.40951254963875,9.77025127410889,0.28328239917755,0.40684410929680,1.28395843505859,-0.00772222923115,-1.00908911228180
641,1861431756,43.75534820556641,-87.82614898681641,0.47276642918587,9.74934196472168,0.33711147308350,0.35791397094727,1.17234444618225,0.10476873070002,-0.96431159973145
642,1861448423,43.61914443969727,-87.82849884033203,0.61603462696075,9.76967048645020,0.32344397902489,0.41256198287010,0.42190515995026,0.22801703214645,-0.82745021581650
643,1861465090,43.35926818847656,-87.82705688476562,0.88966536521912,9.76394939422607,0.33102530241013,0.34938499331474,0.80838805437088,0.58901530504227,-0.75555551052094
644,1861481757,42.94890975952148,-87.82219696044922,1.30057179927826,9.75668334960938,0.29935809969902,0.35630360245705,0.02238550037146,0.97875088453293,-0.68300747871399
645,1861498424,42.50102233886719,-87.81466674804688,1.74202930927277,9.73154163360596,0.33602121472359,0.39004999399185,-0.42376208305359,1.11152064800262,-0.70238989591599
646,1861515091,41.97492980957031,-87.80732727050781,2.26850867271423,9.69672489166260,0.27877575159073,0.37684139609337,0.01529718562961,1.25838398933411,-0.55883073806763
647,1861531758,41.44632339477539,-87.79859924316406,2.80299043655396,9.74370384216309,0.29368895292282,0.40022900700569,0.30843451619148,1.29785311222076,-0.55634623765945
648,1861548425,40.92295074462891,-87.79026031494141,3.32789564132690,9.72923183441162,0.32213875651360,0.45689558982849,0.06780321151018,1.28329229354858,-0.56289017200470
649,1861565092,40.39682769775391,-87.78150177001953,3.85299181938171,9.73366165161133,0.23605377972126,0.46289315819740,-0.08370231091976,1.30187427997589,-0.56458079814911
650,1861581759,39.91099929809570,-87.77401733398438,4.36087799072266,9.82521247863770,0.34519410133362,0.43892052769661,1.29974842071533,1.21549546718597,-0.53403753042221
651,1861598426,39.40452575683594,-87.76717376708984,4.86406803131104,9.74654674530029,0.33111697435379,0.42884278297424,-0.22107602655888,1.17684602737427,-0.50541543960571
652,1861615093,38.92779159545898,-87.76078033447266,5.33944654464722,9.71578598022461,0.22364218533039,0.42753055691719,-0.10524258017540,1.11468374729156,-0.53237277269363
653,1861631760,38.56854248046875,-87.75423431396484,5.70966339111328,9.70743656158447,0.25317734479904,0.45279556512833,0.62334913015366,0.93304502964020,-0.70074421167374
654,1861648427,38.30361557006836,-87.75180053710938,5.98723459243774,9.76170349121094,0.27165687084198,0.47403392195702,0.74299889802933,0.62208127975464,-0.73119777441025
655,1861665094,38.08762741088867,-87.74988555908203,6.22658872604370,9.76913261413574,0.28386059403419,0.44883987307549,1.39196062088013,0.55432289838791,-0.79262983798981
656,1861681761,37.86391067504883,-87.75057983398438,6.46842765808105,9.76570224761963,0.31513586640358,0.42722254991531,1.09303474426270,0.43663251399994,-0.69276595115662
657,1861698428,37.57711791992188,-87.74666595458984,6.76650285720825,9.76988983154297,0.29216688871384,0.42116498947144,0.64855200052261,0.70116049051285,-0.72799623012543
658,1861715095,37.28033447265625,-87.74206542968750,7.06915044784546,9.73332691192627,0.24845990538597,0.42786955833435,0.33856147527695,0.75827676057816,-0.75373697280884
659,1861731762,36.92932510375977,-87.73600769042969,7.43332576751709,9.72649097442627,0.26954174041748,0.43287473917007,0.76744616031647,0.91771584749222,-0.68458259105682
660,1861748429,36.62547302246094,-87.73048400878906,7.74559688568115,9.76381206512451,0.27076703310013,0.45198604464531,0.48397120833397,0.80436044931412,-0.75128453969955
661,1861765096,36.30618667602539,-87.72307586669922,8.07276153564453,9.78919410705566,0.30963280797005,0.43405058979988,0.44556495547295,0.91384196281433,-0.78194290399551
662,1861781763,35.95714187622070,-87.71569824218750,8.42448997497559,9.73934078216553,0.28845188021660,0.44161269068718,0.14121563732624,0.95942610502243,-0.73692226409912
663,1861798430,35.59893035888672,-87.70774078369141,8.78233146667480,9.72240161895752,0.24707300961018,0.46359014511108,-0.04318941757083,0.98971319198608,-0.73197901248932
664,1861815097,35.26455307006836,-87.70007324218750,9.12429141998291,9.72217750549316,0.23365290462971,0.45924267172813,0.44483497738838,0.96593815088272,-0.75755965709686
665,1861831764,35.01155090332031,-87.69658660888672,9.38447284698486,9.73760032653809,0.23122219741344,0.48730656504631,0.41001453995705,0.62870860099792,-0.75791823863983
666,1861848431,34.76327133178711,-87.69284820556641,9.65085983276367,9.76346015930176,0.23458208143711,0.48771220445633,1.07269191741943,0.65261799097061,-0.75374335050583
667,1861865098,34.49990463256836,-87.68979644775391,9.93134880065918,9.81843376159668,0.31229215860367,0.49231210350990,0.99702543020248,0.62678116559982,-0.69379675388336
668,1861881765,34.24163818359375,-87.68641662597656,10.19742012023926,9.71066474914551,0.25067725777626,0.44998517632484,0.45680242776871,0.63346600532532,-0.73824119567871
669,1861898432,34.04864501953125,-87.68446350097656,10.40216827392578,9.73723220825195,0.24532820284367,0.44539606571198,0.69270825386047,0.48235115408897,-0.81564283370972
670,1861915099,33.81657028198242,-87.68286132812500,10.63907623291016,9.71594524383545,0.26027408242226,0.50439614057541,0.26506581902504,0.49218642711639,-0.72677958011627
671,1861931766,33.71984863281250,-87.68497467041016,10.74855041503906,9.75669765472412,0.22201697528362,0.51310569047928,0.76619112491608,0.14574909210205,-0.87088948488235
672,1861948433,33.60340118408203,-87.68827056884766,10.89109230041504,9.77211761474609,0.25176152586937,0.47648358345032,1.55077862739563,0.11494338512421,-0.75385868549347
673,1861965100,33.42169570922852,-87.69115447998047,11.09436225891113,9.76994514465332,0.29098019003868,0.44382655620575,1.28409922122955,0.23515661060810,-0.65580040216446
674,1861981767,33.16038131713867,-87.68793487548828,11.36323070526123,9.79776096343994,0.28276884555817,0.42484718561172,0.44629487395287,0.63234549760818,-0.72499299049377
675,1861998434,32.85475540161133,-87.68185424804688,11.65830135345459,9.72016811370850,0.26556277275085,0.42750889062881,-0.66272222995758,0.77553969621658,-0.73875349760056
676,1862015101,32.53360366821289,-87.67864227294922,11.98296833038330,9.72087764739990,0.23925600945950,0.46846714615822,0.19744829833508,0.70478463172913,-0.60117483139038
677,1862031768,32.20736312866211,-87.67324829101562,12.31737995147705,9.75197410583496,0.24200707674026,0.47269982099533,0.47696608304977,0.80872726440430,-0.63641154766083
678,1862048435,31.85253334045410,-87.67022705078125,12.67775630950928,9.74948978424072,0.28201833367348,0.47137141227722,0.30611017346382,0.72084379196167,-0.50198972225189
679,1862065102,31.53108024597168,-87.66946411132812,12.98923492431641,9.71772956848145,0.24457980692387,0.51552498340607,-0.60794943571091,0.54210561513901,-0.53143143653870
680,1862081769,31.25019264221191,-87.67173767089844,13.26425743103027,9.78471088409424,0.22326262295246,0.55112928152084,-0.37875419855118,0.33258089423180,-0.50981432199478
