sep=,
DeviceTag:,Xsens_DOT_3
FirmwareVersion:,3.0.0
AppVersion:,2023.6.0
StartTime: ,2025-04-09_10:53:16_000 CEST
© Movella Technologies B. V. 2005-2025

PacketCounter,SampleTimeFine,Euler_X,Euler_Y,Euler_Z,Acc_X,Acc_Y,Acc_Z,Gyr_X,Gyr_Y,Gyr_Z
0,1850748209,114.73358917236328,-88.52263641357422,-142.15776062011719,0.00000000000000,0.00000000000000,0.00000000000000,0.00000000000000,0.00000000000000,0.00000000000000
1,1850764876,114.88747406005859,-88.51827239990234,-142.29400634765625,9.75453281402588,0.22046193480492,-0.03228605538607,2.14725995063782,0.21893095970154,0.15804956853390
2,1850781543,115.07896423339844,-88.51430511474609,-142.47895812988281,9.77702140808105,0.23522417247295,-0.04361987113953,1.29331970214844,0.14145253598690,0.18938669562340
3,1850798210,115.25289916992188,-88.50891876220703,-142.65592956542969,9.79681015014648,0.19158074259758,-0.08317469805479,0.93291044235229,0.13495971262455,0.13598421216011
4,1850814877,115.41967773437500,-88.50537872314453,-142.81806945800781,9.77946472167969,0.17284215986729,-0.07513452321291,1.57349705696106,0.19531604647636,0.20183448493481
5,1850831544,115.50331115722656,-88.50131988525391,-142.89410400390625,9.78412342071533,0.25942477583885,-0.04359134286642,1.73531794548035,0.30998408794403,0.12915845215321
6,1850848211,115.41020965576172,-88.49962615966797,-142.79714965820312,9.80711650848389,0.22046196460724,-0.08886029571295,1.12267506122589,0.61608147621155,0.15916374325752
7,1850864878,115.25093078613281,-88.49897766113281,-142.64016723632812,9.76921558380127,0.19036664068699,-0.10668653249741,1.51951837539673,0.73165881633759,0.13081046938896
8,1850881545,115.07407379150391,-88.49780273437500,-142.44912719726562,9.77125072479248,0.21403373777866,-0.08917608112097,2.05422163009644,0.77293366193771,0.11827304959297
9,1850898212,114.79447174072266,-88.49832153320312,-142.15983581542969,9.77199745178223,0.21274264156818,-0.05962330847979,1.75073659420013,0.93183469772339,0.09394096583128
10,1850914879,114.52605438232422,-88.49533081054688,-141.89132690429688,9.76681995391846,0.19822297990322,-0.05296121537685,1.12398135662079,0.83535176515579,-0.03829099237919
11,1850931546,114.34219360351562,-88.49039459228516,-141.69769287109375,9.77943706512451,0.20403502881527,-0.04171411693096,1.74380862712860,0.67744946479797,-0.10305269807577
12,1850948213,114.24495697021484,-88.48392486572266,-141.59562683105469,9.75292968750000,0.25635156035423,-0.01271467562765,1.52446138858795,0.52192920446396,-0.09899308532476
13,1850964880,114.21524047851562,-88.47787475585938,-141.56114196777344,9.77902793884277,0.22758570313454,-0.03114576637745,0.76697868108749,0.39798930287361,-0.06116312369704
14,1850981547,114.22283935546875,-88.47081756591797,-141.57550048828125,9.79774188995361,0.22877354919910,-0.01328918617219,0.64010620117188,0.32267519831657,-0.07268883287907
15,1850998214,114.14683532714844,-88.46571350097656,-141.52719116210938,9.78236103057861,0.20382235944271,-0.05092161521316,-0.56531065702438,0.45290297269821,-0.03443627059460
16,1851014881,114.26638793945312,-88.45934295654297,-141.64416503906250,9.80242443084717,0.23188865184784,-0.09341835975647,1.25896024703979,0.20340967178345,0.06330818682909
17,1851031548,114.35643768310547,-88.45426940917969,-141.74160766601562,9.78502082824707,0.20265954732895,-0.10823500156403,0.85917156934738,0.23986934125423,0.06191229820251
18,1851048215,114.42532348632812,-88.45010375976562,-141.80120849609375,9.77935218811035,0.23008584976196,-0.07405268400908,1.73410141468048,0.32498031854630,0.10702906548977
19,1851064882,114.47087860107422,-88.44720458984375,-141.83879089355469,9.77809715270996,0.24206615984440,-0.08583823591471,1.70857822895050,0.38879436254501,0.15918932855129
20,1851081549,114.45942687988281,-88.44242095947266,-141.83631896972656,9.77793025970459,0.24938084185123,-0.03849985077977,0.74764108657837,0.40700501203537,0.03419935703278
21,1851098216,114.48782348632812,-88.43676757812500,-141.85040283203125,9.77178859710693,0.20069037377834,-0.09170399606228,1.86828625202179,0.35302621126175,0.00352814910002
22,1851114883,114.59947967529297,-88.43052673339844,-141.96405029296875,9.76669979095459,0.23920603096485,-0.04457311332226,1.12334096431732,0.19794133305550,0.04340712353587
23,1851131550,114.81602478027344,-88.42294311523438,-142.17955017089844,9.78225803375244,0.22361680865288,-0.06461074948311,1.22444713115692,-0.00366261648014,0.02392866648734
24,1851148217,115.10443878173828,-88.41378021240234,-142.46525573730469,9.76638984680176,0.22995635867119,-0.05865972489119,1.52613914012909,-0.13135473430157,0.02497878670692
25,1851164884,115.37740325927734,-88.40554046630859,-142.71620178222656,9.77100372314453,0.23709464073181,-0.04868128895760,1.67240035533905,-0.10627989470959,0.01977940835059
26,1851181551,115.63307952880859,-88.39672851562500,-142.97340393066406,9.78652763366699,0.23235630989075,-0.04285375028849,0.89061117172241,-0.10220747441053,0.02216138876975
27,1851198218,115.89037322998047,-88.38941955566406,-143.22923278808594,9.76922607421875,0.22156964242458,-0.08525983244181,1.28202450275421,-0.06807854771614,0.08463075757027
28,1851214885,116.18531799316406,-88.38178253173828,-143.53111267089844,9.78503513336182,0.23272731900215,-0.06681607663631,1.49919462203979,-0.12762808799744,0.10218827426434
29,1851231552,116.43284606933594,-88.37297821044922,-143.76202392578125,9.78773880004883,0.22474908828735,-0.08636098355055,1.65092432498932,-0.08577693998814,0.00824088696390
30,1851248219,116.65579223632812,-88.36493682861328,-143.96929931640625,9.76724529266357,0.24607357382774,-0.10276384651661,1.44589459896088,-0.02873745188117,0.04642942175269
31,1851264886,116.89807128906250,-88.35706329345703,-144.21072387695312,9.76596927642822,0.23992353677750,-0.07422319054604,1.17250466346741,-0.06946163624525,0.06821302324533
32,1851281553,117.16004180908203,-88.34779357910156,-144.47393798828125,9.77225399017334,0.21865864098072,-0.06147965788841,0.94841915369034,-0.14199681580067,0.02421040460467
33,1851298220,117.42772674560547,-88.34059143066406,-144.74107360839844,9.78668785095215,0.23862710595131,-0.07882218807936,1.06101250648499,-0.10506329685450,0.12221740186214
34,1851314887,117.60972595214844,-88.33270263671875,-144.93064880371094,9.79022884368896,0.22597695887089,-0.08733455836773,0.70760846138000,0.00364340655506,0.03615872934461
35,1851331554,117.84099578857422,-88.32474517822266,-145.16410827636719,9.77960491180420,0.24654334783554,-0.08756139874458,1.36101412773132,-0.05677055194974,0.07119690626860
36,1851348221,117.98349761962891,-88.31751251220703,-145.29780578613281,9.77831554412842,0.22451314330101,-0.10836370289326,1.65073204040527,0.10313593596220,0.02885911054909
37,1851364888,118.19477081298828,-88.31078338623047,-145.49665832519531,9.77424240112305,0.24249261617661,-0.08913119137287,1.78933525085449,0.00030094923568,0.09203283488750
38,1851381555,118.48225402832031,-88.30558013916016,-145.76696777343750,9.77312088012695,0.26125442981720,-0.09185391664505,2.14897608757019,-0.05332564562559,0.26325374841690
39,1851398222,118.69012451171875,-88.30027008056641,-145.97317504882812,9.80511283874512,0.22229900956154,-0.11654204130173,1.70277714729309,0.05386991426349,0.19554655253887
40,1851414889,118.93677520751953,-88.29486846923828,-146.21832275390625,9.76598739624023,0.22125311195850,-0.10413821041584,1.83805048465729,-0.00961756892502,0.22210691869259
41,1851431556,119.24723815917969,-88.28787994384766,-146.51901245117188,9.73052310943604,0.26757311820984,-0.08157499134541,1.63382756710052,-0.15993849933147,0.20645754039288
42,1851448223,119.54483795166016,-88.28137969970703,-146.81430053710938,9.79207992553711,0.26800128817558,-0.07131502777338,1.31089007854462,-0.15009042620659,0.20644478499889
43,1851464890,119.80512237548828,-88.27683258056641,-147.06602478027344,9.81353282928467,0.23356206715107,-0.13108125329018,1.43251192569733,-0.03169571608305,0.28038862347603
44,1851481557,120.04762268066406,-88.27138519287109,-147.30664062500000,9.76904582977295,0.22062438726425,-0.11405798792839,1.51084828376770,-0.00473834900185,0.25660723447800
45,1851498224,120.30069732666016,-88.26516723632812,-147.54428100585938,9.76748561859131,0.21902891993523,-0.10679838061333,1.26898753643036,-0.07101120054722,0.20484396815300
46,1851514891,120.49668121337891,-88.25807952880859,-147.74328613281250,9.77580261230469,0.23269858956337,-0.11711915582418,0.98973232507706,-0.01988826133311,0.10756693035364
47,1851531558,120.66027832031250,-88.25135040283203,-147.92140197753906,9.78000068664551,0.23944137990475,-0.10258708149195,0.69682544469833,0.04202403500676,0.11905422806740
48,1851548225,120.80913543701172,-88.24398040771484,-148.05761718750000,9.76935100555420,0.24216875433922,-0.10338167101145,1.09556400775909,0.05480477213860,0.06685554981232
49,1851564892,120.97817993164062,-88.23953247070312,-148.22048950195312,9.78810787200928,0.24199736118317,-0.08383297175169,1.33450484275818,0.11238213628531,0.22633305191994
50,1851581559,121.17594146728516,-88.23509216308594,-148.41929626464844,9.79580116271973,0.26319763064384,-0.10579857975245,1.12564599514008,0.05636714398861,0.25457102060318
51,1851598226,121.33737182617188,-88.23076629638672,-148.59167480468750,9.81582355499268,0.23751205205917,-0.11438784748316,0.80379700660706,0.12005312740803,0.24953813850880
52,1851614893,121.53380584716797,-88.22734069824219,-148.78138732910156,9.78198051452637,0.22228224575520,-0.11894779652357,1.45731770992279,0.11134480684996,0.32449364662170
53,1851631560,121.76754760742188,-88.22513580322266,-148.99734497070312,9.76786422729492,0.27275800704956,-0.08737961202860,1.89460337162018,0.08751218765974,0.39627325534821
54,1851648227,122.05874633789062,-88.22249603271484,-149.28134155273438,9.75875282287598,0.24652297794819,-0.14242170751095,1.50246024131775,-0.01891497895122,0.45613011717796
55,1851664894,122.33874511718750,-88.21996307373047,-149.52751159667969,9.77316474914551,0.22622142732143,-0.12852153182030,1.76364552974701,-0.00312474928796,0.42876297235489
56,1851681561,122.51296997070312,-88.21831512451172,-149.69770812988281,9.78565883636475,0.24896579980850,-0.10934974253178,1.37492179870605,0.19029596447945,0.38742414116859
57,1851698228,122.61035156250000,-88.21897125244141,-149.79743957519531,9.78206539154053,0.24117361009121,-0.11408660560846,1.00016963481903,0.37174913287163,0.42533087730408
58,1851714895,122.71171569824219,-88.22039794921875,-149.89445495605469,9.78057956695557,0.21846166253090,-0.16636063158512,1.36421561241150,0.40948942303658,0.47700452804565
59,1851731562,122.81009674072266,-88.22216033935547,-149.98167419433594,9.79195022583008,0.27207189798355,-0.10142508149147,1.85005009174347,0.42576628923416,0.46316084265709
60,1851748229,122.91540527343750,-88.22293090820312,-150.06986999511719,9.78583526611328,0.25746080279350,-0.10984099656343,0.94323247671127,0.37784492969513,0.46414691209793
61,1851764896,123.07888793945312,-88.22458648681641,-150.23596191406250,9.77640342712402,0.22588039934635,-0.08510658144951,0.54263705015182,0.27645704150200,0.53223824501038
62,1851781563,123.23316955566406,-88.22491455078125,-150.39439392089844,9.77781391143799,0.22387850284576,-0.13905866444111,1.11130309104919,0.29975184798241,0.50145184993744
63,1851798230,123.49483489990234,-88.22711944580078,-150.64761352539062,9.78574943542480,0.26289966702461,-0.10615935176611,1.70993578433990,0.18221513926983,0.65663915872574
64,1851814897,123.85466003417969,-88.22844696044922,-150.99320983886719,9.78009605407715,0.27305886149406,-0.09940034896135,1.86640369892120,0.01200595311821,0.72091418504715
65,1851831564,124.09954071044922,-88.23020935058594,-151.23789978027344,9.78972721099854,0.25662150979042,-0.08541844040155,1.31934213638306,0.20520254969597,0.65160632133484
66,1851848231,124.28776550292969,-88.23320770263672,-151.43634033203125,9.77902221679688,0.24145916104317,-0.13015565276146,0.63118010759354,0.31312161684036,0.65900832414627
67,1851864898,124.48867034912109,-88.23542022705078,-151.64773559570312,9.77140140533447,0.25620195269585,-0.13060013949871,0.78214132785797,0.26792803406715,0.62589108943939
68,1851881565,124.72035217285156,-88.23908233642578,-151.88662719726562,9.77552413940430,0.21638651192188,-0.12979331612587,0.85556018352509,0.27762243151665,0.73349004983902
69,1851898232,125.00732421875000,-88.24453735351562,-152.17573547363281,9.77910518646240,0.25295463204384,-0.11652312427759,0.93273115158081,0.24578584730625,0.86118215322495
70,1851914899,125.29202270507812,-88.24699401855469,-152.46447753906250,9.78220081329346,0.23796135187149,-0.09873194992542,0.87747186422348,0.16469605267048,0.73628187179565
71,1851931566,125.54653167724609,-88.24967193603516,-152.73011779785156,9.77545928955078,0.19705700874329,-0.11725770682096,0.72273272275925,0.19267794489861,0.68773305416107
72,1851948233,125.82798767089844,-88.25135040283203,-153.00524902343750,9.79094600677490,0.22937330603600,-0.12597616016865,1.40670716762543,0.16327457129955,0.69048643112183
73,1851964900,126.16952514648438,-88.25325775146484,-153.33863830566406,9.75703048706055,0.22673742473125,-0.10897528380156,1.70205986499786,0.08185178041458,0.75143176317215
74,1851981567,126.49001312255859,-88.25583648681641,-153.65937805175781,9.80533409118652,0.24925771355629,-0.10075223445892,1.17163383960724,0.12947860360146,0.77434235811234
75,1851998234,126.74578857421875,-88.25729370117188,-153.91770935058594,9.80056571960449,0.18640878796577,-0.10041914880276,0.72263032197952,0.18671019375324,0.67335152626038
76,1852014901,127.04032135009766,-88.25875854492188,-154.21008300781250,9.74270439147949,0.17560814321041,-0.12041511386633,1.33894872665405,0.12319069355726,0.67618173360825
77,1852031568,127.35611724853516,-88.26168060302734,-154.51039123535156,9.78248214721680,0.23683626949787,-0.13209402561188,1.86070466041565,0.17761763930321,0.78497147560120
78,1852048235,127.63834381103516,-88.26404571533203,-154.79444885253906,9.82566452026367,0.23018103837967,-0.14162969589233,1.16240036487579,0.18564721941948,0.72461527585983
79,1852064902,127.91772460937500,-88.26371002197266,-155.06332397460938,9.76695156097412,0.19488357007504,-0.10288807004690,1.77446699142456,0.10683696717024,0.58345085382462
80,1852081569,128.23530578613281,-88.26065826416016,-155.37007141113281,9.74683570861816,0.20909382402897,-0.09314852207899,1.32314550876617,-0.05036737024784,0.51985454559326
81,1852098236,128.56846618652344,-88.25325775146484,-155.70748901367188,9.77101039886475,0.24609205126762,-0.09845396876335,0.87063324451447,-0.26355466246605,0.32509556412697
82,1852114903,128.90431213378906,-88.24420166015625,-156.05229187011719,9.78177833557129,0.23028311133385,-0.10749758780003,0.45336395502090,-0.31411409378052,0.29795891046524
83,1852131570,129.31413269042969,-88.23365020751953,-156.47605895996094,9.78340911865234,0.22586967051029,-0.10445743799210,0.27061739563942,-0.50592762231827,0.30105808377266
84,1852148237,129.77397155761719,-88.21996307373047,-156.93676757812500,9.77973175048828,0.20030049979687,-0.11923658102751,0.93969786167145,-0.68721425533295,0.21336019039154
85,1852164904,130.29515075683594,-88.20441436767578,-157.46102905273438,9.78492736816406,0.23481193184853,-0.14423763751984,0.80141484737396,-0.83661311864853,0.24216166138649
86,1852181571,130.91477966308594,-88.18889617919922,-158.08828735351562,9.78017902374268,0.21753746271133,-0.14574031531811,0.71625280380249,-0.99210792779922,0.38198143243790
87,1852198238,131.51855468750000,-88.17329406738281,-158.69335937500000,9.80797958374023,0.21533730626106,-0.17504811286926,1.05086970329285,-0.96748125553131,0.37751194834709
88,1852214905,132.08555603027344,-88.15847015380859,-159.26431274414062,9.79012012481689,0.23835565149784,-0.17388544976711,0.73281133174896,-0.90196394920349,0.38715514540672
89,1852231572,132.65849304199219,-88.14491271972656,-159.83833312988281,9.77566146850586,0.20085144042969,-0.18062663078308,1.16817605495453,-0.87708127498627,0.43921300768852
90,1852248239,133.24153137207031,-88.12915039062500,-160.41802978515625,9.78477764129639,0.23024797439575,-0.20156209170818,1.50873529911041,-0.94400715827942,0.40197211503983
91,1852264906,133.73112487792969,-88.11581420898438,-160.92094421386719,9.78687953948975,0.23544169962406,-0.19619888067245,0.80817675590515,-0.75580507516861,0.39300766587257
92,1852281573,134.16349792480469,-88.10391235351562,-161.35467529296875,9.78843879699707,0.18685452640057,-0.22889143228531,0.97587579488754,-0.60102760791779,0.39905226230621
93,1852298240,134.58778381347656,-88.09350585937500,-161.77897644042969,9.78894042968750,0.21114698052406,-0.18588741123676,1.31981587409973,-0.52977305650711,0.44612836837769
94,1852314907,134.99357604980469,-88.08235168457031,-162.18159484863281,9.77723026275635,0.23578406870365,-0.17318293452263,1.08507561683655,-0.54143965244293,0.40607017278671
95,1852331574,135.37736511230469,-88.07014465332031,-162.56861877441406,9.77373790740967,0.20535513758659,-0.16487514972687,0.51044189929962,-0.56208354234695,0.36418059468269
96,1852348241,135.82810974121094,-88.05579376220703,-163.02519226074219,9.77308559417725,0.21535494923592,-0.13576206564903,1.02004492282867,-0.75049042701721,0.36090213060379
97,1852364908,136.28570556640625,-88.04026031494141,-163.47976684570312,9.77212524414062,0.24763636291027,-0.17042188346386,0.61136877536774,-0.82576632499695,0.34777566790581
98,1852381575,136.80543518066406,-88.02048492431641,-164.01324462890625,9.77203941345215,0.20228919386864,-0.15874409675598,0.45848649740219,-1.09845185279846,0.29838156700134
99,1852398242,137.36108398437500,-87.99816131591797,-164.58259582519531,9.75156402587891,0.20983804762363,-0.17696166038513,0.51982897520065,-1.28044271469116,0.25920695066452
100,1852414909,138.00939941406250,-87.97357940673828,-165.22134399414062,9.72505187988281,0.23843868076801,-0.25074228644371,0.59990710020065,-1.51018893718719,0.35017046332359
101,1852431576,138.70904541015625,-87.94938659667969,-165.92858886718750,9.80824089050293,0.27549526095390,-0.16859930753708,0.67892229557037,-1.55467820167542,0.49885216355324
102,1852448243,139.29418945312500,-87.92774200439453,-166.52339172363281,9.80052471160889,0.20047776401043,-0.25704190135002,-0.24948050081730,-1.33910882472992,0.44638454914093
103,1852464910,139.85121154785156,-87.90912628173828,-167.07069396972656,9.78159046173096,0.22993385791779,-0.26466435194016,0.75491511821747,-1.13810038566589,0.52214688062668
104,1852481577,140.28540039062500,-87.89411163330078,-167.52336120605469,9.78388500213623,0.22709639370441,-0.26901090145111,-0.11173539608717,-0.83247673511505,0.49116829037666
105,1852498244,140.67568969726562,-87.88280487060547,-167.92152404785156,9.77186489105225,0.20254439115524,-0.35302034020424,0.69128036499023,-0.58431529998779,0.54718327522278
106,1852514911,141.00643920898438,-87.87754058837891,-168.25454711914062,9.80382823944092,0.23306882381439,-0.25873547792435,0.86348730325699,-0.20167438685894,0.68766897916794
107,1852531578,141.16261291503906,-87.87596893310547,-168.41746520996094,9.79585647583008,0.20893025398254,-0.30427151918411,0.64964693784714,0.22025001049042,0.54147166013718
108,1852548245,141.23190307617188,-87.88077545166016,-168.49397277832031,9.81586742401123,0.21503975987434,-0.28243273496628,0.91430288553238,0.63764733076096,0.61384028196335
109,1852564912,141.22427368164062,-87.89048767089844,-168.48495483398438,9.81794929504395,0.20506325364113,-0.25446084141731,1.08421766757965,0.97423672676086,0.65524333715439
110,1852581579,141.19723510742188,-87.90425872802734,-168.45751953125000,9.77909660339355,0.20471881330013,-0.25498005747795,1.49540376663208,1.18733429908752,0.75335270166397
111,1852598246,141.13867187500000,-87.91983032226562,-168.39332580566406,9.75684833526611,0.23202288150787,-0.23062579333782,1.37133586406708,1.31242668628693,0.77244699001312
112,1852614913,141.01828002929688,-87.93777465820312,-168.27146911621094,9.81122493743896,0.20486965775490,-0.23987551033497,1.10008442401886,1.50906801223755,0.77220350503922
113,1852631580,140.83943176269531,-87.95742034912109,-168.08042907714844,9.78201007843018,0.18268904089928,-0.25726604461670,1.83849871158600,1.68405413627625,0.72488427162170
114,1852648247,140.67321777343750,-87.97822570800781,-167.89945983886719,9.77795028686523,0.19862979650497,-0.20532444119453,1.92982089519501,1.71163928508759,0.78760963678360
115,1852664914,140.50782775878906,-88.00109863281250,-167.70271301269531,9.77082347869873,0.19810353219509,-0.22065554559231,2.31396031379700,1.81939208507538,0.87097913026810
116,1852681581,140.35017395019531,-88.02196502685547,-167.53572082519531,9.77133274078369,0.21656641364098,-0.18593293428421,1.71571147441864,1.68525791168213,0.81884443759918
117,1852698248,140.13233947753906,-88.03845977783203,-167.31980895996094,9.77164840698242,0.21473497152328,-0.16974924504757,1.03273618221283,1.54774332046509,0.58277213573456
118,1852714915,139.93591308593750,-88.05418395996094,-167.12211608886719,9.77803039550781,0.18343704938889,-0.18409322202206,1.25689828395844,1.49069106578827,0.59194147586823
119,1852731582,139.84114074707031,-88.06719970703125,-167.02180480957031,9.77044296264648,0.21028769016266,-0.20967796444893,1.56051146984100,1.25250589847565,0.65569162368774
120,1852748249,139.78996276855469,-88.07827758789062,-166.96392822265625,9.80126762390137,0.21097040176392,-0.17065209150314,1.39173638820648,1.08754718303680,0.64338451623917
121,1852764916,139.65731811523438,-88.09135437011719,-166.83909606933594,9.80147075653076,0.19459149241447,-0.17589078843594,1.20963001251221,1.27779817581177,0.60082900524139
122,1852781583,139.49850463867188,-88.10721588134766,-166.67175292968750,9.78523159027100,0.20754101872444,-0.22033070027828,1.24432253837585,1.43812096118927,0.67068767547607
123,1852798250,139.43399047851562,-88.12247467041016,-166.59252929687500,9.77267646789551,0.18594460189342,-0.20736272633076,2.08030819892883,1.29397284984589,0.76518583297729
124,1852814917,139.43559265136719,-88.13722991943359,-166.58113098144531,9.78362274169922,0.20534184575081,-0.19973847270012,2.32419252395630,1.20134449005127,0.84908026456833
125,1852831584,139.34532165527344,-88.15337371826172,-166.46592712402344,9.79518795013428,0.18156029284000,-0.19206231832504,2.68119549751282,1.38147866725922,0.75134229660034
126,1852848251,139.27433776855469,-88.16677093505859,-166.37522888183594,9.75841903686523,0.20320650935173,-0.15977023541927,2.13241720199585,1.23807299137115,0.70663517713547
127,1852864918,139.22721862792969,-88.17790985107422,-166.30848693847656,9.76841354370117,0.22029335796833,-0.13569584488869,2.01438140869141,1.08994209766388,0.64522874355316
128,1852881585,139.19024658203125,-88.18598175048828,-166.26672363281250,9.77990913391113,0.19733868539333,-0.18627186119556,1.39059674739838,0.93084883689880,0.56367790699005
129,1852898252,139.20407104492188,-88.19333648681641,-166.28135681152344,9.78716945648193,0.18683220446110,-0.14649797976017,1.06306159496307,0.81990730762482,0.61017775535583
130,1852914919,139.10722351074219,-88.19930267333984,-166.19754028320312,9.79684734344482,0.20289899408817,-0.14320679008961,0.44224804639816,0.89108502864838,0.41946560144424
131,1852931586,139.01643371582031,-88.20529174804688,-166.11943054199219,9.77919197082520,0.20003737509251,-0.14866837859154,0.14949491620064,0.86903244256973,0.42923679947853
132,1852948253,138.95495605468750,-88.20856475830078,-166.07066345214844,9.77251720428467,0.18658623099327,-0.17240692675114,0.36327129602432,0.70841521024704,0.35571554303169
133,1852964920,139.04580688476562,-88.21173858642578,-166.15653991699219,9.77541160583496,0.18649433553219,-0.22148269414902,1.03050780296326,0.52819150686264,0.55414998531342
134,1852981587,139.09713745117188,-88.21282958984375,-166.20544433593750,9.78933620452881,0.20006293058395,-0.14729724824429,1.24477088451385,0.50191283226013,0.42328184843063
135,1852998254,139.14135742187500,-88.21469116210938,-166.24855041503906,9.80382919311523,0.19330757856369,-0.16178864240646,0.87963610887527,0.55394506454468,0.46326330304146
136,1853014921,139.16601562500000,-88.21886444091797,-166.26792907714844,9.77109909057617,0.16759763658047,-0.18383897840977,1.30246341228485,0.64050316810608,0.47366210818291
137,1853031588,139.23815917968750,-88.21929931640625,-166.32577514648438,9.78016567230225,0.18222893774509,-0.18406628072262,1.88887882232666,0.47257348895073,0.42015710473061
138,1853048255,139.28190612792969,-88.21929931640625,-166.37420654296875,9.77793598175049,0.20577807724476,-0.13053080439568,0.76829773187637,0.44081375002861,0.37003305554390
139,1853064922,139.32284545898438,-88.21919250488281,-166.42027282714844,9.78611183166504,0.16487105190754,-0.17750146985054,0.90953892469406,0.44264501333237,0.35930129885674
140,1853081589,139.36894226074219,-88.21765136718750,-166.46748352050781,9.78339576721191,0.19904272258282,-0.15980499982834,1.07030999660492,0.38620749115944,0.31737336516380
141,1853098256,139.47883605957031,-88.21480560302734,-166.58102416992188,9.76536178588867,0.18737480044365,-0.16588963568211,0.95340073108673,0.25658160448074,0.36945676803589
142,1853114923,139.68778991699219,-88.21009063720703,-166.79484558105469,9.80074119567871,0.20662978291512,-0.16585309803486,0.99352294206619,0.04225454851985,0.43067112565041
143,1853131590,139.86769104003906,-88.20419311523438,-166.97975158691406,9.80332088470459,0.18246167898178,-0.14683906733990,0.58228546380997,-0.00265091424808,0.34235849976540
144,1853148257,140.11157226562500,-88.19756317138672,-167.22052001953125,9.76528644561768,0.15843349695206,-0.15563480556011,1.32536113262177,-0.08365108072758,0.40589088201523
145,1853164924,140.29257202148438,-88.18943786621094,-167.40965270996094,9.79255580902100,0.22940388321877,-0.16927947103977,0.99459868669510,-0.07754244655371,0.27198764681816
146,1853181591,140.37503051757812,-88.18383026123047,-167.50155639648438,9.79300403594971,0.17189770936966,-0.22349473834038,0.51802319288254,0.12230703979731,0.21640808880329
147,1853198258,140.51895141601562,-88.17876434326172,-167.64784240722656,9.77346134185791,0.17608660459518,-0.19480402767658,1.03936970233917,0.09940928220749,0.32962900400162
148,1853214925,140.59445190429688,-88.17383575439453,-167.72994995117188,9.76578521728516,0.19175623357296,-0.18510806560516,0.77018022537231,0.18185654282570,0.24031750857830
149,1853231592,140.58512878417969,-88.17126464843750,-167.72792053222656,9.79212379455566,0.15330843627453,-0.21368911862373,0.70028322935104,0.39506947994232,0.20828887820244
150,1853248259,140.53382873535156,-88.16859436035156,-167.67370605468750,9.77404880523682,0.20919418334961,-0.16930142045021,0.93256479501724,0.45070022344589,0.13766184449196
151,1853264926,140.43519592285156,-88.16591644287109,-167.58415222167969,9.76162242889404,0.20781022310257,-0.14374200999737,0.87419342994690,0.49837830662727,0.06159213930368
152,1853281593,140.28434753417969,-88.16261291503906,-167.44340515136719,9.79514408111572,0.19660444557667,-0.16074579954147,0.65452611446381,0.53026610612869,-0.03456433489919
153,1853298260,140.12753295898438,-88.15750885009766,-167.30567932128906,9.76477718353271,0.21478386223316,-0.14555531740189,-0.17967307567596,0.43683096766472,-0.09545852243900
154,1853314927,140.20606994628906,-88.14923858642578,-167.38902282714844,9.79458808898926,0.18321268260479,-0.18963554501534,0.77657055854797,0.02428723871708,0.11699239164591
155,1853331594,140.24510192871094,-88.13838195800781,-167.41847229003906,9.78533267974854,0.21287374198437,-0.13828121125698,0.58620423078537,-0.04210727661848,-0.02908321842551
156,1853348261,140.32751464843750,-88.12612152099609,-167.51434326171875,9.78629589080811,0.20496276021004,-0.14834469556808,0.20335845649242,-0.18516701459885,-0.01818501763046
157,1853364928,140.41017150878906,-88.11322021484375,-167.60716247558594,9.78920555114746,0.17406831681728,-0.19976693391800,0.53162348270416,-0.20373620092869,-0.04429716244340
158,1853381595,140.58963012695312,-88.10091400146484,-167.78674316406250,9.76717185974121,0.21793003380299,-0.17713195085526,1.01771426200867,-0.28623473644257,0.12143621593714
159,1853398262,140.74940490722656,-88.08827972412109,-167.95106506347656,9.77132511138916,0.20172922313213,-0.19777271151543,0.99012929201126,-0.27032923698425,0.09061131626368
160,1853414929,140.85057067871094,-88.07613372802734,-168.05712890625000,9.79157924652100,0.19953472912312,-0.17985589802265,0.85991430282593,-0.19501508772373,0.00915013626218
161,1853431596,140.80212402343750,-88.06507873535156,-168.03623962402344,9.78996372222900,0.22113126516342,-0.23701342940331,-0.34568178653717,0.02432566136122,-0.14934763312340
162,1853448263,140.80007934570312,-88.05358123779297,-168.04335021972656,9.78524684906006,0.15417748689651,-0.23919449746609,0.50757330656052,-0.02547183074057,-0.10630551725626
163,1853464930,140.79151916503906,-88.04375457763672,-168.03961181640625,9.77802658081055,0.21022734045982,-0.21510171890259,0.78189802169800,0.04731305688620,-0.07505801320076
164,1853481597,140.62654113769531,-88.03417205810547,-167.88185119628906,9.79338645935059,0.18256561458111,-0.19151331484318,0.67333865165710,0.27897989749908,-0.30115410685539
165,1853498264,140.46806335449219,-88.02513885498047,-167.72947692871094,9.77251529693604,0.20058231055737,-0.21401096880436,0.69458431005478,0.30142942070961,-0.27058535814285
166,1853514931,140.36505126953125,-88.01554870605469,-167.64379882812500,9.78493595123291,0.22144947946072,-0.19021488726139,0.06811056286097,0.16458080708981,-0.20664323866367
167,1853531598,140.29669189453125,-88.00531768798828,-167.58497619628906,9.77622413635254,0.20868216454983,-0.17448280751705,0.39984625577927,0.12543177604675,-0.16412617266178
168,1853548265,140.33328247070312,-87.99260711669922,-167.62808227539062,9.76596736907959,0.21936097741127,-0.22254738211632,0.77060288190842,-0.13586255908012,-0.10986566543579
169,1853564932,140.47203063964844,-87.97890472412109,-167.76734924316406,9.75983333587646,0.17773133516312,-0.21542738378048,0.92166668176651,-0.32496115565300,0.01164737623185
170,1853581599,140.72200012207031,-87.96000671386719,-168.00680541992188,9.74977016448975,0.23417703807354,-0.21979843080044,1.52540922164917,-0.67722541093826,0.00811282359064
171,1853598266,140.92811584472656,-87.94052886962891,-168.22010803222656,9.76078224182129,0.20817339420319,-0.22800493240356,0.78083521127701,-0.69734424352646,-0.08284427970648
172,1853614933,141.14143371582031,-87.91906738281250,-168.44677734375000,9.77065467834473,0.21543608605862,-0.23682913184166,0.73561596870422,-0.80539143085480,-0.13741213083267
173,1853631600,141.22091674804688,-87.89866638183594,-168.53198242187500,9.79961204528809,0.22545108199120,-0.21458683907986,0.24916674196720,-0.56513142585754,-0.28960278630257
174,1853648267,141.25044250488281,-87.88253021240234,-168.57336425781250,9.79229927062988,0.19034363329411,-0.27213507890701,0.48595613241196,-0.30549544095993,-0.23023255169392
175,1853664934,141.27246093750000,-87.86852264404297,-168.59767150878906,9.79327583312988,0.23516066372395,-0.22331626713276,0.66901010274887,-0.17533172667027,-0.15490560233593
176,1853681601,141.30851745605469,-87.85334014892578,-168.64405822753906,9.79621028900146,0.21231535077095,-0.24246457219124,0.89283955097198,-0.25033855438232,-0.18429617583752
177,1853698268,141.40779113769531,-87.83580780029297,-168.74609375000000,9.76702594757080,0.22463874518871,-0.21799674630165,1.11801350116730,-0.44472607970238,-0.16408774256706
178,1853714935,141.58522033691406,-87.81537628173828,-168.93161010742188,9.75184059143066,0.24097669124603,-0.22929804027081,1.11684823036194,-0.71004807949066,-0.14139491319656
179,1853731602,141.69480895996094,-87.79486846923828,-169.06100463867188,9.80235576629639,0.22374540567398,-0.24685843288898,0.17526130378246,-0.62712687253952,-0.22010274231434
180,1853748269,141.80944824218750,-87.77692413330078,-169.16352844238281,9.79841995239258,0.18316827714443,-0.25918358564377,1.44411432743073,-0.49098259210587,-0.15440616011620
181,1853764936,141.86555480957031,-87.76130676269531,-169.21183776855469,9.77875804901123,0.25749173760414,-0.23883217573166,1.51155257225037,-0.29864406585693,-0.17707338929176
182,1853781603,141.91790771484375,-87.74745178222656,-169.26309204101562,9.75691413879395,0.21979229152203,-0.23820184171200,1.26812958717346,-0.21719568967819,-0.11031389236450
183,1853798270,141.99841308593750,-87.73134613037109,-169.34114074707031,9.76597023010254,0.25366944074631,-0.26750516891479,1.11123895645142,-0.37613528966904,-0.13878241181374
184,1853814937,142.07952880859375,-87.71278381347656,-169.42411804199219,9.76479148864746,0.23240762948990,-0.23557309806347,1.01606214046478,-0.47794574499130,-0.20889715850353
185,1853831604,142.17709350585938,-87.69344329833984,-169.52058410644531,9.78810787200928,0.22267277538776,-0.23985618352890,0.97485136985779,-0.54669022560120,-0.20572118461132
186,1853848271,142.29426574707031,-87.67552947998047,-169.64001464843750,9.79615116119385,0.24805264174938,-0.25625091791153,1.03205716609955,-0.51233071088791,-0.11496260017157
187,1853864938,142.42863464355469,-87.65908050537109,-169.78128051757812,9.78467369079590,0.21216455101967,-0.27545392513275,0.99829971790314,-0.47999474406242,-0.02982598543167
188,1853881605,142.59609985351562,-87.64241027832031,-169.94184875488281,9.80023765563965,0.24849839508533,-0.24325148761272,1.58168029785156,-0.53419131040573,0.00916294287890
189,1853898272,142.80078125000000,-87.62702178955078,-170.13197326660156,9.77976799011230,0.25275060534477,-0.28336784243584,1.71042263507843,-0.51753020286560,0.13790519535542
190,1853914939,143.03410339355469,-87.61156463623047,-170.35061645507812,9.75495052337646,0.24532189965248,-0.30361601710320,1.60820233821869,-0.57231587171555,0.20008002221584
191,1853931606,143.27728271484375,-87.59482574462891,-170.57878112792969,9.74881076812744,0.24272818863392,-0.29492688179016,1.86435484886169,-0.64130353927612,0.17501796782017
192,1853948273,143.52909851074219,-87.57877349853516,-170.81756591796875,9.77318096160889,0.26397046446800,-0.27610090374947,1.84523475170135,-0.63392710685730,0.22135134041309
193,1853964940,143.68162536621094,-87.56481933593750,-170.97108459472656,9.79352092742920,0.25499454140663,-0.26537126302719,0.92983710765839,-0.38399845361710,0.14596039056778
194,1853981607,143.74116516113281,-87.55479431152344,-171.04022216796875,9.79508495330811,0.23149505257607,-0.33305576443672,0.54226565361023,-0.08494451642036,0.09533686935902
195,1853998274,143.80915832519531,-87.54784393310547,-171.11557006835938,9.79105281829834,0.23619934916496,-0.30998277664185,1.25816631317139,0.06747025996447,0.19658388197422
196,1854014941,143.87727355957031,-87.54186248779297,-171.18296813964844,9.76388168334961,0.24186581373215,-0.31266075372696,1.42420065402985,0.11368837952614,0.22382298111916
197,1854031608,143.89279174804688,-87.53875732421875,-171.19966125488281,9.77664852142334,0.26013690233231,-0.27884027361870,0.83309787511826,0.34253782033920,0.25293180346489
198,1854048275,143.93484497070312,-87.53749084472656,-171.24278259277344,9.76401042938232,0.23046404123306,-0.30912268161774,1.08539581298828,0.37737116217613,0.35091322660446
199,1854064942,144.02607727050781,-87.53621673583984,-171.32608032226562,9.78585720062256,0.23801465332508,-0.29420229792595,1.52702260017395,0.31976813077927,0.44443792104721
200,1854081609,144.11238098144531,-87.53828430175781,-171.40304565429688,9.79160785675049,0.25794157385826,-0.24943162500858,1.42509686946869,0.46047151088715,0.53608018159866
201,1854098276,144.18615722656250,-87.53987121582031,-171.46296691894531,9.80422878265381,0.21350446343422,-0.31340259313583,1.60922682285309,0.49340945482254,0.50903320312500
202,1854114943,144.24205017089844,-87.54401397705078,-171.51721191406250,9.77953052520752,0.23850974440575,-0.31344541907310,1.87908196449280,0.65033847093582,0.55120450258255
203,1854131610,144.36451721191406,-87.54864501953125,-171.60778808593750,9.78473186492920,0.25628915429115,-0.31320363283157,2.63164734840393,0.57832837104797,0.66876685619354
204,1854148277,144.50765991210938,-87.55175781250000,-171.73591613769531,9.75645923614502,0.26219105720520,-0.27553308010101,2.07678675651550,0.46180340647697,0.68138104677200
205,1854164944,144.64820861816406,-87.55271911621094,-171.87689208984375,9.75515842437744,0.25570982694626,-0.26996302604675,1.70249533653259,0.35652238130569,0.61690104007721
206,1854181611,144.74571228027344,-87.55360412597656,-171.97016906738281,9.80514144897461,0.19040098786354,-0.30076658725739,1.18584895133972,0.41389486193657,0.54870736598969
207,1854198278,144.76940917968750,-87.55831909179688,-172.00302124023438,9.78608703613281,0.22768080234528,-0.29137724637985,0.88498926162720,0.68829655647278,0.52433681488037
208,1854214945,144.78160095214844,-87.56362152099609,-172.01972961425781,9.77930164337158,0.22969798743725,-0.30970200896263,0.95965009927750,0.74951082468033,0.52746158838272
209,1854231612,144.79525756835938,-87.57069396972656,-172.03157043457031,9.80438327789307,0.24131879210472,-0.27566489577293,1.33637452125549,0.83131778240204,0.57134884595871
210,1854248279,144.78903198242188,-87.57585906982422,-172.02119445800781,9.77952003479004,0.22406242787838,-0.26223576068878,1.27508342266083,0.77403503656387,0.47070384025574
211,1854264946,144.77281188964844,-87.58176422119141,-172.00851440429688,9.74948692321777,0.23625124990940,-0.26302525401115,0.86566448211670,0.81775593757629,0.49046400189400
212,1854281613,144.75746154785156,-87.58605957031250,-172.00247192382812,9.80459213256836,0.24555598199368,-0.30209535360336,0.55671125650406,0.71967208385468,0.44236338138580
213,1854298280,144.71983337402344,-87.59401702880859,-171.97302246093750,9.81165313720703,0.19727768003941,-0.31931009888649,0.79893046617508,0.92685317993164,0.50822633504868
214,1854314947,144.64413452148438,-87.60550689697266,-171.89718627929688,9.78087234497070,0.22826269268990,-0.30287709832191,1.19314837455750,1.19074070453644,0.55569952726364
215,1854331614,144.52418518066406,-87.62109375000000,-171.77738952636719,9.76651859283447,0.22628727555275,-0.32093095779419,1.57199871540070,1.45302760601044,0.58917540311813
216,1854348281,144.39392089843750,-87.63603210449219,-171.64898681640625,9.77528285980225,0.23886857926846,-0.29271283745766,1.63483953475952,1.43508589267731,0.54879695177078
217,1854364948,144.19537353515625,-87.65214538574219,-171.44770812988281,9.77555942535400,0.22416266798973,-0.28476580977440,1.26307106018066,1.58230769634247,0.47028115391731
218,1854381615,144.00903320312500,-87.66762542724609,-171.24623107910156,9.76567935943604,0.18116925656796,-0.26887902617455,1.77503061294556,1.54971563816071,0.46468481421471
219,1854398282,143.86189270019531,-87.68074798583984,-171.08013916015625,9.77656364440918,0.23488725721836,-0.23476222157478,2.28508186340332,1.35062813758850,0.42059257626534
220,1854414949,143.73175048828125,-87.69081115722656,-170.93812561035156,9.78453063964844,0.22463057935238,-0.21404272317886,1.57107651233673,1.20190787315369,0.40270206332207
221,1854431616,143.58721923828125,-87.69845581054688,-170.78981018066406,9.79261970520020,0.23367862403393,-0.23592998087406,1.42618560791016,1.09596109390259,0.29282361268997
222,1854448283,143.51622009277344,-87.70458984375000,-170.70372009277344,9.78689098358154,0.16482725739479,-0.24166071414948,2.00898981094360,0.91897732019424,0.35662487149239
223,1854464950,143.47778320312500,-87.70893859863281,-170.64996337890625,9.76733207702637,0.25803750753403,-0.21555568277836,2.10939168930054,0.78990203142166,0.35539543628693
224,1854481617,143.48022460937500,-87.71321868896484,-170.63685607910156,9.76580524444580,0.21113172173500,-0.26664143800735,2.12050771713257,0.73222225904465,0.43444898724556
225,1854498284,143.57595825195312,-87.71517944335938,-170.70700073242188,9.77966308593750,0.24466685950756,-0.24775274097919,2.73737645149231,0.50458931922913,0.51393795013428
226,1854514951,143.57225036621094,-87.71664428710938,-170.67649841308594,9.77067947387695,0.20834559202194,-0.25813600420952,2.14906573295593,0.62010276317596,0.33183178305626
227,1854531618,143.57408142089844,-87.71792602539062,-170.66468811035156,9.78623008728027,0.25192427635193,-0.21912664175034,1.98876845836639,0.56193619966507,0.31494012475014
228,1854548285,143.55361938476562,-87.71843719482422,-170.63377380371094,9.78779697418213,0.23482465744019,-0.28069898486137,1.58039975166321,0.58589696884155,0.28548556566238
229,1854564952,143.54487609863281,-87.72058868408203,-170.60986328125000,9.78032207489014,0.20713596045971,-0.27581059932709,1.99317407608032,0.64633005857468,0.34461247920990
230,1854581619,143.53114318847656,-87.72299957275391,-170.57966613769531,9.77574825286865,0.23809455335140,-0.24798734486103,2.28098392486572,0.65889316797256,0.32546699047089
231,1854598286,143.57902526855469,-87.72256469726562,-170.61012268066406,9.77306938171387,0.23037859797478,-0.24529920518398,2.14969325065613,0.44128763675690,0.35452458262444
232,1854614953,143.62893676757812,-87.72067260742188,-170.64952087402344,9.78565597534180,0.24934060871601,-0.21172632277012,1.78813135623932,0.37037879228592,0.32624813914299
233,1854631620,143.70278930664062,-87.71732330322266,-170.70309448242188,9.78569698333740,0.22958748042583,-0.25288996100426,1.46017348766327,0.23716719448566,0.31613111495972
234,1854648287,143.80259704589844,-87.71218872070312,-170.79862976074219,9.79221725463867,0.22226269543171,-0.23246014118195,1.31176078319550,0.12201250344515,0.31779596209526
235,1854664954,143.92028808593750,-87.70800018310547,-170.92634582519531,9.77561378479004,0.24389457702637,-0.24856881797314,1.08260393142700,0.13699592649937,0.39518472552299
236,1854681621,144.02984619140625,-87.70304870605469,-171.04539489746094,9.77765464782715,0.24382925033569,-0.24039351940155,1.16977679729462,0.10062589496374,0.34248661994934
237,1854698288,144.16213989257812,-87.69675445556641,-171.18174743652344,9.74567222595215,0.23567079007626,-0.26499360799789,0.87186276912689,0.00825369264930,0.35900679230690
238,1854714955,144.32717895507812,-87.68928527832031,-171.35211181640625,9.75558948516846,0.22291971743107,-0.23811759054661,0.77343308925629,-0.09241061657667,0.39158615469933
239,1854731622,144.46972656250000,-87.68083190917969,-171.49908447265625,9.78409194946289,0.21645709872246,-0.27433443069458,0.68820685148239,-0.10895641893148,0.31851312518120
240,1854748289,144.71073913574219,-87.67063903808594,-171.74205017089844,9.75217342376709,0.21380306780338,-0.28362667560577,0.93317949771881,-0.34881940484047,0.43701031804085
241,1854764956,144.88630676269531,-87.65957641601562,-171.93731689453125,9.80133628845215,0.23760350048542,-0.22630621492863,0.55301016569138,-0.28614506125450,0.31011214852333
242,1854781623,145.02700805664062,-87.65065002441406,-172.09585571289062,9.80505561828613,0.22869488596916,-0.25752624869347,0.21704840660095,-0.15575082600117,0.31695073843002
243,1854798290,145.24699401855469,-87.64158630371094,-172.31704711914062,9.75912189483643,0.23934805393219,-0.23736324906349,0.90458291769028,-0.25482073426247,0.45647591352463
244,1854814957,145.48883056640625,-87.63256072998047,-172.56983947753906,9.77107524871826,0.23238965868950,-0.28786912560463,0.79291152954102,-0.28951314091682,0.50963503122330
245,1854831624,145.71951293945312,-87.62644195556641,-172.80976867675781,9.79929447174072,0.23375521600246,-0.28215560317039,0.42912155389786,-0.13614429533482,0.60408192873001
246,1854848291,145.91038513183594,-87.62101745605469,-172.99835205078125,9.77912330627441,0.19097851216793,-0.29079225659370,1.05797731876373,-0.03425698354840,0.52563017606735
247,1854864958,146.11077880859375,-87.61640930175781,-173.19166564941406,9.75076007843018,0.22492335736752,-0.29110351204872,1.19605541229248,0.00200419384055,0.57440960407257
248,1854881625,146.24320983886719,-87.61181640625000,-173.31996154785156,9.77558326721191,0.21182478964329,-0.30600419640541,0.99832540750504,0.09080341458321,0.44026312232018
249,1854898292,146.31004333496094,-87.61000823974609,-173.39782714843750,9.77913570404053,0.22707843780518,-0.27840059995651,0.43501245975494,0.30586045980453,0.41475287079811
250,1854914959,146.35493469238281,-87.60910797119141,-173.46066284179688,9.79242801666260,0.19994221627712,-0.30009114742279,0.84285628795624,0.38219910860062,0.37854927778244
251,1854931626,146.39749145507812,-87.60902404785156,-173.49996948242188,9.76254177093506,0.22794736921787,-0.27159586548805,1.06078195571899,0.43460273742676,0.39674711227417
252,1854948293,146.46650695800781,-87.60812377929688,-173.58029174804688,9.77915000915527,0.22665658593178,-0.27358353137970,0.85066813230515,0.37153139710426,0.44527035951614
253,1854964960,146.51158142089844,-87.60690307617188,-173.63098144531250,9.77415752410889,0.22241607308388,-0.28985634446144,0.80138933658600,0.37415671348572,0.37679484486580
254,1854981627,146.62506103515625,-87.60559082031250,-173.74139404296875,9.78543567657471,0.22385616600513,-0.27914369106293,1.23781692981720,0.28914818167686,0.50561392307281
255,1854998294,146.74209594726562,-87.60550689697266,-173.86079406738281,9.76953506469727,0.23919199407101,-0.29523345828056,1.17555236816406,0.33790192008018,0.55274122953415
256,1855014961,146.86730957031250,-87.60550689697266,-173.98699951171875,9.76939487457275,0.17920614778996,-0.31240803003311,1.18520832061768,0.33347094058990,0.57253986597061
257,1855031628,147.04615783691406,-87.60510253906250,-174.14970397949219,9.76332283020020,0.21107605099678,-0.29987585544586,2.06924366950989,0.24550414085388,0.63365179300308
258,1855048295,147.21806335449219,-87.60420227050781,-174.31147766113281,9.78289699554443,0.24808618426323,-0.27410992980003,1.59654843807220,0.24997356534004,0.63850539922714
259,1855064962,147.36982727050781,-87.60550689697266,-174.46316528320312,9.80530166625977,0.20083604753017,-0.30116009712219,1.35204958915710,0.37402862310410,0.67075175046921
260,1855081629,147.51568603515625,-87.60845184326172,-174.59634399414062,9.78050041198730,0.20036147534847,-0.32457017898560,1.99801480770111,0.46212357282639,0.67623299360275
261,1855098296,147.60968017578125,-87.61476135253906,-174.67193603515625,9.76928710937500,0.23066161572933,-0.31083267927170,1.89521825313568,0.71175771951675,0.68499249219894
262,1855114963,147.68183898925781,-87.62315368652344,-174.72428894042969,9.78496837615967,0.22040185332298,-0.27611255645752,1.53611516952515,0.84076875448227,0.71654713153839
263,1855131630,147.66665649414062,-87.63189697265625,-174.70410156250000,9.78456974029541,0.18418893218040,-0.30359351634979,1.16768932342529,0.98028123378754,0.56474077701569
264,1855148297,147.62115478515625,-87.64349365234375,-174.63990783691406,9.78379440307617,0.22682693600655,-0.31692150235176,1.62584924697876,1.15933966636658,0.56794238090515
265,1855164964,147.55619812011719,-87.65699005126953,-174.56582641601562,9.77523899078369,0.22557337582111,-0.29694142937660,1.60445010662079,1.27102386951447,0.58437293767929
266,1855181631,147.50440979003906,-87.66921234130859,-174.50569152832031,9.77017211914062,0.19589884579182,-0.26934781670570,1.58824968338013,1.20495581626892,0.58498764038086
267,1855198298,147.43601989746094,-87.67914581298828,-174.43357849121094,9.77340030670166,0.19919478893280,-0.26329842209816,1.54577124118805,1.10332465171814,0.47331625223160
268,1855214965,147.30972290039062,-87.68920898437500,-174.30274963378906,9.77579021453857,0.21487586200237,-0.23173388838768,1.40409433841705,1.18557977676392,0.36861151456833
269,1855231632,147.23982238769531,-87.69828796386719,-174.23620605468750,9.76483440399170,0.21080744266510,-0.25654858350754,1.19748985767365,1.06037223339081,0.46373713016510
270,1855248299,147.23083496093750,-87.70304870605469,-174.21171569824219,9.75758171081543,0.20600819587708,-0.22836266458035,1.50600743293762,0.76234275102615,0.43416723608971
271,1855264966,147.26959228515625,-87.70552062988281,-174.24891662597656,9.77666568756104,0.21844637393951,-0.24215804040432,1.16069722175598,0.57639461755753,0.46880850195885
272,1855281633,147.35238647460938,-87.70595550537109,-174.32051086425781,9.77216529846191,0.21878819167614,-0.26619267463684,1.18682205677032,0.40680012106895,0.48530298471451
273,1855298300,147.44754028320312,-87.70535278320312,-174.40957641601562,9.77767372131348,0.20292876660824,-0.25391268730164,1.40568268299103,0.36972573399544,0.48488047719002
274,1855314967,147.52824401855469,-87.70220184326172,-174.49107360839844,9.79917716979980,0.23735669255257,-0.25173595547676,1.18600225448608,0.24688719213009,0.37633374333382
275,1855331634,147.60359191894531,-87.69769287109375,-174.57131958007812,9.76497077941895,0.19366203248501,-0.24148999154568,0.92996507883072,0.16481131315231,0.32247027754784
276,1855348301,147.64994812011719,-87.69284820556641,-174.62901306152344,9.78280448913574,0.22356681525707,-0.27503502368927,0.42846840620041,0.20577882230282,0.28936588764191
277,1855364968,147.68275451660156,-87.68895721435547,-174.67201232910156,9.81845569610596,0.18090602755547,-0.31374782323837,0.36867558956146,0.23665493726730,0.27279445528984
278,1855381635,147.74368286132812,-87.68446350097656,-174.71876525878906,9.77499866485596,0.21107149124146,-0.28472334146500,0.96725714206696,0.19567461311817,0.30044335126877
279,1855398302,147.75082397460938,-87.68074798583984,-174.73100280761719,9.74290466308594,0.20792068541050,-0.25808414816856,0.50037610530853,0.30149346590042,0.23397837579250
280,1855414969,147.77957153320312,-87.67670440673828,-174.75880432128906,9.78956794738770,0.17755731940269,-0.30390810966492,1.38811218738556,0.25247076153755,0.22379735112190
281,1855431636,147.75874328613281,-87.67249298095703,-174.74336242675781,9.78677368164062,0.22792957723141,-0.25844177603722,0.50996810197830,0.31947359442711,0.16463203728199
282,1855448303,147.71420288085938,-87.66712188720703,-174.70555114746094,9.77458953857422,0.21190853416920,-0.26824045181274,0.54536479711533,0.27219253778458,0.06543403863907
283,1855464970,147.71379089355469,-87.66175842285156,-174.73443603515625,9.77308464050293,0.19152377545834,-0.24146550893784,0.76144635677338,0.22306738793850,0.15343928337097
284,1855481637,147.69201660156250,-87.65398406982422,-174.70654296875000,9.76932525634766,0.21350298821926,-0.26659658551216,0.89632284641266,0.13520304858685,0.02709183469415
285,1855498304,147.72671508789062,-87.64349365234375,-174.74768066406250,9.76910209655762,0.23412247002125,-0.27219828963280,0.88752490282059,-0.08082087337971,0.05548351630569
286,1855514971,147.80293273925781,-87.63156890869141,-174.82107543945312,9.76748561859131,0.19910804927349,-0.26376861333847,1.20989918708801,-0.20094445347786,0.08684625476599
287,1855531638,147.93743896484375,-87.61829376220703,-174.95370483398438,9.77899932861328,0.20429313182831,-0.26919940114021,1.16973829269409,-0.33491161465645,0.17935931682587
288,1855548305,148.05567932128906,-87.60550689697266,-175.07019042968750,9.78425312042236,0.22796651721001,-0.27586358785629,1.16993057727814,-0.30562356114388,0.15433573722839
289,1855564972,148.13800048828125,-87.59222412109375,-175.14848327636719,9.78028106689453,0.21139276027679,-0.31344085931778,0.93531811237335,-0.29192078113556,0.07360449433327
290,1855581639,148.20248413085938,-87.57981872558594,-175.21478271484375,9.77515316009521,0.20353250205517,-0.29619762301445,1.00764846801758,-0.19963817298412,0.07380939275026
291,1855598306,148.20632934570312,-87.56941223144531,-175.22052001953125,9.78008651733398,0.22874137759209,-0.27931609749794,0.72088861465454,-0.03571690618992,0.00912452396005
292,1855614973,148.21647644042969,-87.55848693847656,-175.23802185058594,9.77585506439209,0.20812202990055,-0.31442046165466,0.96905004978180,-0.06369877606630,-0.00133186031599
293,1855631640,148.18524169921875,-87.54848480224609,-175.20970153808594,9.77028560638428,0.20932552218437,-0.30470046401024,1.03034114837646,0.01230049785227,-0.08140995353460
294,1855648307,148.13508605957031,-87.53836059570312,-175.16455078125000,9.78261470794678,0.21533060073853,-0.27307561039925,0.81205701828003,0.05741727352142,-0.10183608531952
295,1855664974,148.05857849121094,-87.52899932861328,-175.08113098144531,9.79809951782227,0.21820229291916,-0.28132593631744,0.57398688793182,0.12808269262314,-0.12677004933357
296,1855681641,147.94171142578125,-87.51848602294922,-174.97048950195312,9.76645374298096,0.21612116694450,-0.29525899887085,0.84085845947266,0.13343575596809,-0.26237648725510
297,1855698308,147.91990661621094,-87.50730895996094,-174.94213867187500,9.78151798248291,0.20981581509113,-0.30356255173683,1.48408305644989,-0.03724086657166,-0.11115912348032
298,1855714975,147.87327575683594,-87.49391937255859,-174.89884948730469,9.77249813079834,0.22617007791996,-0.29705765843391,0.76268851757050,-0.10442297160625,-0.19602677226067
299,1855731642,147.90687561035156,-87.47803497314453,-174.92835998535156,9.77358341217041,0.21487234532833,-0.26999139785767,1.39066088199615,-0.35358333587646,-0.13432581722736
300,1855748309,147.94905090332031,-87.46009826660156,-174.96311950683594,9.77402877807617,0.23630045354366,-0.28896364569664,1.35107636451721,-0.45068106055260,-0.16367796063423
301,1855764976,148.08421325683594,-87.43493652343750,-175.09291076660156,9.76253509521484,0.21955391764641,-0.27538549900055,1.41893720626831,-0.95412427186966,-0.18532069027424
302,1855781643,148.34143066406250,-87.40233612060547,-175.33938598632812,9.73699378967285,0.21135069429874,-0.26861044764519,1.81864893436432,-1.51162314414978,-0.15078194439411
303,1855798310,148.70561218261719,-87.36158752441406,-175.69062805175781,9.75244235992432,0.25395044684410,-0.24558162689209,1.53520596027374,-2.09004759788513,-0.12058459222317
304,1855814977,149.02343750000000,-87.31270599365234,-176.02238464355469,9.74975299835205,0.30807498097420,-0.20577082037926,0.44795966148376,-2.47239375114441,-0.40774133801460
305,1855831644,149.25791931152344,-87.26397705078125,-176.28950500488281,9.78838443756104,0.20705488324165,-0.31957677006721,-0.78568238019943,-2.38683462142944,-0.52929919958115
306,1855848311,149.46083068847656,-87.21765899658203,-176.52575683593750,9.79714870452881,0.20858155190945,-0.39846250414848,-0.96242272853851,-2.22644805908203,-0.50124055147171
307,1855864978,149.66040039062500,-87.16994476318359,-176.74232482910156,9.75250720977783,0.17931050062180,-0.38147202134132,0.07502599805593,-2.28197622299194,-0.58117783069611
308,1855881645,149.87039184570312,-87.11772155761719,-176.96353149414062,9.71532154083252,0.26290583610535,-0.38288217782974,0.46728453040123,-2.53076553344727,-0.68688142299652
309,1855898312,149.96400451660156,-87.06729125976562,-177.08865356445312,9.81419754028320,0.30506858229637,-0.31510180234909,-0.77407985925674,-2.29687023162842,-0.86592704057693
310,1855914979,149.85746765136719,-87.02461242675781,-177.03598022460938,9.78927898406982,0.29252356290817,-0.36132961511612,-1.59057414531708,-1.61919629573822,-1.13671708106995
311,1855931646,149.69471740722656,-86.98487854003906,-176.93130493164062,9.78984546661377,0.17760352790356,-0.47992780804634,-2.27068114280701,-1.37695157527924,-1.16810560226440
312,1855948313,149.45372009277344,-86.95143127441406,-176.72378540039062,9.80764675140381,0.20663154125214,-0.46289047598839,-0.94057524204254,-0.86784797906876,-1.25719940662384
313,1855964980,149.08291625976562,-86.92731475830078,-176.38433837890625,9.83602714538574,0.20872151851654,-0.48263898491859,-0.90768837928772,-0.18751056492329,-1.35716569423676
314,1855981647,148.68617248535156,-86.90966033935547,-175.99215698242188,9.77841377258301,0.23434768617153,-0.44189056754112,0.42942896485329,0.23550236225128,-1.30521047115326
315,1855998314,148.29653930664062,-86.89316558837891,-175.59265136718750,9.73347663879395,0.28206449747086,-0.40275150537491,0.88612890243530,0.32098478078842,-1.27396297454834
316,1856014981,147.93705749511719,-86.87375640869141,-175.22926330566406,9.75479412078857,0.30370169878006,-0.38813093304634,1.11675834655762,0.13180935382843,-1.30469799041748
317,1856031648,147.60543823242188,-86.85272216796875,-174.88861083984375,9.74910068511963,0.26241064071655,-0.37462249398232,1.16953361034393,0.02573436126113,-1.28388786315918
318,1856048315,147.27610778808594,-86.83207702636719,-174.56669616699219,9.81018638610840,0.29608821868896,-0.30482921004295,0.75652867555618,0.04751795902848,-1.25105226039886
319,1856064982,146.81628417968750,-86.81328582763672,-174.13003540039062,9.84312343597412,0.24062213301659,-0.34917744994164,-0.05084120854735,0.34799334406853,-1.53945124149323
320,1856081649,146.44169616699219,-86.79490661621094,-173.74363708496094,9.81514072418213,0.31195670366287,-0.36414995789528,1.78227901458740,0.30824244022369,-1.36619424819946
321,1856098316,146.08569335937500,-86.77761077880859,-173.37426757812500,9.78152656555176,0.27558621764183,-0.41070860624313,1.90774273872375,0.33089685440063,-1.30147087574005
322,1856114983,145.82238769531250,-86.75586700439453,-173.07945251464844,9.72913074493408,0.27755326032639,-0.42780840396881,2.74077033996582,-0.02312826551497,-1.23343074321747
323,1856131650,145.58792114257812,-86.73002624511719,-172.82890319824219,9.71174716949463,0.33780559897423,-0.38609686493874,2.27493906021118,-0.28668293356895,-1.27643454074860
324,1856148317,145.32354736328125,-86.70093536376953,-172.55273437500000,9.76081848144531,0.32639595866203,-0.40137758851051,1.81398749351501,-0.38860872387886,-1.45646619796753
325,1856164984,144.98577880859375,-86.67134094238281,-172.22003173828125,9.78863334655762,0.39129400253296,-0.36843201518059,1.31834340095520,-0.27540060877800,-1.67701721191406
326,1856181651,144.61746215820312,-86.63751220703125,-171.87228393554688,9.75060558319092,0.32514011859894,-0.41255965828896,-0.29334223270416,-0.45246112346649,-1.84234702587128
327,1856198318,144.29278564453125,-86.59711456298828,-171.56669616699219,9.74933528900146,0.29446768760681,-0.39645016193390,-0.15973360836506,-0.82563817501068,-1.96267557144165
328,1856214985,143.97248840332031,-86.55235290527344,-171.27326965332031,9.72736930847168,0.33434179425240,-0.35163009166718,-0.22048693895340,-1.04753386974335,-2.13042616844177
329,1856231652,143.72180175781250,-86.49960327148438,-171.05683898925781,9.73972702026367,0.38799309730530,-0.33495536446571,-0.78902488946915,-1.58520841598511,-2.20061755180359
330,1856248319,143.54405212402344,-86.43563842773438,-170.90933227539062,9.72224998474121,0.37622481584549,-0.37909904122353,-1.05606269836426,-2.25515961647034,-2.37042927742004
331,1856264986,143.47061157226562,-86.36083984375000,-170.87236022949219,9.72279357910156,0.42050763964653,-0.30664280056953,-1.03584182262421,-3.01009464263916,-2.46158599853516
332,1856281653,143.39511108398438,-86.27874755859375,-170.87364196777344,9.79657459259033,0.49817043542862,-0.21604573726654,-3.37036275863647,-3.45446181297302,-2.62307381629944
333,1856298320,143.37303161621094,-86.18869781494141,-170.95123291015625,9.74250411987305,0.32451090216637,-0.37730193138123,-4.65546703338623,-3.99481296539307,-2.66200494766235
334,1856314987,143.46618652343750,-86.09089660644531,-171.12680053710938,9.71326923370361,0.42388638854027,-0.38989496231079,-3.86114096641541,-4.63067436218262,-2.60670733451843
335,1856331654,143.61697387695312,-85.98487854003906,-171.36294555664062,9.74271869659424,0.44748845696449,-0.33637991547585,-3.87757182121277,-5.17846727371216,-2.67251968383789
336,1856348321,143.59461975097656,-85.88077545166016,-171.48652648925781,9.78891277313232,0.44353675842285,-0.40202575922012,-7.26736164093018,-4.82750844955444,-2.98855471611023
337,1856364988,143.67924499511719,-85.77024841308594,-171.66647338867188,9.74683856964111,0.34920993447304,-0.49630656838417,-4.74015617370605,-5.30011367797852,-2.96467041969299
338,1856381655,143.79611206054688,-85.65337371826172,-171.87498474121094,9.76715946197510,0.38023880124092,-0.52350270748138,-4.44349670410156,-5.69632911682129,-3.06126856803894
339,1856398322,143.91169738769531,-85.52836608886719,-172.08921813964844,9.73403072357178,0.37645885348320,-0.49967986345291,-5.07532358169556,-6.14117145538330,-3.28319048881531
340,1856414989,144.03404235839844,-85.39857482910156,-172.31871032714844,9.74754047393799,0.46981751918793,-0.50573730468750,-5.30896329879761,-6.42592096328735,-3.37284779548645
341,1856431656,144.09036254882812,-85.26158142089844,-172.49198913574219,9.76371479034424,0.47754663228989,-0.44299408793449,-5.85934209823608,-6.66151952743530,-3.83122611045837
342,1856448323,144.02662658691406,-85.12303924560547,-172.57551574707031,9.86005020141602,0.44739836454391,-0.43208160996437,-7.24706363677979,-6.44076299667358,-4.24549818038940
343,1856464990,144.03703308105469,-84.98104858398438,-172.67080688476562,9.76398372650146,0.45142686367035,-0.55851751565933,-3.86550760269165,-6.66726779937744,-4.28682374954224
344,1856481657,144.05009460449219,-84.82786560058594,-172.78558349609375,9.69354915618896,0.43030673265457,-0.60774779319763,-5.08500671386719,-7.29925060272217,-4.57380247116089
345,1856498324,144.03883361816406,-84.66130828857422,-172.93093872070312,9.68370723724365,0.53732806444168,-0.60426205396652,-7.55861854553223,-8.01079750061035,-4.94983577728271
346,1856514991,144.04678344726562,-84.48210906982422,-173.12368774414062,9.64224052429199,0.48995733261108,-0.63762563467026,-9.56729888916016,-8.81355381011963,-5.13144397735596
347,1856531658,144.18585205078125,-84.29236602783203,-173.40351867675781,9.66864395141602,0.53790235519409,-0.62544852495193,-6.28875303268433,-9.62826633453369,-5.10237264633179
348,1856548325,144.37254333496094,-84.08798980712891,-173.73373413085938,9.63997554779053,0.70478671789169,-0.60521769523621,-6.78293895721436,-10.57897377014160,-5.25718927383423
349,1856564992,144.50920104980469,-83.87458801269531,-174.05255126953125,9.74244785308838,0.63266777992249,-0.63965356349945,-9.65736579895020,-11.07555484771729,-5.49960184097290
350,1856581659,144.59838867187500,-83.65844726562500,-174.33450317382812,9.69427013397217,0.49548950791359,-0.78486961126328,-10.30338287353516,-11.12345123291016,-5.70956230163574
351,1856598326,144.72599792480469,-83.43284606933594,-174.62013244628906,9.69119071960449,0.43221083283424,-0.88324087858200,-8.52003383636475,-11.66225337982178,-5.91044330596924
352,1856614993,144.85597229003906,-83.19972229003906,-174.87507629394531,9.67621517181396,0.56837230920792,-0.89794158935547,-6.44154739379883,-11.95701599121094,-6.27333593368530
353,1856631660,144.93612670898438,-82.96109771728516,-175.10421752929688,9.69074249267578,0.74002707004547,-0.88112080097198,-7.47246074676514,-12.13629341125488,-6.58054828643799
354,1856648327,144.95002746582031,-82.72268676757812,-175.30273437500000,9.66601085662842,0.63889294862747,-0.97395366430283,-9.41920757293701,-12.03070831298828,-6.73300933837891
355,1856664994,144.99740600585938,-82.47999572753906,-175.50927734375000,9.69499301910400,0.84230011701584,-0.88675367832184,-8.25581169128418,-12.32777404785156,-6.73874473571777
356,1856681661,144.90673828125000,-82.23987579345703,-175.61537170410156,9.66070842742920,0.55879515409470,-1.03695428371429,-10.62623214721680,-11.76747131347656,-7.25892782211304
357,1856698328,144.77395629882812,-82.00832366943359,-175.68145751953125,9.74226570129395,0.91388016939163,-1.07630586624146,-10.53117179870605,-11.15382957458496,-7.27094030380249
358,1856714995,144.55012512207031,-81.79046630859375,-175.68943786621094,9.73686313629150,0.77825558185577,-1.26397716999054,-12.59038448333740,-10.17474555969238,-7.20720386505127
359,1856731662,144.33105468750000,-81.58749389648438,-175.66099548339844,9.65939903259277,0.68678998947144,-1.33465445041656,-10.15051460266113,-9.24582099914551,-6.98875141143799
360,1856748329,144.12272644042969,-81.39590454101562,-175.60128784179688,9.64959716796875,0.79616838693619,-1.31241810321808,-7.61700296401978,-8.49786281585693,-6.86393785476685
361,1856764996,143.82414245605469,-81.20809173583984,-175.46774291992188,9.64625072479248,0.81250023841858,-1.28423583507538,-8.85787582397461,-7.88693666458130,-7.29026222229004
362,1856781663,143.42904663085938,-81.02933502197266,-175.27282714843750,9.74980831146240,0.88716632127762,-1.24799025058746,-11.04388427734375,-7.06579446792603,-7.50018548965454
363,1856798330,142.97425842285156,-80.86748504638672,-175.01445007324219,9.72855281829834,0.74148029088974,-1.35774421691895,-10.90090084075928,-5.81523942947388,-7.45026540756226
364,1856814997,142.47474670410156,-80.72307586669922,-174.65864562988281,9.62802314758301,0.83514142036438,-1.27372848987579,-7.76328945159912,-4.31960916519165,-7.65233469009399
365,1856831664,141.95109558105469,-80.59019470214844,-174.28054809570312,9.69833755493164,1.06396794319153,-1.31238079071045,-7.90104675292969,-3.53760147094727,-7.48432826995850
366,1856848331,141.45474243164062,-80.46933746337891,-173.93739318847656,9.85299777984619,1.25091075897217,-1.17164969444275,-8.34499073028564,-3.08727860450745,-6.84057807922363
367,1856864998,140.99723815917969,-80.36106109619141,-173.65670776367188,9.75589179992676,1.36584270000458,-1.10740613937378,-9.72694015502930,-2.80130076408386,-5.93904972076416
368,1856881665,140.64451599121094,-80.25605773925781,-173.45835876464844,9.70297336578369,0.98557221889496,-1.17821991443634,-8.31000518798828,-3.11281466484070,-5.21770572662354
369,1856898332,140.40670776367188,-80.14284515380859,-173.32556152343750,9.61820316314697,1.04259562492371,-1.10161042213440,-5.29280185699463,-3.88234877586365,-5.05516719818115
370,1856914999,140.15409851074219,-80.01564025878906,-173.21913146972656,9.49839878082275,0.88169091939926,-1.19234848022461,-7.74433565139771,-4.65777349472046,-5.40434503555298
371,1856931666,140.08274841308594,-79.86694335937500,-173.19873046875000,9.65280723571777,0.98609578609467,-1.06057429313660,-1.94540011882782,-6.21051740646362,-5.57504081726074
372,1856948333,140.01036071777344,-79.71055603027344,-173.20825195312500,9.62480068206787,1.13692343235016,-1.03488492965698,-3.78586554527283,-6.74969100952148,-5.63041543960571
373,1856965000,140.03039550781250,-79.54078674316406,-173.29727172851562,9.59278011322021,1.19260966777802,-1.12735533714294,-2.92617487907410,-7.91824531555176,-5.49226093292236
374,1856981667,139.88935852050781,-79.36621856689453,-173.39346313476562,9.56001091003418,1.82036423683167,-1.01797342300415,-13.00893306732178,-8.19723701477051,-5.61661386489868
375,1856998334,139.76606750488281,-79.20256805419922,-173.56735229492188,9.52661895751953,1.15653932094574,-1.43783283233643,-16.52593612670898,-8.24950218200684,-4.53474712371826
376,1857015001,139.84202575683594,-79.03265380859375,-173.83070373535156,9.59807300567627,1.47295153141022,-1.20707368850708,-9.83340072631836,-9.21047306060791,-3.98592758178711
377,1857031668,139.94062805175781,-78.85787963867188,-174.15495300292969,9.64893436431885,1.06755840778351,-1.22786974906921,-12.05482959747314,-9.92034244537354,-3.58597278594971
378,1857048335,140.18986511230469,-78.67308807373047,-174.52786254882812,9.76929569244385,0.99201226234436,-1.27669095993042,-5.86728334426880,-10.79888153076172,-3.45938062667847
379,1857065002,140.44906616210938,-78.48446655273438,-174.92611694335938,9.72819328308105,1.45943403244019,-1.12482547760010,-6.74545574188232,-11.22860431671143,-3.26799082756042
380,1857081669,140.67276000976562,-78.29861450195312,-175.36528015136719,9.56561279296875,1.37549734115601,-1.37368917465210,-11.26692008972168,-11.47772693634033,-2.67170119285583
381,1857098336,140.95040893554688,-78.10932159423828,-175.86798095703125,9.56786918640137,1.61330890655518,-1.38354241847992,-11.73951625823975,-12.19749736785889,-2.08196878433228
382,1857115003,141.26695251464844,-77.91913604736328,-176.39364624023438,9.49707508087158,1.16305220127106,-1.46420586109161,-10.73617553710938,-12.49411678314209,-1.75045025348663
383,1857131670,141.62561035156250,-77.71891784667969,-176.89520263671875,9.47302150726318,1.10724794864655,-1.55739164352417,-6.77336025238037,-12.85065746307373,-2.20351362228394
384,1857148337,141.95294189453125,-77.50426483154297,-177.39762878417969,9.66548156738281,1.10699319839478,-1.48554503917694,-8.67860221862793,-13.61697959899902,-2.56830310821533
385,1857165004,142.30427551269531,-77.27964019775391,-177.86843872070312,9.62783813476562,1.14006054401398,-1.64107441902161,-5.36325168609619,-13.92311096191406,-3.08982849121094
386,1857181671,142.72117614746094,-77.04100036621094,-178.34555053710938,9.63630867004395,1.11778163909912,-1.65762746334076,-1.77398824691772,-14.73073387145996,-3.34934973716736
387,1857198338,143.13610839843750,-76.80040740966797,-178.79110717773438,9.57361888885498,1.39871537685394,-1.56050622463226,-0.01780083961785,-14.66437053680420,-3.56079578399658
388,1857215005,143.53779602050781,-76.52483367919922,-179.25590515136719,9.63049507141113,1.16400957107544,-1.46132671833038,-1.91012024879456,-16.60437011718750,-4.39767932891846
389,1857231672,143.93750000000000,-76.23365783691406,-179.72079467773438,9.37370681762695,1.29646265506744,-1.82765018939972,-2.00350451469421,-17.46911048889160,-4.72033596038818
390,1857248339,144.43672180175781,-75.89964294433594,179.73094177246094,9.47619628906250,1.52748310565948,-1.29266929626465,-0.85430014133453,-20.38295173645020,-4.98499536514282
391,1857265006,144.88609313964844,-75.53945922851562,179.17379760742188,9.22402572631836,1.08386898040771,-1.76155686378479,-4.30785894393921,-21.89925765991211,-5.45901107788086
392,1857281673,145.43301391601562,-75.13276672363281,178.56242370605469,9.47416210174561,1.36644470691681,-1.77771282196045,-1.54757380485535,-24.83056831359863,-6.00343751907349
393,1857298340,145.93095397949219,-74.70593261718750,177.96038818359375,9.63802337646484,1.43233954906464,-1.65653252601624,-3.87709331512451,-25.94905662536621,-6.36076307296753
394,1857315007,146.46398925781250,-74.26554107666016,177.38189697265625,9.52669239044189,1.26371955871582,-2.08874654769897,-0.33825504779816,-26.62334442138672,-6.67083263397217
395,1857331674,147.06764221191406,-73.82099914550781,176.80514526367188,9.48940372467041,1.34810233116150,-2.19025754928589,4.06913328170776,-27.02115440368652,-6.34377145767212
396,1857348341,147.69900512695312,-73.37150573730469,176.24145507812500,9.60456180572510,1.33555269241333,-2.10031795501709,6.55815649032593,-27.36508178710938,-6.17800521850586
397,1857365008,148.32209777832031,-72.91478729248047,175.69522094726562,9.63286495208740,1.82960748672485,-2.08588695526123,7.14184713363647,-27.77626419067383,-6.14058637619019
398,1857381675,148.83531188964844,-72.45938873291016,175.20974731445312,9.54483985900879,1.14800393581390,-2.48177099227905,4.10715532302856,-27.33643150329590,-6.53249931335449
399,1857398342,149.40596008300781,-72.00167846679688,174.74543762207031,9.49402046203613,1.48093569278717,-2.52604746818542,8.83391857147217,-27.43601226806641,-6.48404121398926
400,1857415009,149.86073303222656,-71.54837799072266,174.31495666503906,9.39345359802246,1.41341960430145,-2.63574361801147,3.87703657150269,-27.05174446105957,-6.46668577194214
401,1857431676,150.41395568847656,-71.08750915527344,173.87193298339844,9.43332195281982,1.47124433517456,-2.64865255355835,9.13341999053955,-27.72059440612793,-6.06935739517212
402,1857448343,151.01388549804688,-70.60694885253906,173.39779663085938,9.19369506835938,1.68902111053467,-2.52959537506104,10.24755382537842,-29.21484375000000,-5.65093660354614
403,1857465010,151.57109069824219,-70.09459686279297,172.91439819335938,9.10383701324463,1.68733811378479,-2.40327930450439,7.23916816711426,-31.15014648437500,-5.89813995361328
404,1857481677,152.13385009765625,-69.54326629638672,172.42764282226562,9.25616359710693,1.49055159091949,-2.53344392776489,7.47518110275269,-33.42004776000977,-6.40560913085938
405,1857498344,152.74089050292969,-68.95177459716797,171.95056152343750,9.35651779174805,0.97980326414108,-2.81578421592712,10.77590179443359,-35.65597534179688,-7.11477088928223
406,1857515011,153.35549926757812,-68.32065582275391,171.44816589355469,9.55013179779053,1.31966471672058,-2.79221105575562,9.92721176147461,-38.23331069946289,-7.06101274490356
407,1857531678,154.07418823242188,-67.63936614990234,170.91842651367188,9.72582340240479,1.39576029777527,-2.83260750770569,14.77877712249756,-41.43133544921875,-7.10467910766602
408,1857548345,154.88766479492188,-66.87735748291016,170.36894226074219,9.92114067077637,1.41747725009918,-2.67543697357178,19.52363014221191,-46.25379180908203,-7.88154745101929
409,1857565012,155.81489562988281,-66.01223754882812,169.80094909667969,10.01789188385010,1.12570154666901,-2.46764111518860,25.51561164855957,-52.35935592651367,-8.95731830596924
410,1857581679,156.67475891113281,-65.02625274658203,169.27401733398438,10.41105079650879,0.62777262926102,-2.52116918563843,23.93925476074219,-58.93086624145508,-11.52739524841309
411,1857598346,157.68199157714844,-63.84728240966797,168.80390930175781,11.63832473754883,0.18714828789234,-2.38295602798462,36.10774993896484,-69.42917633056641,-15.90630531311035
412,1857615013,158.86827087402344,-62.40881347656250,168.38024902343750,12.61455726623535,-0.05357498675585,-1.67032051086426,49.61855697631836,-83.94396209716797,-20.96552467346191
413,1857631680,160.69139099121094,-60.62271881103516,167.99874877929688,14.89226150512695,-3.03566217422485,-0.96438848972321,90.37406158447266,-103.85097503662109,-26.48696708679199
414,1857648347,163.55375671386719,-58.37767410278320,167.78176879882812,18.67309570312500,-2.53716564178467,4.46888542175293,161.61386108398438,-129.76199340820312,-34.76303863525391
415,1857665014,163.04699707031250,-56.26155853271484,168.68743896484375,23.42674064636230,-1.07810890674591,11.68225002288818,16.45321464538574,-112.71925354003906,-64.29022216796875
416,1857681681,163.08734130859375,-53.17470550537109,169.64010620117188,21.24435806274414,-2.20870661735535,-2.09767031669617,50.20378112792969,-167.13447570800781,-85.23500061035156
417,1857698348,163.84613037109375,-49.12135314941406,169.84260559082031,19.91920280456543,5.35018777847290,-6.70369815826416,56.08658218383789,-230.56265258789062,-76.22650146484375
418,1857715015,162.97738647460938,-45.42228698730469,170.32650756835938,14.36359977722168,2.29445862770081,-9.44664382934570,-29.65179061889648,-206.67625427246094,-81.95634460449219
419,1857731682,165.50166320800781,-42.36657333374023,171.10824584960938,9.68202686309814,-4.78788280487061,-7.65180921554565,185.05766296386719,-166.88536071777344,-82.04824829101562
420,1857748349,171.36627197265625,-40.06604003906250,171.80331420898438,4.24041032791138,-2.98164415359497,-1.03514516353607,380.41250610351562,-128.61048889160156,-58.14579772949219
421,1857765016,176.25016784667969,-38.49966812133789,172.69297790527344,-2.23080301284790,1.52841317653656,5.75892782211304,327.91491699218750,-88.62193298339844,-50.92869186401367
422,1857781683,178.42887878417969,-37.92541122436523,173.93887329101562,-7.23497629165649,1.84597921371460,12.54584503173828,178.07153320312500,-31.31342315673828,-59.96020889282227
423,1857798350,178.92730712890625,-38.42810440063477,175.37429809570312,-12.24358367919922,2.79500818252563,16.90724945068359,84.26115417480469,32.09119796752930,-66.66773986816406
424,1857815017,177.83253479003906,-40.11441421508789,176.92483520507812,-13.78802394866943,2.54770541191101,18.42770957946777,-5.65809059143066,103.54120635986328,-68.80504608154297
425,1857831684,175.78187561035156,-42.94104385375977,178.44143676757812,-15.08773326873779,0.65859508514404,18.60897445678711,-61.53810501098633,173.48889160156250,-58.24749755859375
426,1857848351,173.53073120117188,-46.60916137695312,179.75856018066406,-16.18352699279785,-2.90614461898804,14.25939655303955,-78.20611572265625,224.71742248535156,-35.04079055786133
427,1857865018,171.17958068847656,-50.78114700317383,-179.17462158203125,-16.13296318054199,-3.64888405799866,8.53999996185303,-91.76786041259766,254.08241271972656,-8.26114654541016
428,1857881685,169.01174926757812,-55.23703002929688,-178.34606933593750,-14.02599048614502,-3.55900931358337,1.10618448257446,-89.14556121826172,268.88879394531250,16.82952308654785
429,1857898352,167.49287414550781,-59.68713760375977,-177.82312011718750,-11.18283367156982,1.13974559307098,-5.64231395721436,-63.49407577514648,265.23406982421875,38.14970397949219
430,1857915019,165.70251464843750,-63.75941467285156,-177.72358703613281,-4.60360097885132,3.54556012153625,-11.60162162780762,-100.97727203369141,238.74401855468750,54.19440460205078
431,1857931686,165.26252746582031,-67.09718322753906,-178.73091125488281,5.97482395172119,5.74511098861694,-15.30440139770508,-80.22956085205078,187.98158264160156,74.85115051269531
432,1857948353,164.59408569335938,-69.44992065429688,178.81918334960938,10.57003593444824,12.84692573547363,-15.30472850799561,-175.52125549316406,122.57789611816406,89.57077026367188
433,1857965020,163.71109008789062,-70.86019134521484,175.57731628417969,10.06658363342285,1.88966202735901,-10.15974903106689,-234.79316711425781,63.80096054077148,86.96664428710938
434,1857981687,167.43769836425781,-71.99188995361328,171.57670593261719,6.25697708129883,2.45863533020020,-5.28870248794556,-2.82099843025208,47.13552856445312,91.27643585205078
435,1857998354,173.19967651367188,-70.45769500732422,166.46717834472656,1.39054846763611,36.79738616943359,-118.32467651367188,56.53734207153320,-106.76588439941406,82.11997985839844
436,1858015021,171.76686096191406,-63.23912429809570,163.61585998535156,66.70819854736328,31.92998313903809,78.80398559570312,-242.10510253906250,-437.51391601562500,10.47834777832031
437,1858031688,171.62367248535156,-60.46928405761719,161.70133972167969,102.51771545410156,-51.66061401367188,-39.79288864135742,-108.70288085937500,-171.72653198242188,30.04813385009766
438,1858048355,179.74316406250000,-57.21917724609375,158.67433166503906,21.82030487060547,-14.63620185852051,20.80075073242188,332.69006347656250,-201.01623535156250,79.40700531005859
439,1858065022,176.46041870117188,-54.45664978027344,159.65524291992188,-4.99436664581299,0.65041971206665,-16.40809440612793,-147.08833312988281,-164.05198669433594,-38.19799423217773
440,1858081689,178.09338378906250,-52.53734588623047,160.83126831054688,-3.29578757286072,-0.24871921539307,-8.76575946807861,155.81182861328125,-112.50715637207031,-47.07452774047852
441,1858098356,178.74734497070312,-51.30295181274414,161.89172363281250,-3.62025499343872,-8.98324775695801,-14.03032016754150,90.44657897949219,-72.41732025146484,-40.94408416748047
442,1858115023,178.62699890136719,-50.56630325317383,162.09889221191406,5.91862249374390,-0.61931526660919,-11.12488937377930,3.54879903793335,-43.46274566650391,-8.52737236022949
443,1858131690,178.04309082031250,-50.40710067749023,162.26422119140625,14.74244022369385,0.77355873584747,-10.77136898040771,-26.26228713989258,-8.82095050811768,-6.27023744583130
444,1858148357,177.11608886718750,-50.86953353881836,162.32263183593750,18.68202972412109,-2.78057074546814,-11.44855308532715,-51.78700637817383,28.35241699218750,-0.73369753360748
445,1858165024,177.51922607421875,-52.01585769653320,162.31195068359375,16.28077507019043,1.68630909919739,-11.39785861968994,24.80202484130859,69.21716308593750,3.92981219291687
446,1858181691,177.42681884765625,-54.07576370239258,162.24121093750000,15.52720546722412,-2.83954119682312,-13.73756313323975,-7.81725502014160,123.88759613037109,8.31131935119629
447,1858198358,177.84719848632812,-57.17454147338867,161.75555419921875,16.53584861755371,3.41540551185608,-12.22002124786377,2.28082990646362,185.60502624511719,24.41404724121094
448,1858215025,177.01203918457031,-62.42518234252930,161.02661132812500,24.03716659545898,1.88636589050293,-13.58792686462402,-86.76148986816406,314.24685668945312,36.42593383789062
449,1858231692,178.37269592285156,-69.39847564697266,159.34480285644531,38.20107269287109,-3.58641195297241,-11.97002601623535,-9.51274967193604,416.84335327148438,58.33173370361328
450,1858248359,-173.35275268554688,-78.64524841308594,152.35661315917969,54.24839782714844,-7.64544391632080,-7.45382022857666,92.96141815185547,558.77032470703125,91.43093872070312
451,1858265026,-103.08798217773438,-85.29838562011719,85.67730712890625,46.50897598266602,-6.56056785583496,-3.49481487274170,241.29660034179688,601.62286376953125,172.36700439453125
452,1858281693,-49.24967193603516,-83.36777496337891,36.61565399169922,-2.37748003005981,41.97464370727539,-35.34307098388672,299.83383178710938,299.78686523437500,35.11670684814453
453,1858298360,-45.11259841918945,-83.55284118652344,38.93228149414062,-25.81447410583496,-17.03605461120605,-12.94627094268799,387.44467163085938,-18.67179107666016,2.99105572700500
454,1858315027,-81.05945587158203,-85.31002807617188,76.64874267578125,-7.36445426940918,24.89494705200195,-2.72972488403320,97.56936645507812,-237.14111328125000,9.15219116210938
455,1858331694,-132.72206115722656,-83.88429260253906,127.17204284667969,5.24654293060303,-4.32810688018799,-2.36377596855164,-78.77793121337891,-286.61007690429688,-6.04885053634644
456,1858348361,-158.59938049316406,-80.51871490478516,151.13179016113281,9.58629608154297,6.77961826324463,11.45697689056396,-126.18009948730469,-271.84469604492188,-48.25997924804688
457,1858365028,-169.54460144042969,-78.02821350097656,158.36946105957031,6.38616561889648,-7.43768405914307,16.73804855346680,-228.73341369628906,-165.05346679687500,-36.41629409790039
458,1858381695,-173.27558898925781,-77.94169616699219,158.82363891601562,3.80550026893616,-2.56360816955566,9.45097446441650,-196.06434631347656,-5.47038459777832,-4.48303461074829
459,1858398362,-170.20231628417969,-79.69178009033203,154.69438171386719,0.86629694700241,-12.41303920745850,7.40376281738281,-57.54039764404297,111.23681640625000,32.82316589355469
460,1858415029,-159.52844238281250,-82.38560485839844,146.32601928710938,-0.76435452699661,-7.76475763320923,5.52838993072510,145.39443969726562,176.48937988281250,33.71710205078125
461,1858431696,-139.88005065917969,-84.86988830566406,130.43556213378906,-1.09117984771729,-1.48579561710358,1.53818690776825,232.13780212402344,181.17010498046875,17.03952026367188
462,1858448363,-111.93769836425781,-86.32789611816406,105.67605590820312,-1.13334441184998,3.47921085357666,0.13548381626606,196.18106079101562,142.31840515136719,-2.34868407249451
463,1858465030,-84.84325408935547,-86.68288421630859,79.99324035644531,-0.50486141443253,3.07545065879822,-1.37627351284027,88.56906127929688,95.89621734619141,-6.56245899200439
464,1858481697,-68.80304718017578,-86.48871612548828,63.65878295898438,0.54369276762009,1.22260582447052,-1.56019067764282,-14.81902599334717,59.91780853271484,-1.74921727180481
465,1858498364,-61.27616119384766,-86.26850128173828,54.85387039184570,1.25191950798035,-0.00989406742156,-1.73455154895782,-74.50788879394531,36.36417388916016,-1.85067772865295
466,1858515031,-57.14796829223633,-86.06602478027344,49.41750717163086,1.22765946388245,-3.07923126220703,-3.02738404273987,-76.64402008056641,25.49945831298828,-0.43274933099747
467,1858531698,-53.86003112792969,-85.86758422851562,45.50894165039062,0.61384850740433,-2.10228776931763,-1.90213716030121,-35.52869033813477,20.87376403808594,0.74828588962555
468,1858548365,-50.62325668334961,-85.57720947265625,41.96796798706055,0.35824960470200,-1.10842216014862,-1.22680461406708,-16.53623580932617,23.72599220275879,4.33966875076294
469,1858565032,-47.35113525390625,-85.18562316894531,38.61373519897461,0.59058505296707,-0.14319185912609,-0.83415424823761,-3.15088343620300,28.17221260070801,7.36426830291748
470,1858581699,-43.63057708740234,-84.76778411865234,35.19583892822266,0.22191661596298,-0.18728214502335,0.29693388938904,20.07591629028320,30.91015052795410,5.56705570220947
471,1858598366,-38.87081909179688,-84.32318115234375,31.07651329040527,-0.47472065687180,0.51488655805588,0.78443723917007,40.67330932617188,36.07069778442383,0.19670118391514
472,1858615033,-34.23192977905273,-83.86937713623047,27.00616455078125,-0.25995263457298,1.49099647998810,0.35774928331375,36.53635406494141,37.35972976684570,-3.68695759773254
473,1858631700,-30.53442573547363,-83.39363098144531,23.49743652343750,0.19174362719059,1.62936699390411,-0.00578968971968,13.75298786163330,37.14033508300781,-4.14922904968262
474,1858648367,-27.61987876892090,-82.87184143066406,20.26838493347168,0.41943949460983,1.02406990528107,0.01471208594739,-16.35143280029297,39.15003585815430,-4.74320793151855
475,1858665034,-25.27812194824219,-82.26795196533203,17.22213172912598,0.41839551925659,0.20884117484093,-0.09423906356096,-39.60818862915039,43.50285339355469,-4.73066043853760
476,1858681701,-23.60873985290527,-81.63691711425781,14.56320858001709,0.64803498983383,0.88436043262482,-0.59251880645752,-56.67480850219727,44.24431610107422,-4.37018299102783
477,1858698368,-22.83635520935059,-81.10089111328125,12.52210235595703,0.48524084687233,0.51762729883194,-1.46537947654724,-73.61013031005859,37.35597229003906,-3.90268778800964
478,1858715035,-22.68312644958496,-80.78550720214844,11.13061714172363,-0.27557617425919,-0.08596573770046,-2.21687269210815,-72.12740325927734,23.09512519836426,-4.48728179931641
479,1858731702,-22.56689453125000,-80.76671600341797,9.82391262054443,-0.90537750720978,0.46303308010101,-1.92853260040283,-69.28686523437500,6.44433784484863,-10.85318565368652
480,1858748369,-23.19611740112305,-81.03838348388672,9.11454391479492,-1.22466349601746,-0.14450195431709,-3.09011030197144,-78.65554809570312,-11.82551193237305,-12.22045612335205
481,1858765036,-25.17063140869141,-81.67364501953125,9.56370449066162,-1.81638193130493,-0.77422940731049,-3.67048764228821,-90.70316314697266,-35.84128570556641,-11.59248447418213
482,1858781703,-28.81256866455078,-82.70340728759766,11.56437778472900,-2.22425937652588,-1.08994996547699,-4.35096836090088,-98.46580505371094,-61.84964370727539,-13.15968513488770
483,1858798370,-40.67303848266602,-84.67317962646484,21.13762855529785,7.54933834075928,-3.59151601791382,-40.11778259277344,-139.49649047851562,-132.10870361328125,-14.88412952423096
484,1858815037,-158.71775817871094,-82.61276245117188,149.39666748046875,25.36819267272949,40.07323074340820,-39.48470306396484,595.83398437500000,-686.13403320312500,-62.20163726806641
485,1858831704,173.11940002441406,-79.16982269287109,160.00126647949219,67.30981445312500,-11.80375385284424,74.59914398193359,-1059.60754394531250,-216.88569641113281,-73.97849273681641
486,1858848371,-175.95867919921875,-72.27004241943359,158.36895751953125,113.06345367431641,-42.44528961181641,31.42716789245605,560.63421630859375,-414.25552368164062,14.29228591918945
487,1858865038,177.56762695312500,-68.84858703613281,158.00209045410156,4.89270591735840,20.72365760803223,-28.75463676452637,-407.93496704101562,-204.74076843261719,10.52622127532959
488,1858881705,174.42767333984375,-67.70015716552734,157.31237792968750,1.38577914237976,-15.43884181976318,-16.79776573181152,-225.69683837890625,-69.28691864013672,10.80932331085205
489,1858898372,176.89189147949219,-67.82241058349609,157.98820495605469,-25.24523544311523,3.65021991729736,-24.07029533386230,186.49879455566406,9.00572299957275,-14.43539524078369
490,1858915039,175.67639160156250,-68.78141784667969,159.59526062011719,-17.08201599121094,4.33448219299316,-19.17924880981445,17.78612136840820,60.25646972656250,-31.53097534179688
491,1858931706,175.28269958496094,-70.43322753906250,160.14459228515625,-0.71989589929581,0.10348454862833,-13.54462528228760,8.39891624450684,100.24044036865234,-3.32240629196167
492,1858948373,174.89993286132812,-72.67418670654297,160.08172607421875,7.24770307540894,5.53522396087646,-9.08970069885254,-25.41271209716797,134.39402770996094,13.00866317749023
493,1858965040,175.06439208984375,-75.09034729003906,159.55502319335938,14.23696422576904,5.06219148635864,-5.26308584213257,-19.36526489257812,144.17016601562500,21.73950386047363
494,1858981707,176.06359863281250,-77.31522369384766,158.18560791015625,38.68233489990234,-7.25419855117798,12.19859886169434,-18.71841621398926,132.08793640136719,30.18781852722168
495,1858998374,-179.78744506835938,-79.05744171142578,154.92422485351562,14.97979545593262,-0.49982720613480,6.55142784118652,58.50143051147461,103.64490509033203,43.75658798217773
496,1859015041,-177.79742431640625,-80.52066040039062,152.11459350585938,2.05685877799988,3.89862871170044,-3.32378268241882,-45.38042068481445,88.88366699218750,28.35178756713867
497,1859031708,-175.34124755859375,-81.97319030761719,148.34538269042969,8.10683250427246,-1.28265821933746,-1.70719408988953,-75.02095794677734,89.51698303222656,29.47178459167480
498,1859048375,-170.38880920410156,-83.30373382568359,142.47911071777344,10.64885807037354,-0.67642444372177,-1.17513501644135,-50.80686950683594,85.20120239257812,35.17498779296875
499,1859065042,-162.54003906250000,-84.61078643798828,134.58305358886719,8.76722240447998,-3.38796949386597,-0.72857904434204,0.90071719884872,88.20494842529297,30.50854682922363
500,1859081709,-150.81820678710938,-85.80530548095703,123.72565460205078,8.15892124176025,-1.16508615016937,1.44569814205170,55.23154830932617,87.50201416015625,22.06697463989258
501,1859098376,-134.35090637207031,-86.73374176025391,107.49505615234375,8.22137928009033,0.60213541984558,0.52576053142548,17.32184219360352,82.68685913085938,17.13505363464355
502,1859115043,-115.03926849365234,-87.22702789306641,87.99516296386719,9.22648334503174,-1.85525679588318,1.55583190917969,-8.64272880554199,67.66792297363281,11.42667675018311
503,1859131710,-96.12937927246094,-87.31307220458984,69.28917694091797,8.74043846130371,-1.75378572940826,2.46950578689575,14.52444839477539,53.34132385253906,9.80757427215576
504,1859148377,-83.44585418701172,-87.19355773925781,56.92750167846680,9.17402362823486,-0.46081635355949,2.34766244888306,21.23386192321777,36.16601181030273,7.27801561355591
505,1859165044,-76.37727355957031,-87.01626586914062,50.21691894531250,9.42930603027344,-0.30185320973396,2.04651737213135,23.09547424316406,22.46146583557129,7.16061401367188
506,1859181711,-72.35551452636719,-86.83405303955078,46.54065704345703,9.65352916717529,-0.20002546906471,1.63419890403748,22.16687202453613,14.89659690856934,7.63070297241211
507,1859198378,-67.74052429199219,-86.70758819580078,42.07377624511719,9.31350517272949,0.75385004281998,0.57617402076721,10.43184375762939,17.33402824401855,2.25321006774902
508,1859215045,-65.18696594238281,-86.64234924316406,39.27254867553711,9.93647766113281,-0.19447267055511,0.76772683858871,-13.46362209320068,11.05262660980225,0.00879156775773
509,1859231712,-63.45191955566406,-86.59233856201172,37.25051498413086,9.65655040740967,-0.42403158545494,-0.18059761822224,-15.88643646240234,8.28956699371338,-0.10279668867588
510,1859248379,-62.68498992919922,-86.54022216796875,36.35675430297852,9.96374416351318,-1.20308721065521,0.11943047493696,-6.39121437072754,4.81662893295288,1.65142381191254
511,1859265046,-62.16242599487305,-86.48743438720703,35.93997955322266,9.60742473602295,-1.11527061462402,0.24514383077621,7.51838636398315,3.34461617469788,2.41783332824707
512,1859281713,-62.01707458496094,-86.43520355224609,36.11435699462891,9.61041927337646,-1.00781583786011,0.48895913362503,20.29306793212891,1.42006623744965,3.38412785530090
513,1859298380,-60.89520645141602,-86.38063812255859,35.24748992919922,9.58305644989014,-0.10161960124969,0.87800574302673,16.52602958679199,4.95863008499146,1.62768232822418
514,1859315047,-59.61528015136719,-86.34880828857422,33.91926574707031,9.64711189270020,-0.31310504674911,0.22324576973915,-1.61284434795380,5.87155103683472,-0.53652197122574
515,1859331714,-58.56686401367188,-86.31671142578125,32.84420013427734,9.83966541290283,-0.70649975538254,0.30471205711365,-0.34145569801331,5.06120443344116,-0.15869627892971
516,1859348381,-57.27724456787109,-86.27133178710938,31.49797821044922,9.96794795989990,-0.58021920919418,0.33458444476128,-2.10079216957092,6.39885330200195,-0.16548366844654
517,1859365048,-55.52444076538086,-86.20997619628906,29.74765968322754,9.67412567138672,-0.03143741562963,0.02556943893433,1.49647974967957,8.30770397186279,-0.43784916400909
518,1859381715,-54.50411224365234,-86.16140747070312,28.69762420654297,9.99323081970215,-0.81599950790405,0.53456878662109,-0.52123135328293,5.64236927032471,0.30376026034355
519,1859398382,-54.00823211669922,-86.13983917236328,28.26200485229492,9.62254333496094,-0.54532599449158,0.84573316574097,4.80233669281006,2.70874190330505,0.34088584780693
520,1859415049,-53.62538146972656,-86.13552856445312,27.88259315490723,9.69068431854248,-0.45630511641502,0.71879184246063,1.38296413421631,1.91970384120941,-0.37905514240265
521,1859431716,-53.47461318969727,-86.14379882812500,27.71518135070801,9.68678474426270,-0.48083442449570,0.56188839673996,0.14707453548908,0.77443206310272,-0.48671811819077
522,1859448383,-53.50122833251953,-86.15916442871094,27.73457717895508,9.77314853668213,-0.49903112649918,0.62410181760788,0.68164992332458,-0.07751683145761,-0.36612069606781
523,1859465050,-53.46235656738281,-86.17167663574219,27.61034584045410,9.81401443481445,-0.54549920558929,0.29499828815460,-3.98299336433411,0.48488047719002,-0.57576078176498
524,1859481717,-53.18378067016602,-86.16870880126953,27.30546951293945,9.91898632049561,-0.73118388652802,0.18401038646698,-0.41116067767143,1.60966205596924,-0.27497792243958
525,1859498384,-52.60824203491211,-86.14202117919922,26.76279449462891,9.87656784057617,-0.74208718538284,0.12765964865685,3.16726088523865,3.23560810089111,0.27484354376793
526,1859515051,-50.83187484741211,-86.06976318359375,25.06458091735840,9.79828262329102,-0.42386433482170,0.30826708674431,6.05478668212891,8.64697170257568,-0.58003818988800
527,1859531718,-49.08995056152344,-86.01105499267578,23.26926040649414,9.73580932617188,-0.40252915024757,0.55651956796646,-1.82676184177399,8.49421596527100,-1.78100478649139
528,1859548385,-47.76785278320312,-85.97119903564453,21.83814430236816,9.72793960571289,-0.42756780982018,0.53498357534409,-5.20879173278809,6.60969781875610,-1.88432669639587
529,1859565052,-46.91788101196289,-85.95465087890625,20.92486381530762,9.69522380828857,-0.75107914209366,0.77581250667572,-2.53263497352600,4.03218793869019,-1.57801139354706
530,1859581719,-46.09334945678711,-85.94006347656250,20.08337974548340,9.61867904663086,-0.28451770544052,1.03700053691864,0.23077686131001,3.72333765029907,-1.50263321399689
531,1859598386,-45.55760192871094,-85.95741271972656,19.48479843139648,9.64394378662109,-0.41549801826477,0.97023314237595,-2.56009173393250,1.62559330463409,-2.19494438171387
532,1859615053,-45.40156555175781,-85.99748229980469,19.29289436340332,9.63684844970703,-0.45090425014496,0.75286912918091,-1.00282680988312,-0.57859086990356,-1.95670795440674
533,1859631720,-45.71693420410156,-86.05817413330078,19.61724281311035,9.68716526031494,-0.67316180467606,0.76955085992813,1.61659038066864,-2.98623609542847,-1.33239829540253
534,1859648387,-46.43934631347656,-86.14186859130859,20.38425064086914,9.64686203002930,-0.43650522828102,0.88216429948807,3.69106578826904,-5.21578407287598,-1.11950552463531
535,1859665054,-47.70416259765625,-86.24954986572266,21.63181114196777,9.69688606262207,-0.41798320412636,0.75102365016937,-0.08157645910978,-7.50694227218628,-1.00925576686859
536,1859681721,-49.63049697875977,-86.37858581542969,23.53576469421387,9.66865539550781,-0.44480788707733,0.63515073060989,-0.45996579527855,-10.10116481781006,-0.61749678850174
537,1859698388,-52.26541900634766,-86.51844787597656,26.14937973022461,9.69577789306641,-0.41912147402763,0.56461125612259,-0.45790404081345,-12.31105709075928,-0.04950936883688
538,1859715055,-55.24891281127930,-86.64485931396484,29.12058067321777,9.82149791717529,-0.38821718096733,0.45802572369576,0.07088957726955,-12.54472160339355,0.51255518198013
539,1859731722,-58.06159591674805,-86.74472045898438,31.90460205078125,9.81679725646973,-0.29262238740921,0.29857993125916,-0.87519901990891,-10.82282924652100,0.64051622152328
540,1859748389,-60.62078475952148,-86.82362365722656,34.42235565185547,9.83027458190918,-0.45320516824722,0.19527278840542,-1.60000026226044,-9.18531894683838,0.60660499334335
541,1859765056,-62.97528839111328,-86.89020538330078,36.76463699340820,9.80211544036865,-0.49787142872810,0.27130022644997,0.18514783680439,-8.18046760559082,0.43797084689140
542,1859781723,-65.07545471191406,-86.95271301269531,38.84481430053711,9.83118820190430,-0.49890834093094,0.29979962110519,-0.24738027155399,-7.15731573104858,-0.09453648328781
543,1859798390,-67.20007324218750,-87.01010894775391,40.95256805419922,9.80157756805420,-0.49018111824989,0.23099721968174,-0.06332740932703,-6.97495412826538,-0.11961133033037
544,1859815057,-69.33895111083984,-87.06295013427734,43.11730957031250,9.73209953308105,-0.59350931644440,0.24041147530079,2.51356005668640,-6.91081905364990,-0.14156140387058
545,1859831724,-71.37574768066406,-87.10842895507812,45.22928619384766,9.76663780212402,-0.58795154094696,0.21068091690540,5.47473478317261,-6.47452068328857,-0.05638637393713
546,1859848391,-73.27008819580078,-87.14412689208984,47.25238418579102,9.81876945495605,-0.56163376569748,0.26631695032120,8.69036006927490,-5.93618011474609,0.16135364770889
547,1859865058,-74.81543731689453,-87.16786193847656,48.92043685913086,9.85041046142578,-0.46922948956490,0.05787254497409,8.37443923950195,-4.66089820861816,0.32043418288231
548,1859881725,-76.19437408447266,-87.17999267578125,50.46199798583984,9.79102897644043,-0.48816481232643,0.03202548995614,10.77163791656494,-4.09102916717529,0.75325077772141
549,1859898392,-77.39898681640625,-87.18506622314453,51.84841537475586,9.81695079803467,-0.51824313402176,0.07814614474773,11.94329071044922,-3.54550385475159,0.93880194425583
550,1859915059,-78.34448242187500,-87.18520355224609,52.99124526977539,9.79870319366455,-0.39946451783180,0.10920427739620,12.88479042053223,-2.77855706214905,1.04691338539124
551,1859931726,-79.15059661865234,-87.18464660644531,53.90191268920898,9.76584625244141,-0.38068044185638,0.11240247637033,7.33141231536865,-2.11088371276855,0.88410574197769
552,1859948393,-80.07661437988281,-87.18130493164062,54.94863510131836,9.75904083251953,-0.51284056901932,0.19116632640362,8.29007148742676,-2.49017000198364,1.06189644336700
553,1859965060,-80.99811553955078,-87.18255615234375,55.98551559448242,9.75251579284668,-0.49629187583923,0.21435728669167,7.98512554168701,-2.51786947250366,0.74111002683640
554,1859981727,-82.04438018798828,-87.18798065185547,57.13909530639648,9.81119060516357,-0.47547912597656,0.28087499737740,7.47417783737183,-2.89736032485962,0.51343864202499
555,1859998394,-83.38764190673828,-87.20088958740234,58.55645370483398,9.75569915771484,-0.40504336357117,0.23587094247341,5.47967720031738,-3.71982216835022,0.07492355257273
556,1860015061,-84.98517608642578,-87.21736907958984,60.19649505615234,9.72187900543213,-0.41611126065254,0.24151740968227,3.55588173866272,-4.36166381835938,-0.16239732503891
557,1860031728,-86.93188476562500,-87.23317718505859,62.25826263427734,9.73935794830322,-0.61388742923737,-0.04386281594634,7.89339447021484,-5.54056644439697,-0.19638544321060
558,1860048395,-89.10166168212891,-87.24111175537109,64.67869567871094,9.82778453826904,-0.44664523005486,0.13037677109241,16.00180053710938,-6.51443004608154,0.07243918627501
559,1860065062,-91.26957702636719,-87.24401855468750,67.04753112792969,9.73818397521973,-0.45001131296158,-0.01878913864493,13.02324008941650,-6.34082508087158,0.13084895908833
560,1860081729,-93.46573638916016,-87.24025726318359,69.49073028564453,9.82562923431396,-0.40437626838684,0.08802519738674,15.78355312347412,-6.55916261672974,0.24072758853436
561,1860098396,-95.28190612792969,-87.23941040039062,71.45744323730469,9.77828502655029,-0.40169778466225,0.09406834840775,10.02680683135986,-5.16997671127319,-0.05006004869938
562,1860115063,-97.07213592529297,-87.23770141601562,73.36419677734375,9.78632736206055,-0.49604052305222,0.00711223809049,7.98606204986572,-4.98728084564209,-0.18712644279003
563,1860131730,-99.07955169677734,-87.23572540283203,75.50975799560547,9.76136589050293,-0.38649246096611,0.06617306172848,9.27573871612549,-5.66049861907959,-0.44269007444382
564,1860148397,-101.24317932128906,-87.23402404785156,77.83482360839844,9.80148315429688,-0.43260803818703,0.09533384442329,10.65324211120605,-6.14470720291138,-0.77081447839737
565,1860165064,-103.08995819091797,-87.22780609130859,79.77439117431641,9.76681613922119,-0.38568642735481,0.10372491925955,6.56058645248413,-5.07700157165527,-0.49139264225960
566,1860181731,-105.06478881835938,-87.21906280517578,81.80175781250000,9.75155544281006,-0.36364313960075,0.09883574396372,4.13885211944580,-5.33767366409302,-0.62491148710251
567,1860198398,-107.17938995361328,-87.21140289306641,83.91752624511719,9.73999595642090,-0.39290285110474,-0.02260107919574,1.05464780330658,-5.55358886718750,-0.95764619112015
568,1860215065,-109.45544433593750,-87.19690704345703,86.21037292480469,9.79417324066162,-0.49661058187485,-0.12111790478230,1.97895920276642,-6.14329671859741,-0.97439694404602
569,1860231732,-111.71336364746094,-87.17562103271484,88.51390075683594,9.77681636810303,-0.46835955977440,-0.14810416102409,3.69976115226746,-6.30958652496338,-0.86234122514725
570,1860248399,-113.93122100830078,-87.14836883544922,90.81025695800781,9.78666877746582,-0.38611358404160,-0.06174270436168,5.66949415206909,-6.41326761245728,-0.84842079877853
571,1860265066,-115.93317413330078,-87.11669921875000,92.80070495605469,9.76217365264893,-0.36965146660805,-0.10884258896112,0.29200401902199,-5.70939159393311,-0.49679675698280
572,1860281733,-117.91756439208984,-87.08147430419922,94.78826141357422,9.82389450073242,-0.50747489929199,-0.13712731003761,1.16722857952118,-5.83047533035278,-0.54492306709290
573,1860298400,-119.85923767089844,-87.04528045654297,96.76058197021484,9.84501457214355,-0.52652418613434,-0.19018352031708,2.81281924247742,-5.85703659057617,-0.71241736412048
574,1860315067,-121.77634429931641,-87.00480651855469,98.74858856201172,9.84065055847168,-0.50790917873383,-0.23809197545052,5.22177076339722,-6.04814529418945,-0.78824377059937
575,1860331734,-123.64512634277344,-86.95908355712891,100.72426605224609,9.78012752532959,-0.41702738404274,-0.24245081841946,7.37495470046997,-6.23109769821167,-0.75184816122055
576,1860348401,-125.42436218261719,-86.90966033935547,102.63546752929688,9.77110385894775,-0.39992824196815,-0.31266298890114,8.88203239440918,-6.22050714492798,-0.73330461978912
577,1860365068,-127.09139251708984,-86.86325073242188,104.45464324951172,9.80684852600098,-0.38901811838150,-0.17002706229687,10.09598541259766,-5.92382287979126,-0.94719642400742
578,1860381735,-128.64662170410156,-86.82578277587891,106.13356018066406,9.75447845458984,-0.36902216076851,-0.15545319020748,8.39596748352051,-5.23738908767700,-1.33296227455139
579,1860398402,-130.27955627441406,-86.78868103027344,107.83338928222656,9.78920459747314,-0.35076659917831,-0.16289205849171,4.98075580596924,-5.28405523300171,-1.58997273445129
580,1860415069,-131.80084228515625,-86.75321197509766,109.34761047363281,9.96508884429932,-0.50982356071472,-0.28705477714539,0.55444455146790,-4.74151277542114,-1.44996070861816
581,1860431736,-133.07855224609375,-86.71187591552734,110.69877624511719,9.84438228607178,-0.59511238336563,-0.38446384668350,5.39930486679077,-4.56647586822510,-0.98206776380539
582,1860448403,-134.17953491210938,-86.66305541992188,111.90363311767578,9.72057151794434,-0.28533437848091,-0.30031678080559,7.23679876327515,-4.52857017517090,-0.45307591557503
583,1860465070,-135.28369140625000,-86.61407470703125,113.04907226562500,9.73309993743896,-0.22081403434277,-0.30419039726257,3.48634290695190,-4.41956043243408,-0.43467316031456
584,1860481737,-136.39094543457031,-86.56242370605469,114.15214538574219,9.78609943389893,-0.41233119368553,-0.26311936974525,0.75561952590942,-4.44879865646362,-0.35754051804543
585,1860498404,-137.56567382812500,-86.51024627685547,115.34687042236328,9.75197410583496,-0.40650787949562,-0.28890815377235,2.19052004814148,-4.72355842590332,-0.72371244430542
586,1860515071,-138.83901977539062,-86.45707702636719,116.58692932128906,9.77782344818115,-0.28722494840622,-0.28219377994537,-1.00946068763733,-4.90275812149048,-0.96749418973923
587,1860531738,-140.11650085449219,-86.39945983886719,117.82286834716797,9.76084423065186,-0.40768498182297,-0.40048584342003,-1.51464557647705,-5.10904264450073,-0.95892679691315
588,1860548405,-141.30763244628906,-86.33686065673828,119.00209045410156,9.83213996887207,-0.39328935742378,-0.33712938427925,0.26826104521751,-5.22568273544312,-0.78209662437439
589,1860565072,-142.33421325683594,-86.28143310546875,120.01094818115234,9.83984279632568,-0.34905600547791,-0.43053480982780,-0.06702844053507,-4.50001096725464,-0.69835597276688
590,1860581739,-143.29440307617188,-86.22249603271484,120.96201324462891,9.76218509674072,-0.42035609483719,-0.54501533508301,0.45536184310913,-4.56221151351929,-0.51648020744324
591,1860598406,-144.19673156738281,-86.15859985351562,121.87528991699219,9.72202014923096,-0.36984878778458,-0.48891407251358,1.65847992897034,-4.71600294113159,-0.36262461543083
592,1860615073,-145.09695434570312,-86.09400177001953,122.77524566650391,9.70694828033447,-0.32881930470467,-0.46731635928154,0.98382854461670,-4.74754476547241,-0.42431280016899
593,1860631740,-145.97630310058594,-86.02812194824219,123.64509582519531,9.75142288208008,-0.32629045844078,-0.46657001972198,0.42810991406441,-4.76798391342163,-0.40697300434113
594,1860648407,-146.84977722167969,-85.95872497558594,124.49368286132812,9.78760242462158,-0.40445253252983,-0.53898394107819,-0.49163579940796,-4.92370891571045,-0.34378647804260
595,1860665074,-147.66178894042969,-85.88948822021484,125.29196929931641,9.78149986267090,-0.29568687081337,-0.50901770591736,0.17427523434162,-4.80381584167480,-0.30991372466087
596,1860681741,-148.42190551757812,-85.81942749023438,126.02181243896484,9.73159503936768,-0.33911931514740,-0.54266566038132,-0.80664640665054,-4.72656822204590,-0.14499351382256
597,1860698408,-149.19288635253906,-85.75222778320312,126.74051666259766,9.72259140014648,-0.33336412906647,-0.59122830629349,-2.12447118759155,-4.58482742309570,-0.30079558491707
598,1860715075,-149.89785766601562,-85.68553161621094,127.40747833251953,9.78544044494629,-0.44121149182320,-0.66556078195572,-1.27455210685730,-4.42792415618896,-0.24005505442619
599,1860731742,-150.52975463867188,-85.61881256103516,128.02400207519531,9.77070140838623,-0.35636240243912,-0.66662442684174,0.09273718297482,-4.35036802291870,-0.12830680608749
600,1860748409,-151.09701538085938,-85.55455017089844,128.55928039550781,9.76007938385010,-0.28549909591675,-0.57508111000061,-0.88603287935257,-4.05210781097412,0.03871999680996
601,1860765076,-151.63722229003906,-85.50037384033203,129.03430175781250,9.80804157257080,-0.28754115104675,-0.63280469179153,-2.87425708770752,-3.40076446533203,-0.07525010406971
602,1860781743,-152.05638122558594,-85.45334625244141,129.40766906738281,9.80468082427979,-0.42678672075272,-0.74722063541412,-1.69343471527100,-2.80468010902405,0.09200721234083
603,1860798410,-152.39184570312500,-85.41178894042969,129.72782897949219,9.75426197052002,-0.44683918356895,-0.74976432323456,0.13989017903805,-2.38944721221924,0.12234545499086
604,1860815077,-152.67115783691406,-85.37458801269531,129.99459838867188,9.75761890411377,-0.30864709615707,-0.64719134569168,0.31957605481148,-2.05434322357178,0.20717470347881
605,1860831744,-152.94850158691406,-85.34066009521484,130.23733520507812,9.74586105346680,-0.34163498878479,-0.68197453022003,-1.00114929676056,-1.83345949649811,0.20121979713440
606,1860848411,-153.18139648437500,-85.30886077880859,130.44479370117188,9.75552749633789,-0.35142233967781,-0.66712224483490,-0.44432914257050,-1.64206874370575,0.27990198135376
607,1860865078,-153.32897949218750,-85.27644348144531,130.58493041992188,9.76467609405518,-0.35907706618309,-0.69425076246262,0.64811015129089,-1.52892434597015,0.57899421453476
608,1860881745,-153.46949768066406,-85.24494934082031,130.70603942871094,9.72965049743652,-0.29452276229858,-0.68486094474792,-0.06620882451534,-1.44058632850647,0.62886226177216
609,1860898412,-153.58357238769531,-85.21693420410156,130.78526306152344,9.78562927246094,-0.38419005274773,-0.72060871124268,-0.98669075965881,-1.15008699893951,0.71096366643906
610,1860915079,-153.64608764648438,-85.19666290283203,130.81498718261719,9.80209922790527,-0.33902877569199,-0.73724436759949,-0.84662783145905,-0.64957648515701,0.73247843980789
611,1860931746,-153.62342834472656,-85.18293762207031,130.76997375488281,9.76478099822998,-0.36392658948898,-0.75849133729935,-0.21247014403343,-0.11068528145552,0.88633382320404
612,1860948413,-153.49444580078125,-85.17752838134766,130.61741638183594,9.74609565734863,-0.32863602042198,-0.79063206911087,-0.25841933488846,0.56996577978134,1.15406346321106
613,1860965080,-153.23616027832031,-85.18000793457031,130.36044311523438,9.80373382568359,-0.36792913079262,-0.82422894239426,1.25683438777924,1.22808408737183,1.41646552085876
614,1860981747,-152.82830810546875,-85.19421386718750,129.96627807617188,9.77085018157959,-0.38117456436157,-0.82791000604630,2.02833986282349,2.18141412734985,1.70257210731506
615,1860998414,-152.27159118652344,-85.22455596923828,129.42173767089844,9.80974864959717,-0.35232189297676,-0.78735852241516,1.96850895881653,3.38459682464600,1.90956127643585
616,1861015081,-151.53662109375000,-85.27440643310547,128.71060180664062,9.80867195129395,-0.45490688085556,-0.88023024797440,2.70127582550049,4.81668043136597,2.03647232055664
617,1861031748,-150.61029052734375,-85.34091186523438,127.83899688720703,9.79205703735352,-0.42105907201767,-0.80737274885178,4.58350229263306,6.07592868804932,2.14127969741821
618,1861048415,-149.55296325683594,-85.42059326171875,126.83299255371094,9.77951049804688,-0.38070639967918,-0.73646378517151,4.39924526214600,7.08172845840454,2.15927290916443
619,1861065082,-148.37875366210938,-85.51039886474609,125.71067047119141,9.79710769653320,-0.40958991646767,-0.72001743316650,4.44696140289307,7.87990903854370,2.11277294158936
620,1861081749,-147.10166931152344,-85.60377502441406,124.49407958984375,9.74952793121338,-0.42430275678635,-0.61128556728363,4.97403240203857,8.26648235321045,2.12492632865906
621,1861098416,-145.71768188476562,-85.70372772216797,123.16050720214844,9.80925464630127,-0.42441257834435,-0.52613717317581,4.37812757492065,8.86032581329346,2.06853985786438
622,1861115083,-144.24006652832031,-85.80259704589844,121.75731658935547,9.86121559143066,-0.46145150065422,-0.50216960906982,5.82092952728271,8.95301914215088,2.03336095809937
623,1861131750,-142.74424743652344,-85.89434814453125,120.35081481933594,9.76650619506836,-0.42971256375313,-0.42101702094078,6.70688676834106,8.56649780273438,1.97463119029999
624,1861148417,-141.37562561035156,-85.97528076171875,119.06357574462891,9.73782348632812,-0.34678757190704,-0.31135177612305,6.19830799102783,7.72141885757446,1.65817320346832
625,1861165084,-140.21166992187500,-86.03992462158203,117.95062255859375,9.72461128234863,-0.35346192121506,-0.20078620314598,4.34303712844849,6.46298742294312,1.48136842250824
626,1861181751,-139.31124877929688,-86.09169769287109,117.06824493408203,9.75675010681152,-0.39450958371162,-0.17738030850887,2.33206820487976,5.23113107681274,1.09712648391724
627,1861198418,-138.63720703125000,-86.12763214111328,116.40843200683594,9.76291751861572,-0.40821516513824,-0.21737661957741,2.06572222709656,3.90806961059570,0.93754655122757
628,1861215085,-138.18212890625000,-86.14765930175781,115.96788787841797,9.75020980834961,-0.42693483829498,-0.22193993628025,2.05314588546753,2.60445904731750,0.85293489694595
629,1861231752,-137.92916870117188,-86.15463256835938,115.71566009521484,9.75178527832031,-0.36738753318787,-0.21842220425606,1.20541679859161,1.49404621124268,0.80921393632889
630,1861248419,-137.89077758789062,-86.15076446533203,115.66596221923828,9.73628234863281,-0.41432937979698,-0.24814203381538,0.45263403654099,0.47183069586754,0.63024526834488
631,1861265086,-137.98291015625000,-86.14095306396484,115.74050903320312,9.77171802520752,-0.45197179913521,-0.36665064096451,0.05945347622037,-0.11874046921730,0.48686540126801
632,1861281753,-138.09571838378906,-86.12606048583984,115.84488677978516,9.77429389953613,-0.40660789608955,-0.35452443361282,0.60255795717239,-0.43270093202591,0.60502958297729
633,1861298420,-138.28257751464844,-86.11198425292969,116.00233459472656,9.76082420349121,-0.41624709963799,-0.42476817965508,-0.66470074653625,-0.53709828853607,0.40306061506271
634,1861315087,-138.44943237304688,-86.09926605224609,116.14839172363281,9.77372837066650,-0.44802725315094,-0.41602733731270,-0.14321340620518,-0.45066821575165,0.38364621996880
635,1861331754,-138.56628417968750,-86.08798980712891,116.24476623535156,9.77698802947998,-0.45586970448494,-0.45288032293320,-0.11648655682802,-0.26204350590706,0.48151233792305
636,1861348421,-138.61759948730469,-86.07774353027344,116.28771209716797,9.76879024505615,-0.38840207457542,-0.46187040209770,0.61384034156799,-0.05123820155859,0.58656281232834
637,1861365088,-138.65106201171875,-86.06931304931641,116.30670166015625,9.76580715179443,-0.41039124131203,-0.47688010334969,0.24908992648125,0.08879283070564,0.59268426895142
638,1861381755,-138.66850280761719,-86.06269073486328,116.30798339843750,9.76723003387451,-0.43948727846146,-0.43143364787102,0.15772940218449,0.20398592948914,0.58757448196411
639,1861398422,-138.62475585937500,-86.05821990966797,116.25755310058594,9.83392143249512,-0.45113790035248,-0.49061128497124,0.72531968355179,0.45519530773163,0.65269488096237
640,1861415089,-138.53634643554688,-86.05568695068359,116.17044067382812,9.80769443511963,-0.41646292805672,-0.44330441951752,1.21390759944916,0.64124596118927,0.69044798612595
641,1861431756,-138.44714355468750,-86.05236053466797,116.07164764404297,9.76192855834961,-0.42191961407661,-0.40990465879440,0.56416451931000,0.63191008567810,0.76382821798325
642,1861448423,-138.34631347656250,-86.05027770996094,115.96372985839844,9.77202129364014,-0.41550701856613,-0.41723513603210,0.71186017990112,0.72141373157501,0.73594897985458
643,1861465090,-138.22630310058594,-86.04972839355469,115.83320617675781,9.82363510131836,-0.44222047924995,-0.45850723981857,0.50890511274338,0.84920823574066,0.74872964620590
644,1861481757,-138.09091186523438,-86.05033111572266,115.70307922363281,9.77766418457031,-0.45364212989807,-0.44424441456795,1.46105730533600,0.89642518758774,0.70263957977295
645,1861498424,-137.96783447265625,-86.04933166503906,115.58383941650391,9.75744342803955,-0.40891233086586,-0.41488289833069,1.36754536628723,0.80606371164322,0.72471779584885
646,1861515091,-137.85151672363281,-86.05200958251953,115.45126342773438,9.74616241455078,-0.43575948476791,-0.42318049073219,0.17185480892658,0.98678678274155,0.63226872682571
647,1861531758,-137.71559143066406,-86.05752563476562,115.30042266845703,9.79121875762939,-0.45342683792114,-0.41232979297638,0.24736106395721,1.18615615367889,0.55635267496109
648,1861548425,-137.53326416015625,-86.06921386718750,115.09612274169922,9.79512596130371,-0.46676835417747,-0.45358708500862,-0.16198751330376,1.58590614795685,0.48349729180336
649,1861565092,-137.31306457519531,-86.07983398437500,114.86763763427734,9.77045154571533,-0.44550696015358,-0.46167141199112,0.65442359447479,1.63609409332275,0.57022184133530
650,1861581759,-137.08886718750000,-86.09033966064453,114.63986206054688,9.76029396057129,-0.44997560977936,-0.40555721521378,0.93887823820114,1.60848379135132,0.58228546380997
651,1861598426,-136.87745666503906,-86.10108184814453,114.41600799560547,9.77258300781250,-0.37668222188950,-0.37390992045403,0.40884914994240,1.61086606979370,0.55133259296417
652,1861615093,-136.66366577148438,-86.11032867431641,114.17611694335938,9.78077697753906,-0.47875076532364,-0.39828428626060,-0.40838170051575,1.58744323253632,0.65674167871475
653,1861631760,-136.48927307128906,-86.11556243896484,114.00197601318359,9.76460361480713,-0.46031492948532,-0.38520020246506,1.16388595104218,1.23140120506287,0.62026917934418
654,1861648427,-136.32421875000000,-86.12040710449219,113.83501434326172,9.78968238830566,-0.43130016326904,-0.39480328559875,1.02949595451355,1.18723177909851,0.61869394779205
655,1861665094,-136.16101074218750,-86.12702941894531,113.66350555419922,9.79244422912598,-0.45482242107391,-0.41121920943260,0.64918589591980,1.28215241432190,0.55134540796280
656,1861681761,-135.94721984863281,-86.13208770751953,113.46538543701172,9.76711750030518,-0.48557156324387,-0.44641032814980,2.09266614913940,1.28290808200836,0.69618517160416
657,1861698428,-135.69580078125000,-86.13568115234375,113.23337554931641,9.77513217926025,-0.39526861906052,-0.39179351925850,2.31947970390320,1.32848584651947,0.84231841564178
658,1861715095,-135.47518920898438,-86.14237976074219,113.00671386718750,9.77982902526855,-0.42915743589401,-0.38133275508881,0.78878790140152,1.44192445278168,0.69583940505981
659,1861731762,-135.24653625488281,-86.14862060546875,112.77798461914062,9.78504562377930,-0.49666056036949,-0.43337532877922,1.15063118934631,1.43039858341217,0.71512573957443
660,1861748429,-135.01362609863281,-86.15615844726562,112.55479431152344,9.75562000274658,-0.43922269344330,-0.38354116678238,1.73671400547028,1.46263241767883,0.64698314666748
661,1861765096,-134.77174377441406,-86.16554260253906,112.30849456787109,9.76930618286133,-0.42301875352859,-0.40011471509933,0.89239120483398,1.61203122138977,0.62303525209427
662,1861781763,-134.52107238769531,-86.17377471923828,112.05889892578125,9.79151439666748,-0.48886898159981,-0.41054716706276,1.22251343727112,1.57338178157806,0.67540049552917
663,1861798430,-134.22271728515625,-86.18284606933594,111.78045654296875,9.75858020782471,-0.45887747406960,-0.38268598914146,2.35517096519470,1.69198119640350,0.71287184953690
664,1861815097,-133.94812011718750,-86.19080352783203,111.51551818847656,9.76879787445068,-0.41011738777161,-0.33285468816757,1.73677802085876,1.60560262203217,0.71681624650955
665,1861831764,-133.67073059082031,-86.19954681396484,111.23925781250000,9.77128219604492,-0.47688606381416,-0.36145517230034,1.22650897502899,1.66849458217621,0.70940136909485
666,1861848431,-133.42398071289062,-86.20652008056641,111.00373077392578,9.76379871368408,-0.45736420154572,-0.36739575862885,1.82621741294861,1.48376274108887,0.66215872764587
667,1861865098,-133.14982604980469,-86.21462249755859,110.73956298828125,9.78037929534912,-0.43491682410240,-0.33133682608604,1.76025187969208,1.60304129123688,0.69454598426819
668,1861881765,-132.91093444824219,-86.21887207031250,110.50980377197266,9.75819492340088,-0.45993223786354,-0.35009115934372,1.70158624649048,1.35123002529144,0.75779652595520
669,1861898432,-132.69723510742188,-86.22073364257812,110.31490325927734,9.79226970672607,-0.47565403580666,-0.30677762627602,2.27523374557495,1.15498554706573,0.76609504222870
670,1861915099,-132.53137207031250,-86.22058105468750,110.16261291503906,9.77726745605469,-0.41678938269615,-0.31511589884758,1.95574104785919,0.95363134145737,0.73459142446518
671,1861931766,-132.40701293945312,-86.21959686279297,110.03224182128906,9.75996303558350,-0.47821119427681,-0.31454512476921,0.77529001235962,0.85819828510284,0.71029782295227
672,1861948433,-132.28517150878906,-86.21793365478516,109.91146850585938,9.77284240722656,-0.48066374659538,-0.35755869746208,1.20348322391510,0.79663825035095,0.71997940540314
673,1861965100,-132.16416931152344,-86.21524810791016,109.79627227783203,9.79926395416260,-0.46571955084801,-0.37687903642654,1.48884689807892,0.73760086297989,0.75207215547562
