sep=,
DeviceTag:,Xsens_DOT_4
FirmwareVersion:,3.0.0
AppVersion:,2023.6.0
StartTime: ,2025-04-09_10:58:45_000 CEST
© Movella Technologies B. V. 2005-2025

PacketCounter,SampleTimeFine,Euler_X,Euler_Y,Euler_Z,Acc_X,Acc_Y,Acc_Z,Gyr_X,Gyr_Y,Gyr_Z
0,2179371448,1.38443565368652,-87.96240997314453,66.22211456298828,0.00000000000000,0.00000000000000,0.00000000000000,0.00000000000000,0.00000000000000,0.00000000000000
1,2179388115,2.82313370704651,-88.23110198974609,64.50063323974609,9.91935253143311,-0.50720191001892,1.44709348678589,-16.53935050964355,-16.58810234069824,-4.79376554489136
2,2179404782,4.85510826110840,-88.54895782470703,62.03755569458008,9.87299346923828,-0.39627522230148,1.24840092658997,-25.16511726379395,-19.38720321655273,-4.90054655075073
3,2179421449,9.02793884277344,-88.95077514648438,57.33044433593750,10.00783157348633,-0.35850301384926,1.19690120220184,-30.76318931579590,-24.17062568664551,-5.52643775939941
4,2179438116,21.15655517578125,-89.51301574707031,44.35585021972656,10.01207733154297,-0.34465250372887,1.44280183315277,-46.79766845703125,-32.05937957763672,-5.69880723953247
5,2179454783,111.22518920898438,-90.00000000000000,-46.46353912353516,9.98282909393311,-0.97745400667191,1.73139488697052,-49.81994628906250,-43.06553649902344,-5.88108062744141
6,2179471450,160.01646423339844,-88.96184539794922,-95.89289093017578,10.15940761566162,-1.15060400962830,1.81142723560333,-44.20861816406250,-56.78833389282227,-6.77360153198242
7,2179488117,167.27311706542969,-87.78910827636719,-103.76068878173828,10.39021778106689,-1.48998498916626,1.08068823814392,-35.28469467163086,-69.65464019775391,-7.80996131896973
8,2179504784,169.46638488769531,-86.73481750488281,-106.18333435058594,11.33421134948730,-0.64503788948059,1.27644491195679,-13.12025737762451,-63.30446243286133,-7.68774747848511
9,2179521451,170.49601745605469,-86.09164428710938,-106.95918273925781,11.29337406158447,-0.27509254217148,-0.02076416835189,15.34599590301514,-38.91912841796875,-5.71898603439331
10,2179538118,171.49720764160156,-85.54833984375000,-107.54985809326172,10.89233684539795,-0.16809125244617,0.16483032703400,24.90063858032227,-33.09326171875000,-4.44879293441772
11,2179554785,173.18554687500000,-84.95966339111328,-108.18566894531250,9.05937194824219,-1.04614162445068,-1.70277154445648,63.27106857299805,-35.95148086547852,-3.45876550674438
12,2179571452,174.36624145507812,-84.37844848632812,-108.53560638427734,8.68855857849121,-0.58069187402725,-1.67847919464111,49.93618011474609,-35.43195724487305,-3.72300815582275
13,2179588119,175.14846801757812,-83.92324066162109,-108.69625091552734,7.78609228134155,-1.11540794372559,-2.07338309288025,37.75194931030273,-27.85400581359863,-3.43612384796143
14,2179604786,176.03097534179688,-83.67932128906250,-109.07855224609375,7.72028112411499,-0.66669279336929,-2.02565526962280,29.69649887084961,-15.40644836425781,-0.48209038376808
15,2179621453,175.53834533691406,-83.68009948730469,-109.16484832763672,7.86211061477661,-0.09536349773407,0.57326400279999,-35.40232086181641,-0.61850452423096,-1.22738504409790
16,2179638120,175.66705322265625,-84.06938171386719,-109.43981170654297,7.61731719970703,-3.41561579704285,0.53011298179626,-9.06979560852051,22.48669815063477,1.70955514907837
17,2179654787,177.37077331542969,-84.76763153076172,-110.42958068847656,7.92517280578613,-2.04389786720276,0.18421421945095,42.67732620239258,40.72971343994141,6.46652555465698
18,2179671454,-179.76449584960938,-85.61715698242188,-112.58181762695312,8.34475898742676,-2.21574687957764,-1.23638212680817,43.08649444580078,49.90909576416016,10.03531455993652
19,2179688121,-174.96736145019531,-86.36763000488281,-116.08097839355469,8.87365913391113,-0.44603833556175,-6.07263183593750,78.10575103759766,44.78299331665039,10.80016517639160
20,2179704788,-177.13323974609375,-86.54656982421875,-113.66053009033203,10.26634502410889,7.61604166030884,-3.57656931877136,14.75078773498535,9.41108131408691,-11.59436893463135
21,2179721455,178.42012023925781,-86.63652801513672,-111.44803619384766,10.61095428466797,0.52035313844681,2.17730188369751,-134.28082275390625,4.68484878540039,-9.82565402984619
22,2179738122,179.59657287597656,-86.87713623046875,-112.49044036865234,11.57085037231445,-4.65427827835083,1.16987562179565,8.01277351379395,13.70321655273438,1.98992908000946
23,2179754789,-178.87272644042969,-87.03469848632812,-112.46141815185547,10.93267345428467,4.48710107803345,0.53682053089142,93.32224273681641,8.78567218780518,-1.98438644409180
24,2179771456,-178.38497924804688,-86.89108276367188,-114.27198791503906,10.54987335205078,2.36233305931091,0.55457031726837,-79.21757507324219,-8.98838329315186,4.20056390762329
25,2179788123,-177.13101196289062,-86.86887359619141,-116.10716247558594,9.64710235595703,-2.20576786994934,-0.85321962833405,-34.72889709472656,-1.64318323135376,4.28959465026855
26,2179804790,-175.04653930664062,-86.99984741210938,-118.42955017089844,8.95083522796631,-1.46426248550415,0.17046234011650,-14.26044178009033,7.71786975860596,5.16102838516235
27,2179821457,-172.28359985351562,-87.19969940185547,-121.26480865478516,9.63230419158936,-1.64995682239532,-0.23627401888371,-4.36077594757080,12.19468688964844,5.51658153533936
28,2179838124,-169.81135559082031,-87.44917297363281,-123.61027526855469,9.78603649139404,-0.23542794585228,0.07685254514217,7.42315053939819,15.09473896026611,2.44983816146851
29,2179854791,-167.33802795410156,-87.64649200439453,-126.44213104248047,10.08127689361572,-0.88357901573181,0.43504101037979,-21.72003555297852,12.34750080108643,3.10206365585327
30,2179871458,-163.46171569824219,-87.83174896240234,-130.25480651855469,9.87192153930664,-0.99041736125946,0.40420010685921,3.22576808929443,12.34180831909180,4.31962299346924
31,2179888125,-159.03439331054688,-87.99768066406250,-134.69515991210938,9.52108383178711,-0.14408749341965,0.44815242290497,-0.72781729698181,11.89311027526855,4.37803316116333
32,2179904792,-153.76719665527344,-88.13031005859375,-139.98730468750000,9.64745807647705,-1.02757441997528,0.38553762435913,-1.46537363529205,10.96476364135742,5.10403728485107
33,2179921459,-148.36019897460938,-88.23586273193359,-145.31901550292969,9.87900829315186,-1.16205823421478,0.58448916673660,4.70427370071411,9.86144351959229,4.28759288787842
34,2179938126,-143.47821044921875,-88.32170104980469,-149.96905517578125,9.91622924804688,-1.26864278316498,0.22007080912590,14.45045566558838,8.39033126831055,2.50515508651733
35,2179954793,-139.03889465332031,-88.40775299072266,-154.28732299804688,9.74557304382324,-0.48114338517189,0.21738471090794,7.19217061996460,8.15081691741943,0.97057437896729
36,2179971460,-133.44892883300781,-88.50041198730469,-159.97747802734375,9.79604339599609,-0.67858088016510,0.20038390159607,-6.23348665237427,9.92002010345459,1.34418058395386
37,2179988127,-126.41641998291016,-88.58833312988281,-167.03146362304688,9.85993480682373,-1.05317533016205,0.21824724972248,-1.20363724231720,11.24144268035889,1.47280752658844
38,2180004794,-116.51992797851562,-88.68418884277344,-176.82449340820312,9.81708526611328,-0.23418298363686,0.78638058900833,6.48729324340820,14.74211978912354,1.10024571418762
39,2180021461,-91.99078369140625,-88.75730895996094,158.48861694335938,10.47523784637451,-0.44476220011711,0.26725178956985,-8.05485057830811,33.75723648071289,2.71271681785583
40,2180038128,-68.87210083007812,-88.61280822753906,135.21865844726562,9.56852626800537,0.50693249702454,-0.03197314590216,-7.20080232620239,33.60348510742188,0.75057035684586
41,2180054795,-56.22722625732422,-88.35337829589844,122.12282562255859,9.38882160186768,-0.46603453159332,-0.13470557332039,-25.78412055969238,25.39814186096191,1.56964302062988
42,2180071462,-46.96575546264648,-87.97977447509766,112.41994476318359,10.46643733978271,-0.57081663608551,1.48515987396240,-25.78463363647461,27.98423385620117,3.50519275665283
43,2180088129,-38.45988082885742,-87.38266754150391,103.77391815185547,9.35807514190674,-1.73544001579285,0.57293546199799,-7.77378845214844,39.78090286254883,6.43752098083496
44,2180104796,-35.25054168701172,-86.98506927490234,100.46527862548828,9.59302806854248,-1.22565948963165,0.66549575328827,-5.66477966308594,24.30375289916992,4.48770093917847
45,2180121463,-34.09601593017578,-86.73685455322266,98.87946319580078,9.74252700805664,-0.81978017091751,1.26820933818817,-25.74864387512207,14.63356399536133,2.27848720550537
46,2180138130,-33.40568161010742,-86.51805877685547,97.75779724121094,9.63784408569336,-1.93398869037628,1.09082853794098,-25.84168052673340,12.56116962432861,2.11914968490601
47,2180154797,-33.03461456298828,-86.35583496093750,97.12966918945312,9.68434524536133,-1.65443825721741,1.37360882759094,-15.34802436828613,8.90849018096924,1.52615988254547
48,2180171464,-33.08321380615234,-86.22420501708984,97.01422882080078,9.64485549926758,-1.23999667167664,1.47057080268860,-9.82578468322754,6.33908224105835,2.08894729614258
49,2180188131,-33.08625793457031,-86.00649261474609,96.86387634277344,9.85046958923340,-1.52205240726471,1.15528047084808,-9.17737674713135,10.73470020294189,4.75993204116821
50,2180204798,-32.75092315673828,-85.82866668701172,96.62738037109375,9.69991683959961,-0.99679011106491,0.94694060087204,5.97730159759521,8.98384952545166,3.10121250152588
51,2180221465,-32.43739700317383,-85.72607421875000,96.29109954833984,9.76035308837891,-0.39946863055229,1.19626486301422,-1.30566513538361,5.48677873611450,0.22639067471027
52,2180238132,-32.04945755004883,-85.66361236572266,95.77467346191406,9.72259426116943,-0.14443911612034,1.20115590095520,-7.58819437026978,3.93742918968201,-1.78654384613037
53,2180254799,-31.79581451416016,-85.62081909179688,95.26973724365234,9.80012226104736,-0.84765189886093,0.91946917772293,-14.97020721435547,2.90270280838013,-2.42633795738220
54,2180271466,-31.47696113586426,-85.57526397705078,94.78912353515625,9.70525836944580,-1.01740956306458,0.85083919763565,-9.61141872406006,3.01359152793884,-2.27121329307556
55,2180288133,-31.35670471191406,-85.53213500976562,94.46926879882812,9.66687583923340,-1.35220432281494,1.21024525165558,-11.88919734954834,2.51998353004456,-1.73334670066833
56,2180304800,-31.18656158447266,-85.48854827880859,94.21430206298828,9.57138824462891,-1.15845179557800,1.06560611724854,-5.02343797683716,2.39476180076599,-1.48039495944977
57,2180321467,-31.04175186157227,-85.46111297607422,93.93032836914062,9.70790100097656,-0.90359604358673,1.22602140903473,-8.24928951263428,1.64979779720306,-2.11079454421997
58,2180338134,-30.76631736755371,-85.42517089843750,93.58688354492188,9.81264972686768,-0.90538913011551,1.44051504135132,-3.97838234901428,2.23635387420654,-2.10918045043945
59,2180354801,-30.48036766052246,-85.38654327392578,93.25068664550781,9.79558181762695,-0.48525062203407,1.12144374847412,-2.92764067649841,2.36019778251648,-2.02540755271912
60,2180371468,-30.19442558288574,-85.37577056884766,92.85665130615234,9.74840736389160,-0.99028921127319,1.30199110507965,-6.33092784881592,1.07370996475220,-3.11705923080444
61,2180388135,-29.80621147155762,-85.37483978271484,92.44274902343750,9.77057361602783,-1.84403240680695,1.26291763782501,-1.42055094242096,0.60093802213669,-3.51419758796692
62,2180404802,-29.18821334838867,-85.35413360595703,91.96860504150391,9.79745388031006,-1.80527102947235,1.16475510597229,8.78240394592285,1.77706062793732,-3.19085001945496
63,2180421469,-28.53384590148926,-85.34747314453125,91.55593109130859,9.86398506164551,-1.27631866931915,0.92917364835739,14.57786369323730,0.87244606018066,-3.38048887252808
64,2180438136,-27.87942504882812,-85.36608123779297,90.97878265380859,9.89531612396240,-0.45693838596344,0.94465547800064,4.78784608840942,-0.09523443132639,-4.80566644668579
65,2180454803,-27.26867103576660,-85.38526916503906,90.25902557373047,9.79768562316895,-0.54030030965805,0.99675285816193,-6.35861587524414,0.15398357808590,-5.42655658721924
66,2180471470,-26.49324989318848,-85.38861846923828,89.47626495361328,9.67809677124023,-0.81547695398331,0.79683679342270,-0.21234850585461,1.10353600978851,-5.25871658325195
67,2180488137,-25.62306594848633,-85.44301605224609,88.95758056640625,9.45750236511230,-1.11207139492035,0.43526604771614,21.20548057556152,-2.25556683540344,-5.45882415771484
68,2180504804,-24.74133872985840,-85.51720428466797,88.47806549072266,9.73124790191650,-0.52128976583481,0.91126930713654,24.37931442260742,-3.47248768806458,-5.71820163726807
69,2180521471,-24.13479995727539,-85.60644531250000,88.11734008789062,9.53410434722900,-2.22346186637878,0.29735797643661,14.78462219238281,-4.59295654296875,-5.52034187316895
70,2180538138,-23.00496864318848,-85.67247009277344,87.60689544677734,9.76926708221436,-1.43908202648163,0.35804432630539,37.38792037963867,-3.11379671096802,-5.49289560317993
71,2180554805,-22.43440818786621,-85.71916198730469,87.20529174804688,10.10030651092529,-1.36782622337341,0.90090483427048,10.43656539916992,-2.29782509803772,-4.51208257675171
72,2180571472,-21.40524482727051,-85.76691436767578,86.48057556152344,9.62552165985107,-0.06902381777763,0.50408303737640,18.29110336303711,-1.86828875541687,-5.86118602752686
73,2180588139,-19.89937782287598,-85.84914398193359,84.92776489257812,10.03978443145752,1.56826341152191,1.05844295024872,-2.55501484870911,-2.59243512153625,-9.89986801147461
74,2180604806,-19.13608741760254,-85.98687744140625,83.59748077392578,9.61991500854492,1.41154634952545,0.66057729721069,-33.79110336303711,-6.26561832427979,-9.88670635223389
75,2180621473,-19.88644218444824,-86.11178588867188,82.89132690429688,9.80532932281494,2.48156046867371,1.75753986835480,-87.02133941650391,-6.44792175292969,-6.98613643646240
76,2180638140,-21.57416725158691,-86.18069458007812,82.87559509277344,9.88443279266357,0.41240200400352,2.15063142776489,-102.45970916748047,-4.20754766464233,-3.27586412429810
77,2180654807,-23.15813255310059,-86.18623352050781,83.00363922119141,10.13659954071045,1.07506752014160,3.75065732002258,-87.30684661865234,-0.86383080482483,-1.38712513446808
78,2180671474,-25.09058380126953,-86.11975097656250,83.27637481689453,9.58194923400879,-1.03041744232178,3.31090879440308,-99.70310974121094,2.79348945617676,0.87354528903961
79,2180688141,-26.47169876098633,-86.04383850097656,83.71858215332031,9.59922504425049,-3.13135027885437,1.24055874347687,-56.44613647460938,2.90501236915588,1.84267532825470
80,2180704808,-26.88409042358398,-86.10690307617188,83.89335632324219,10.06914901733398,-0.99332642555237,0.28402444720268,-14.24359893798828,-4.05397510528564,-2.81999230384827
81,2180721475,-28.71627426147461,-86.31034088134766,85.07690429687500,9.84208393096924,-0.51098287105560,0.39404088258743,-39.02540206909180,-13.29625415802002,-3.25957536697388
82,2180738142,-30.60627174377441,-86.57366180419922,86.72324371337891,10.08846855163574,-2.10916948318481,-0.49050402641296,-14.77839374542236,-17.04154777526855,-4.18392515182495
83,2180754809,-31.37819290161133,-86.74574279785156,87.75318908691406,9.86199283599854,-0.24607108533382,1.10723364353180,15.42795848846436,-10.98347663879395,-3.94444417953491
84,2180771476,-32.49428558349609,-86.94136047363281,88.98196411132812,9.47371387481689,-0.17951248586178,-0.00517088640481,6.68357515335083,-12.40247917175293,-4.47229433059692
85,2180788143,-34.14884567260742,-87.23162078857422,91.41080474853516,9.39026451110840,-4.04067182540894,-0.51684433221817,46.31351089477539,-18.85557174682617,-4.99147319793701
86,2180804810,-33.89732360839844,-87.53542327880859,93.59075164794922,9.39812660217285,-3.83894371986389,0.75122022628784,145.88255310058594,-18.64061164855957,-6.82973241806030
87,2180821477,-31.28696250915527,-87.82921600341797,94.03386688232422,9.67395114898682,0.50687801837921,2.42853498458862,183.39520263671875,-15.60795021057129,-10.20482921600342
88,2180838144,-28.88574790954590,-88.05017089843750,93.26929473876953,9.97887611389160,1.70524501800537,3.96406459808350,98.45129394531250,-10.81093406677246,-9.70306968688965
89,2180854811,-27.26809883117676,-88.13072204589844,92.07925415039062,9.37425518035889,0.09748537093401,2.16452240943909,25.73569297790527,-3.43074631690979,-6.07032108306885
90,2180871478,-27.49767875671387,-88.35028839111328,91.72350311279297,9.40126323699951,-0.47450658679008,-0.65320020914078,-34.96224594116211,-11.56608009338379,-8.22728252410889
91,2180888145,-25.31909561157227,-88.56073760986328,89.82972717285156,9.29840564727783,-1.95736396312714,-0.93592917919159,17.54540634155273,-9.93732833862305,-9.95382308959961
92,2180904812,-26.02439117431641,-88.78969573974609,90.47756195068359,9.54406166076660,-0.51029074192047,0.38700211048126,-2.92406940460205,-12.65522384643555,-6.53774166107178
93,2180921479,-24.96071434020996,-88.62599182128906,89.41931915283203,10.65484142303467,-2.11720633506775,1.54465126991272,0.66657060384750,8.70821666717529,0.98297715187073
94,2180938146,-23.59129333496094,-88.21491241455078,88.25848388671875,8.68289184570312,-2.30442547798157,-0.90256983041763,12.41592597961426,22.17095565795898,6.29141521453857
95,2180954813,-21.41651916503906,-87.90669250488281,86.72151184082031,9.27913379669189,-1.91533839702606,-0.44186565279961,38.18227005004883,17.56339645385742,2.26852416992188
96,2180971480,-19.13759613037109,-87.71981048583984,85.14457702636719,9.78150272369385,1.56581842899323,0.59228765964508,42.07321166992188,11.20741653442383,-1.34988772869110
97,2180988147,-18.18584251403809,-87.63934326171875,84.51476287841797,10.03660106658936,0.36141696572304,0.90995335578918,19.47118377685547,4.60427331924438,-1.64220535755157
98,2181004814,-17.42423629760742,-87.63504028320312,84.24872589111328,9.84032917022705,-0.17513456940651,1.08832168579102,29.77913665771484,0.04848499223590,-2.24280238151550
99,2181021481,-17.29656219482422,-87.71638488769531,84.71556854248047,9.55459403991699,-0.67342334985733,0.68455988168716,36.13568115234375,-5.34332752227783,-1.99326014518738
100,2181038148,-17.85296058654785,-87.87928771972656,85.50009918212891,9.77990055084229,0.54476809501648,1.67000734806061,13.77722549438477,-10.13051891326904,-2.81827712059021
101,2181054815,-19.50270462036133,-88.04555511474609,87.16801452636719,9.91753196716309,-0.82255125045776,2.09096670150757,1.19976341724396,-10.84737300872803,-1.35591769218445
102,2181071482,-21.44116210937500,-88.18652343750000,89.45362091064453,10.25511646270752,-0.26957112550735,1.77060806751251,20.75033187866211,-9.76335525512695,-0.22886911034584
103,2181088149,-24.06460571289062,-88.31228637695312,92.32528686523438,10.12469863891602,0.68954354524612,1.09464907646179,14.79562568664551,-9.32745742797852,0.46627968549728
104,2181104816,-28.81126403808594,-88.44405364990234,97.00181579589844,9.77067184448242,0.52336728572845,0.51601505279541,-4.40594387054443,-10.92955303192139,2.26450943946838
105,2181121483,-34.89461135864258,-88.55843353271484,102.73767852783203,9.81365680694580,-0.24941588938236,0.25608268380165,-21.13289833068848,-10.92109298706055,2.80250930786133
106,2181138150,-39.27450180053711,-88.68656921386719,106.98263549804688,10.05629062652588,-1.88861787319183,0.04409515857697,-8.18653392791748,-10.17195415496826,-1.02050662040710
107,2181154817,-42.84213638305664,-88.81634521484375,110.56713104248047,9.79300880432129,-1.42345976829529,-0.53343528509140,1.00527322292328,-9.24148082733154,-2.81065559387207
108,2181171484,-47.05174255371094,-89.00122833251953,114.79579925537109,9.78483200073242,-0.16773730516434,-0.79266524314880,0.44589170813560,-11.40643596649170,-5.38045644760132
109,2181188151,-56.00372314453125,-89.20944213867188,123.22657012939453,9.88040828704834,-0.00689464015886,0.19383412599564,-32.08696746826172,-14.21519470214844,-5.15408563613892
110,2181204818,-67.30232238769531,-89.33736419677734,134.22438049316406,9.88525199890137,-0.69152319431305,-0.10316808521748,-18.83469009399414,-11.95601749420166,-3.00420880317688
111,2181221485,-72.66536712646484,-89.34598541259766,139.40121459960938,10.05948829650879,-0.25661274790764,0.57187098264694,-11.82791233062744,-4.44814729690552,-0.65704298019409
112,2181238152,-69.71126556396484,-89.27099609375000,136.36537170410156,9.85988712310791,-0.32553365826607,0.23213338851929,-4.07610750198364,3.30043339729309,1.27463531494141
113,2181254819,-63.66793823242188,-89.13838195800781,130.14988708496094,9.91377258300781,-0.42310780286789,0.16498832404613,-9.28911113739014,7.73851060867310,2.54098653793335
114,2181271486,-56.63735961914062,-88.95582580566406,122.93823242187500,9.78876590728760,-0.54130506515503,0.22405822575092,-9.65350341796875,11.42786979675293,3.24971580505371
115,2181288153,-51.53332138061523,-88.74414825439453,117.53258514404297,9.66622161865234,-0.49881446361542,0.58513659238815,-17.95945930480957,12.26007747650146,4.01434946060181
116,2181304820,-46.44333648681641,-88.46469116210938,112.16548919677734,9.95858383178711,-0.75759983062744,1.31560349464417,-16.20899772644043,16.37237548828125,5.15407943725586
117,2181321487,-38.08905029296875,-87.97783660888672,104.02088928222656,9.55437850952148,-1.28416705131531,0.50357294082642,12.95945072174072,31.09696769714355,5.92962026596069
118,2181338154,-34.89568328857422,-87.65098571777344,100.98202514648438,9.50490188598633,-0.56131559610367,1.01279163360596,9.22478771209717,19.36218070983887,4.13579177856445
119,2181354821,-33.90843200683594,-87.42686462402344,99.98925781250000,9.45297813415527,-0.52280884981155,1.14649760723114,0.17674051225185,12.07205200195312,3.74930381774902
120,2181371488,-33.01025772094727,-87.24352264404297,99.40322875976562,9.57177829742432,-1.46902751922607,0.79703617095947,18.45845985412598,9.63127326965332,2.96040987968445
121,2181388155,-32.09930038452148,-87.12002563476562,99.20444488525391,9.42708492279053,-1.07329237461090,1.12723112106323,43.25289154052734,6.13617801666260,1.83443212509155
122,2181404822,-32.45792388916016,-87.07791900634766,100.06032562255859,9.60399150848389,-0.48133704066277,1.36403644084930,29.60653877258301,0.35983389616013,1.91705226898193
123,2181421489,-33.34619522094727,-87.08261871337891,101.27035522460938,9.64906406402588,-0.79769957065582,1.17207801342010,19.07930755615234,-2.60862445831299,1.36159837245941
124,2181438156,-34.17889022827148,-87.10856628417969,102.69219207763672,9.59498786926270,-1.36427581310272,0.93792682886124,35.22102355957031,-4.09152603149414,1.13710653781891
125,2181454823,-35.06958389282227,-87.14199829101562,104.18252563476562,9.81130886077881,-0.71012330055237,1.05016422271729,35.73908615112305,-4.57184267044067,0.97697514295578
126,2181471490,-36.67066955566406,-87.18937683105469,106.00751495361328,9.90711975097656,-0.41611886024475,1.09150731563568,13.08251476287842,-5.84728765487671,1.16471278667450
127,2181488157,-38.47212600708008,-87.22554779052734,107.77289581298828,9.83423423767090,-0.78040349483490,0.83544087409973,-2.29391837120056,-5.26907682418823,1.20354092121124
128,2181504824,-40.18139266967773,-87.25034332275391,109.39519500732422,9.80393600463867,-0.71654641628265,0.50703334808350,-5.50178146362305,-4.51071071624756,1.11729013919830
129,2181521491,-41.81669998168945,-87.25305938720703,110.85255432128906,9.82629299163818,-0.59481120109558,0.47919860482216,-10.83510398864746,-3.26642060279846,1.48343682289124
130,2181538158,-43.59174346923828,-87.23643493652344,112.22048187255859,9.88236999511719,-0.45988339185715,0.51617693901062,-24.47651100158691,-2.33089470863342,2.00292992591858
131,2181554825,-45.87368011474609,-87.22286987304688,113.82867431640625,9.79193878173828,-0.75600719451904,0.53428035974503,-40.75192260742188,-3.09435915946960,2.29598712921143
132,2181571492,-48.51515197753906,-87.21202850341797,115.70974731445312,9.79296398162842,-0.80499267578125,0.59047430753708,-45.80773544311523,-3.97197651863098,2.61458945274353
133,2181588159,-51.10466003417969,-87.19704437255859,117.54575347900391,9.82252979278564,-0.81925094127655,0.59674096107483,-45.39428329467773,-3.92031431198120,2.54772639274597
134,2181604826,-53.25250244140625,-87.17714691162109,119.04212188720703,9.74446010589600,-0.89724618196487,0.70503818988800,-39.38808441162109,-3.11209416389465,2.03815460205078
135,2181621493,-54.89874267578125,-87.15064239501953,120.18074798583984,9.51036643981934,-0.85100120306015,0.79055166244507,-30.15803146362305,-2.18212580680847,1.66157805919647
136,2181638160,-56.32676315307617,-87.12847137451172,121.22611999511719,9.78198623657227,-0.86894625425339,0.81149220466614,-22.95744132995605,-2.17819118499756,1.26210653781891
137,2181654827,-57.12395477294922,-87.09350585937500,121.82913208007812,9.88421154022217,-1.02887177467346,0.70424950122833,-12.38274002075195,-0.69057637453079,1.09130644798279
138,2181671494,-57.62973403930664,-87.05204772949219,122.20288848876953,9.68331909179688,-0.85145372152328,0.65448832511902,-8.30797195434570,0.05637355521321,1.05743300914764
139,2181688161,-58.13336563110352,-87.01469421386719,122.61743164062500,9.56618404388428,-0.97990673780441,0.60875511169434,-5.49207401275635,-0.22539816796780,0.94034481048584
140,2181704828,-58.50032424926758,-86.97858428955078,122.98016357421875,9.80954074859619,-1.02250564098358,0.73437070846558,-0.14455166459084,-0.16533637046814,0.80663353204727
141,2181721495,-58.62490844726562,-86.93650817871094,123.13181304931641,9.87152099609375,-0.82203084230423,0.73924005031586,2.65172123908997,0.52742958068848,0.77952253818512
142,2181738162,-58.75009918212891,-86.89209747314453,123.22079467773438,9.74881267547607,-0.65372562408447,0.64204096794128,-2.45123767852783,0.83558231592178,0.78048944473267
143,2181754829,-58.88836288452148,-86.84744262695312,123.30343627929688,9.70538997650146,-0.83789098262787,0.52863699197769,-3.60385370254517,0.85049527883530,0.78269845247269
144,2181771496,-58.87976074218750,-86.79924774169922,123.29322052001953,9.80400943756104,-0.96381109952927,0.59379661083221,0.19930525124073,1.19483244419098,0.82151460647583
145,2181788163,-58.63837814331055,-86.74466705322266,123.07437133789062,9.77011585235596,-0.80594760179520,0.63097417354584,1.29669404029846,2.03051090240479,0.77657705545425
146,2181804830,-58.74215316772461,-86.70384216308594,123.08422851562500,9.63806247711182,-0.80115729570389,0.72099304199219,-5.83185195922852,0.94022941589355,0.45983764529228
147,2181821497,-58.87181854248047,-86.67050933837891,123.22781372070312,9.59878444671631,-1.23123085498810,0.69984573125839,0.08767227828503,0.33826693892479,0.31173217296600
148,2181838164,-58.88908004760742,-86.63500976562500,123.36740875244141,9.74253749847412,-0.88013297319412,0.67172265052795,6.61208534240723,0.41661623120308,0.43468597531319
149,2181854831,-58.99839782714844,-86.60091400146484,123.50794982910156,9.71436691284180,-0.63924169540405,0.59072828292847,1.88973045349121,0.31285911798477,0.36644089221954
150,2181871498,-59.30743408203125,-86.57811737060547,123.81305694580078,9.55512523651123,-1.01038789749146,0.53243851661682,-0.71170645952225,-0.50514006614685,0.11989304423332
151,2181888165,-59.62840652465820,-86.55883789062500,124.21136474609375,9.64483356475830,-1.07551741600037,0.68744462728500,4.33906030654907,-0.93677818775177,0.09913395345211
152,2181904832,-59.95915603637695,-86.54430389404297,124.61841583251953,9.73276996612549,-0.89844053983688,0.76420289278030,4.28117609024048,-1.12130475044250,-0.13265457749367
153,2181921499,-60.24681091308594,-86.52825164794922,124.94532012939453,9.85460472106934,-0.93857997655869,0.72902160882950,2.06148934364319,-0.83327722549438,-0.19298529624939
154,2181938166,-60.44192886352539,-86.51799774169922,125.19191741943359,9.82517528533936,-0.77341306209564,0.67328411340714,3.09667730331421,-0.76723480224609,-0.61463433504105
155,2181954833,-60.69524765014648,-86.51087188720703,125.46310424804688,9.72064208984375,-1.00974023342133,0.60615783929825,1.00476050376892,-0.95176148414612,-0.76391792297363
156,2181971500,-61.00403213500977,-86.50851440429688,125.78697967529297,9.62005424499512,-1.00125300884247,0.65748262405396,1.08626019954681,-1.26843690872192,-0.89237838983536
157,2181988167,-61.34673309326172,-86.50817108154297,126.20177459716797,9.66179466247559,-0.95752155780792,0.66646683216095,4.10425615310669,-1.59689414501190,-0.84301000833511
158,2182004834,-61.73685836791992,-86.50632476806641,126.65166473388672,9.75126743316650,-0.80529528856277,0.69153302907944,3.24949598312378,-1.66973674297333,-0.72131127119064
159,2182021501,-62.11500549316406,-86.50851440429688,127.04776000976562,9.75361442565918,-1.00597083568573,0.63989627361298,0.83347570896149,-1.61939501762390,-1.03612983226776
160,2182038168,-62.37247467041016,-86.50833892822266,127.35784149169922,9.67628192901611,-1.02926456928253,0.58984613418579,3.16971230506897,-1.29302501678467,-1.06636548042297
161,2182054835,-62.62288284301758,-86.50671386718750,127.66760253906250,9.74293994903564,-0.86556965112686,0.57119649648666,3.65929985046387,-1.25277495384216,-0.97852694988251
162,2182071502,-62.88903045654297,-86.50592803955078,127.97528839111328,9.72722339630127,-0.88883119821548,0.67336201667786,2.45022630691528,-1.25980532169342,-1.02657616138458
163,2182088169,-63.16505813598633,-86.50677490234375,128.30677795410156,9.67644119262695,-0.96003574132919,0.60797262191772,2.56807041168213,-1.34431469440460,-1.09582030773163
164,2182104836,-63.46719741821289,-86.50991058349609,128.63945007324219,9.69380569458008,-0.91547840833664,0.62233376502991,2.42853260040283,-1.49115228652954,-1.19688796997070
165,2182121503,-63.73875808715820,-86.51216125488281,128.94207763671875,9.78647327423096,-0.85405266284943,0.60380756855011,1.20357918739319,-1.30485820770264,-1.25135338306427
166,2182138170,-64.00115966796875,-86.51126098632812,129.19442749023438,9.74067687988281,-0.94563823938370,0.60481017827988,-0.63561111688614,-1.07498431205750,-1.11303198337555
167,2182154837,-64.15338897705078,-86.50890350341797,129.36613464355469,9.71160411834717,-1.02268791198730,0.55567598342896,1.49438560009003,-0.80048006772995,-1.17922782897949
168,2182171504,-64.35518646240234,-86.50979614257812,129.60920715332031,9.69413280487061,-0.97829568386078,0.63183254003525,1.57909989356995,-1.04896175861359,-1.26559400558472
169,2182188171,-64.60407257080078,-86.50907135009766,129.88253784179688,9.70747470855713,-1.00431287288666,0.61961442232132,1.68169128894806,-1.17259418964386,-1.10912597179413
170,2182204838,-64.81149291992188,-86.50833892822266,130.14134216308594,9.75098800659180,-0.94545775651932,0.59568333625793,2.27138543128967,-1.06523871421814,-1.15410184860229
171,2182221505,-64.93231201171875,-86.50592803955078,130.30265808105469,9.76019287109375,-0.82773584127426,0.57316112518311,2.55393195152283,-0.74954921007156,-1.18894803524017
172,2182238172,-65.04986572265625,-86.50228881835938,130.43186950683594,9.72255516052246,-0.87269699573517,0.54367667436600,0.44726812839508,-0.58979642391205,-1.18444645404816
173,2182254839,-65.16413116455078,-86.49647521972656,130.55984497070312,9.68047237396240,-0.88053232431412,0.52693384885788,0.21861718595028,-0.51331049203873,-1.08197653293610
174,2182271506,-65.22145080566406,-86.48910522460938,130.62330627441406,9.73122119903564,-0.91548562049866,0.57281416654587,0.60650873184204,-0.30382427573204,-1.07315289974213
175,2182288173,-65.14771270751953,-86.47608184814453,130.58421325683594,9.78488445281982,-0.92938739061356,0.53937005996704,1.17995142936707,0.24763637781143,-0.95359933376312
176,2182304840,-65.05498504638672,-86.46166229248047,130.47509765625000,9.71203899383545,-0.92722809314728,0.56372016668320,-0.60596448183060,0.45398506522179,-0.94808620214462
177,2182321507,-64.94351959228516,-86.45017242431641,130.36198425292969,9.67706394195557,-0.99563133716583,0.55596494674683,0.24531844258308,0.39579305052757,-1.12223970890045
178,2182338174,-64.86199951171875,-86.44113922119141,130.29255676269531,9.74446296691895,-0.89285773038864,0.56109595298767,0.03311721980572,0.25005677342415,-1.20700490474701
179,2182354841,-64.73386383056641,-86.43015289306641,130.14212036132812,9.73945522308350,-0.86490148305893,0.57539290189743,-1.14417684078217,0.52589273452759,-1.21326708793640
180,2182371508,-64.56983184814453,-86.41570281982422,129.95213317871094,9.70221805572510,-0.90903294086456,0.55082488059998,-1.03181397914886,0.73491793870926,-1.08046531677246
181,2182388175,-64.39266967773438,-86.39952087402344,129.78002929687500,9.70456886291504,-0.92163085937500,0.56329739093781,0.18063355982304,0.76149111986160,-0.97928231954575
182,2182404842,-64.10994720458984,-86.38307952880859,129.51052856445312,9.74333000183105,-0.99271434545517,0.54234832525253,0.84516793489456,1.09970688819885,-1.12679874897003
183,2182421509,-63.76927566528320,-86.36698150634766,129.18174743652344,9.69041633605957,-0.95807552337646,0.50708663463593,-0.03175333887339,1.34835469722748,-1.26921784877777
184,2182438176,-63.48509979248047,-86.35471343994141,128.87805175781250,9.63964366912842,-0.91670513153076,0.57663369178772,-1.81803441047668,1.16167688369751,-1.44663727283478
185,2182454843,-63.20262908935547,-86.34505462646484,128.57327270507812,9.74475479125977,-1.03123021125793,0.62890118360519,-1.24706327915192,1.06042993068695,-1.56130552291870
186,2182471510,-62.89792251586914,-86.33686065673828,128.28372192382812,9.70584869384766,-0.96135294437408,0.61854678392410,1.03726959228516,0.96803843975067,-1.62973618507385
187,2182488177,-62.63586807250977,-86.32773590087891,128.01943969726562,9.74549007415771,-0.80153399705887,0.62916529178619,0.52887660264969,0.88043653964996,-1.52265572547913
188,2182504844,-62.35223770141602,-86.32172393798828,127.72155761718750,9.77143383026123,-0.89501756429672,0.62878274917603,-1.36713552474976,0.97919917106628,-1.79012930393219
189,2182521511,-61.96443176269531,-86.31378936767578,127.32576751708984,9.72667789459229,-1.06480467319489,0.56581944227219,-0.42705976963043,1.33994126319885,-1.85300862789154
190,2182538178,-61.60890197753906,-86.30657958984375,126.97785949707031,9.67152500152588,-0.84895777702332,0.63241189718246,-0.90633738040924,1.23907840251923,-1.85678613185883
191,2182554845,-61.26244735717773,-86.30043029785156,126.59023284912109,9.77690982818604,-0.86247789859772,0.61821365356445,-2.49581027030945,1.26666331291199,-1.96047949790955
192,2182571512,-60.82123565673828,-86.29376983642578,126.09832763671875,9.78414058685303,-0.95923978090286,0.62997525930405,-2.79330205917358,1.62878859043121,-2.12194204330444
193,2182588179,-60.32571411132812,-86.28300476074219,125.57309722900391,9.71938228607178,-0.94645154476166,0.62924784421921,-1.37154078483582,1.84907054901123,-1.99343001842499
194,2182604846,-59.90482330322266,-86.27574920654297,125.11596679687500,9.66369628906250,-0.80893653631210,0.62437927722931,-3.44471001625061,1.62128388881683,-2.09746885299683
195,2182621513,-59.46385192871094,-86.27096557617188,124.58897399902344,9.73137283325195,-1.01077175140381,0.62982749938965,-2.47899580001831,1.54575216770172,-2.26767802238464
196,2182638180,-58.97613525390625,-86.26629638671875,124.09029388427734,9.73998737335205,-1.05160212516785,0.69231092929840,-0.78837805986404,1.61165332794189,-2.31419062614441
197,2182654847,-58.54975509643555,-86.26850128173828,123.64631652832031,9.72251892089844,-1.03615272045135,0.71011257171631,-0.59488695859909,1.17667305469513,-2.54859828948975
198,2182671514,-58.20710372924805,-86.27563476562500,123.29914855957031,9.70491027832031,-0.95387226343155,0.69509983062744,-0.18337413668633,0.70632785558701,-2.62991213798523
199,2182688181,-57.86202239990234,-86.28353118896484,122.95929718017578,9.74713516235352,-0.75315088033676,0.69208800792694,0.14110675454140,0.66641044616699,-2.66085195541382
200,2182704848,-57.56639862060547,-86.29487609863281,122.64491271972656,9.75129890441895,-0.92453426122665,0.63320219516754,-1.53397667407990,0.48132663965225,-2.78668093681335
201,2182721515,-57.22311019897461,-86.30753326416016,122.33760833740234,9.69540786743164,-1.00608062744141,0.67210036516190,1.62967193126678,0.40845847129822,-2.85068678855896
202,2182738182,-57.08147430419922,-86.32342529296875,122.19244384765625,9.63059425354004,-0.74371528625488,0.68296766281128,0.36226606369019,-0.28822612762451,-2.61776518821716
203,2182754849,-56.92364883422852,-86.34066772460938,122.06047821044922,9.71936130523682,-0.96910983324051,0.62082064151764,1.71935498714447,-0.35965994000435,-2.67586779594421
204,2182771516,-56.70430374145508,-86.35385131835938,121.86791229248047,9.77028846740723,-0.83965200185776,0.61412686109543,1.89213812351227,-0.04721060022712,-2.60401082038879
205,2182788183,-56.41336059570312,-86.36471557617188,121.56568908691406,9.76981258392334,-0.90065723657608,0.54064846038818,0.18816368281841,0.36089572310448,-2.66855502128601
206,2182804850,-56.07479095458984,-86.36929321289062,121.21917724609375,9.63665676116943,-0.72757488489151,0.53398293256760,-0.29068493843079,0.72077977657318,-2.50983309745789
207,2182821517,-55.79705047607422,-86.36946105957031,120.93075561523438,9.71219253540039,-0.74981880187988,0.58344209194183,-0.39756676554680,0.68736809492111,-2.14877104759216
208,2182838184,-55.28256988525391,-86.36040496826172,120.45892333984375,9.80065822601318,-0.85599768161774,0.59810090065002,1.88615787029266,1.62396037578583,-2.13458156585693
209,2182854851,-54.68175125122070,-86.34553527832031,119.85115814208984,9.80298328399658,-0.87827235460281,0.58703756332397,-0.11904143542051,2.19655799865723,-2.14136910438538
210,2182871518,-53.98790740966797,-86.32821655273438,119.10064697265625,9.74960994720459,-0.82453107833862,0.64029073715210,-2.22833657264709,2.69501924514771,-2.33293914794922
211,2182888185,-53.27863311767578,-86.31145477294922,118.34085845947266,9.72116947174072,-0.97142606973648,0.65326106548309,-3.06127500534058,2.76453280448914,-2.47473120689392
212,2182904852,-52.51067352294922,-86.29096984863281,117.56056213378906,9.76160621643066,-0.98968273401260,0.71548515558243,-1.14541935920715,2.98098564147949,-2.40966224670410
213,2182921519,-51.75500106811523,-86.27448272705078,116.79338073730469,9.74263095855713,-0.83650922775269,0.77790611982346,-0.58818292617798,2.77190303802490,-2.59299159049988
214,2182938186,-51.13415145874023,-86.26592254638672,116.13857269287109,9.67117786407471,-0.81041193008423,0.76086091995239,-0.84583383798599,2.07234930992126,-2.68317365646362
215,2182954853,-50.62931442260742,-86.26487731933594,115.61615753173828,9.70888519287109,-0.81985026597977,0.70560318231583,-0.97407013177872,1.42443740367889,-2.78303098678589
216,2182971520,-50.12608718872070,-86.26766204833984,115.10633850097656,9.77008152008057,-0.88610833883286,0.73237323760986,0.36168971657753,1.20789480209351,-2.89548349380493
217,2182988187,-49.58360290527344,-86.26844787597656,114.58206176757812,9.74432754516602,-0.82168591022491,0.69450014829636,0.40703698992729,1.38148498535156,-2.92427206039429
218,2183004854,-49.10426712036133,-86.26850128173828,114.09280395507812,9.67026424407959,-0.72935891151428,0.65956676006317,-0.79585695266724,1.27593493461609,-2.78424763679504
219,2183021521,-48.74290847778320,-86.26670837402344,113.71741485595703,9.75564479827881,-0.66793078184128,0.68061017990112,-1.40121316909790,1.01252126693726,-2.44207477569580
220,2183038188,-48.28275680541992,-86.26188659667969,113.27631378173828,9.78559589385986,-0.81121110916138,0.71683448553085,1.06523215770721,1.29855096340179,-2.46519017219543
221,2183054855,-47.80683898925781,-86.25524139404297,112.80053710937500,9.73943233489990,-0.88546466827393,0.70937597751617,-0.03700394928455,1.47947919368744,-2.47067165374756
222,2183071522,-47.30973434448242,-86.25174713134766,112.28796386718750,9.68514251708984,-0.88933306932449,0.72071558237076,-1.51740503311157,1.46859359741211,-2.76316809654236
223,2183088189,-46.85500717163086,-86.25362396240234,111.78338623046875,9.71113967895508,-0.94878309965134,0.75017225742340,-1.16589641571045,1.10539281368256,-2.87577438354492
224,2183104856,-46.34970092773438,-86.25080108642578,111.28477478027344,9.81196880340576,-0.78988444805145,0.72562700510025,1.00555443763733,1.32855618000031,-2.72423696517944
225,2183121523,-45.83362197875977,-86.24694061279297,110.75977325439453,9.82128334045410,-0.73949003219604,0.69685173034668,-0.73906081914902,1.47362661361694,-2.80557012557983
226,2183138190,-45.28092575073242,-86.23880767822266,110.18289947509766,9.76706886291504,-0.81546407938004,0.68227285146713,-1.14495801925659,1.77147674560547,-2.75462651252747
227,2183154857,-44.70325469970703,-86.23106384277344,109.62819671630859,9.73004722595215,-0.80479007959366,0.70150685310364,-0.07304100692272,1.76896643638611,-2.81079506874084
228,2183171524,-44.13944244384766,-86.21773529052734,109.05390167236328,9.73605823516846,-0.65780270099640,0.75176292657852,0.18131229281425,1.93912470340729,-2.56040549278259
229,2183188191,-43.65786743164062,-86.20449829101562,108.52688598632812,9.74622917175293,-0.77389311790466,0.68765807151794,-3.14463114738464,1.88517153263092,-2.48154377937317
230,2183204858,-43.20100021362305,-86.18910980224609,108.03534698486328,9.71258735656738,-0.78004491329193,0.70395922660828,-1.95689344406128,1.82614696025848,-2.31517648696899
231,2183221525,-42.77477645874023,-86.17572021484375,107.58362579345703,9.74292850494385,-0.72560822963715,0.79278504848480,-1.16124796867371,1.63657486438751,-2.26852345466614
232,2183238192,-42.33737182617188,-86.15753936767578,107.14127349853516,9.75361633300781,-0.69194132089615,0.78927850723267,0.13122665882111,1.80607938766479,-2.07526254653931
233,2183254859,-41.96234130859375,-86.13710021972656,106.72153472900391,9.77437210083008,-0.72953891754150,0.76239579916000,-2.22785019874573,1.85026133060455,-1.93053781986237
234,2183271526,-41.54832839965820,-86.11315155029297,106.27690124511719,9.72136020660400,-0.82942104339600,0.74637246131897,-0.46253976225853,2.03679227828979,-1.84106659889221
235,2183288193,-41.27074813842773,-86.09314727783203,105.97154998779297,9.64193534851074,-0.49587082862854,0.80825358629227,-1.11358261108398,1.53094792366028,-1.62326240539551
236,2183304860,-41.05204772949219,-86.07564544677734,105.72106170654297,9.74000644683838,-0.78472155332565,0.78915739059448,-1.79151237010956,1.28620576858521,-1.59086239337921
237,2183321527,-40.78058242797852,-86.05821990966797,105.45592498779297,9.80957031250000,-0.78602707386017,0.77486091852188,-0.16551566123962,1.35503983497620,-1.68469440937042
238,2183338194,-40.53575134277344,-86.03899383544922,105.19554138183594,9.75547218322754,-0.62989801168442,0.77978366613388,-0.86770069599152,1.41049146652222,-1.56658184528351
239,2183354861,-40.32532501220703,-86.02354431152344,104.93665313720703,9.74327564239502,-0.85496562719345,0.76494973897934,-2.68050336837769,1.21682083606720,-1.72199916839600
240,2183371528,-40.07049179077148,-86.01012420654297,104.69382476806641,9.74784755706787,-0.97807544469833,0.78698688745499,0.17425599694252,1.12177240848541,-1.79595625400543
241,2183388195,-39.79134750366211,-86.00007629394531,104.43653869628906,9.76994037628174,-0.80232888460159,0.83288043737411,1.06988096237183,0.99603956937790,-1.96065878868103
242,2183404862,-39.54219055175781,-85.99415588378906,104.15850067138672,9.73125743865967,-0.64733672142029,0.83073616027832,-0.95283734798431,0.82707250118256,-2.12742304801941
243,2183421529,-39.34249877929688,-85.99317169189453,103.93704223632812,9.75825977325439,-0.81402045488358,0.77841842174530,-0.20539465546608,0.42068862915039,-2.12543797492981
244,2183438196,-39.10783004760742,-85.99649810791016,103.75143432617188,9.76911926269531,-0.79019439220428,0.81735199689865,2.32185506820679,0.20178964734077,-2.26578259468079
245,2183454863,-38.92148971557617,-86.00389862060547,103.58256530761719,9.78046703338623,-0.80148804187775,0.82336181402206,0.90627968311310,-0.04870894923806,-2.33133816719055
246,2183471530,-38.73664855957031,-86.01404571533203,103.38471221923828,9.71730422973633,-0.85347402095795,0.84012895822525,0.07960427552462,-0.15146709978580,-2.47613978385925
247,2183488197,-38.52301025390625,-86.02339935302734,103.20381927490234,9.73474597930908,-0.79833328723907,0.81514352560043,1.40640604496002,-0.09145653992891,-2.45922255516052
248,2183504864,-38.30289459228516,-86.03276062011719,103.03378295898438,9.73650741577148,-0.69495058059692,0.78653144836426,2.99987483024597,-0.16527235507965,-2.40507745742798
249,2183521531,-38.13842010498047,-86.04442596435547,102.90156555175781,9.72900199890137,-0.70431607961655,0.78519141674042,1.95528638362885,-0.35849457979202,-2.34835791587830
250,2183538198,-37.92707824707031,-86.05107116699219,102.75022888183594,9.78017425537109,-0.66725760698318,0.78912276029587,2.86407589912415,-0.05968398973346,-2.27799987792969
251,2183554865,-37.72326660156250,-86.05583190917969,102.57141113281250,9.79975223541260,-0.68850433826447,0.77417427301407,1.16384100914001,0.08969566971064,-2.26749873161316
252,2183571532,-37.51781845092773,-86.05966186523438,102.41078186035156,9.73460388183594,-0.75557863712311,0.78320628404617,1.18479239940643,0.13714322447777,-2.23459935188293
253,2183588199,-37.34204483032227,-86.06278991699219,102.27586364746094,9.72648048400879,-0.62096321582794,0.79373323917389,1.72185206413269,0.06658021360636,-2.08422684669495
254,2183604866,-37.14923477172852,-86.06548309326172,102.07740020751953,9.80458736419678,-0.63811624050140,0.78136354684830,0.85342806577682,0.16216681897640,-2.17379474639893
255,2183621533,-36.93237686157227,-86.06488037109375,101.86404418945312,9.77039718627930,-0.75147527456284,0.76964813470840,-0.19498308002949,0.41831946372986,-2.19504046440125
256,2183638200,-36.70553970336914,-86.06578063964844,101.62888336181641,9.71537780761719,-0.67347270250320,0.79213482141495,-0.44046795368195,0.38203904032707,-2.29631304740906
257,2183654867,-36.50407791137695,-86.06731414794922,101.42000579833984,9.71978759765625,-0.70035451650620,0.81644499301910,-0.45998489856720,0.29403379559517,-2.23089814186096
258,2183671534,-36.30382156372070,-86.06916046142578,101.20915985107422,9.80002212524414,-0.74957156181335,0.79711747169495,0.40024966001511,0.23283226788044,-2.19441294670105
259,2183688201,-36.09867095947266,-86.07279968261719,100.99266052246094,9.77687263488770,-0.75974482297897,0.83196640014648,-0.03457073867321,0.18054391443729,-2.29294490814209
260,2183704868,-35.92354583740234,-86.08243560791016,100.79096984863281,9.69862747192383,-0.62092310190201,0.86582589149475,-0.27319788932800,-0.17708621919155,-2.41769838333130
261,2183721535,-35.79760742187500,-86.09204864501953,100.64978027343750,9.74266242980957,-0.61067491769791,0.86387425661087,-0.69590991735458,-0.28727203607559,-2.27853155136108
262,2183738202,-35.62105560302734,-86.10057067871094,100.47760009765625,9.78291034698486,-0.73925524950027,0.76446986198425,0.31675228476524,-0.15356735885143,-2.34957480430603
263,2183754869,-35.43869400024414,-86.10755920410156,100.29441833496094,9.79361343383789,-0.71739768981934,0.76386630535126,0.93662446737289,-0.08549519628286,-2.27352404594421
264,2183771536,-35.28449630737305,-86.11435699462891,100.14571380615234,9.72166061401367,-0.63714706897736,0.80395066738129,-0.66580855846405,-0.07447533309460,-2.25642132759094
265,2183788203,-35.13327026367188,-86.12131500244141,99.96212005615234,9.75101089477539,-0.72026371955872,0.78154128789902,-1.69258296489716,-0.06352589279413,-2.31686687469482
266,2183804870,-34.97972106933594,-86.12960815429688,99.81963348388672,9.76204681396484,-0.76590847969055,0.79128491878510,0.15134544670582,-0.19292125105858,-2.26124930381775
267,2183821537,-34.80457305908203,-86.14115905761719,99.65636444091797,9.76834487915039,-0.71012014150620,0.81110882759094,0.72627371549606,-0.32774651050568,-2.41229987144470
268,2183838204,-34.65303421020508,-86.15692138671875,99.49929046630859,9.74407100677490,-0.62658488750458,0.85795795917511,-0.39576101303101,-0.55309981107712,-2.53914690017700
269,2183854871,-34.52519989013672,-86.17428588867188,99.36477661132812,9.74715328216553,-0.70427185297012,0.80273777246475,-0.53184133768082,-0.68947476148605,-2.52085947990417
270,2183871538,-34.40592575073242,-86.19481658935547,99.25594329833984,9.75883293151855,-0.74654996395111,0.77670443058014,0.77156978845596,-0.89437627792358,-2.50532555580139
271,2183888205,-34.27434921264648,-86.21586608886719,99.14442443847656,9.76507091522217,-0.67019444704056,0.79246646165848,1.22816729545593,-0.93578553199768,-2.55327868461609
272,2183904872,-34.13358688354492,-86.23818969726562,98.98835754394531,9.74124813079834,-0.67686349153519,0.78891789913177,0.25759971141815,-0.93982595205307,-2.66986131668091
273,2183921539,-34.00121307373047,-86.26293945312500,98.87634277343750,9.74215698242188,-0.65963870286942,0.79022294282913,0.50796383619308,-1.07653379440308,-2.69409108161926
274,2183938206,-33.87892532348633,-86.28733062744141,98.77668762207031,9.76571750640869,-0.66025656461716,0.78803223371506,1.39564871788025,-1.12781047821045,-2.60271763801575
275,2183954873,-33.76322937011719,-86.31167602539062,98.68666839599609,9.77290344238281,-0.69292008876801,0.78042024374008,1.77689361572266,-1.16105556488037,-2.55844593048096
276,2183971540,-33.68164825439453,-86.33782958984375,98.62740325927734,9.74845218658447,-0.62697929143906,0.77918946743011,1.00455570220947,-1.28855574131012,-2.53635525703430
277,2183988207,-33.58548355102539,-86.36051940917969,98.55271911621094,9.75427722930908,-0.65207767486572,0.76939475536346,1.21011686325073,-1.09519910812378,-2.45431137084961
278,2184004874,-33.42478942871094,-86.37874603271484,98.41242218017578,9.78201866149902,-0.57922464609146,0.76245206594467,1.76595747470856,-0.75577324628830,-2.47872686386108
279,2184021541,-33.29014587402344,-86.39358520507812,98.27849578857422,9.77023124694824,-0.58620494604111,0.69502961635590,-0.18589058518410,-0.59135246276855,-2.39319300651550
280,2184038208,-33.14519500732422,-86.40234375000000,98.12013244628906,9.72088909149170,-0.56678450107574,0.69919407367706,-0.37317064404488,-0.25158715248108,-2.22464871406555
281,2184054875,-32.99887084960938,-86.40692138671875,97.96311950683594,9.76001644134521,-0.57492643594742,0.70607966184616,-0.73633307218552,-0.03477564454079,-2.11671686172485
282,2184071542,-32.87104797363281,-86.40838623046875,97.81113433837891,9.74831485748291,-0.58944153785706,0.71518242359161,-1.36849296092987,0.11044196784496,-1.98392748832703
283,2184088209,-32.76415252685547,-86.40926361083984,97.66861724853516,9.73248958587646,-0.62271916866302,0.69910478591919,-1.36151349544525,0.09627814590931,-1.89852213859558
284,2184104876,-32.63065338134766,-86.41182708740234,97.51168823242188,9.75814533233643,-0.63947337865829,0.73244190216064,-0.70810788869858,0.04305494949222,-2.00147247314453
285,2184121543,-32.53155517578125,-86.41384887695312,97.38847351074219,9.79111576080322,-0.64402788877487,0.77877575159073,-1.41801524162292,0.02004193887115,-1.91497850418091
286,2184138210,-32.41515350341797,-86.41587066650391,97.25490570068359,9.76331233978271,-0.66480123996735,0.75512135028839,-0.95205610990524,0.04684562981129,-1.93984818458557
287,2184154877,-32.28841018676758,-86.41690826416016,97.13217926025391,9.75484848022461,-0.65433084964752,0.74855512380600,-0.02656677179039,0.07784980535507,-1.89717745780945
288,2184171544,-32.13282012939453,-86.41756439208984,96.96970367431641,9.75682926177979,-0.62076491117477,0.75106579065323,-0.51775425672531,0.16541962325573,-2.00686359405518
289,2184188211,-31.93860626220703,-86.41625213623047,96.77363586425781,9.76883029937744,-0.59643930196762,0.74143934249878,-0.21490974724293,0.34559214115143,-2.04319548606873
290,2184204878,-31.77640724182129,-86.41570281982422,96.59175109863281,9.73630428314209,-0.58812516927719,0.74500179290771,-1.22236609458923,0.27582958340645,-2.01825523376465
291,2184221545,-31.61272239685059,-86.41302490234375,96.41516113281250,9.69245433807373,-0.61673712730408,0.74266213178635,-0.50099718570709,0.35607415437698,-1.92301392555237
292,2184238212,-31.48349761962891,-86.41001892089844,96.26741790771484,9.76620864868164,-0.52241069078445,0.76977723836899,-0.77661538124084,0.31919181346893,-1.81375014781952
293,2184254879,-31.35181808471680,-86.40348815917969,96.10630035400391,9.77870941162109,-0.58308255672455,0.71504938602448,-0.64207196235657,0.48879918456078,-1.71284925937653
294,2184271546,-31.21406745910645,-86.39772033691406,95.95205688476562,9.75290775299072,-0.61042201519012,0.74287199974060,-0.90623486042023,0.47402703762054,-1.77084279060364
295,2184288213,-31.06812286376953,-86.39000701904297,95.78131866455078,9.73139858245850,-0.58895123004913,0.73016780614853,-0.89628434181213,0.58982199430466,-1.73734140396118
296,2184304880,-30.99035453796387,-86.38258361816406,95.68402099609375,9.73470306396484,-0.57225573062897,0.76017373800278,-1.30501186847687,0.46776470541954,-1.53999555110931
297,2184321547,-30.89940452575684,-86.37561035156250,95.58152008056641,9.76087379455566,-0.68234950304031,0.74719548225403,-0.30998411774635,0.42969146370888,-1.54935705661774
298,2184338214,-30.82754707336426,-86.37096405029297,95.51313781738281,9.75487422943115,-0.64812272787094,0.77873528003693,0.24476775527000,0.24802055954933,-1.53315687179565
299,2184354881,-30.70287132263184,-86.36880493164062,95.38864898681641,9.75633907318115,-0.61402958631516,0.75565004348755,-0.04479020833969,0.25937983393669,-1.78298330307007
300,2184371548,-30.59837722778320,-86.36837768554688,95.26129913330078,9.75985145568848,-0.65788942575455,0.76504588127136,-0.47268873453140,0.12451613694429,-1.80614984035492
301,2184388215,-30.48493385314941,-86.36848449707031,95.14692687988281,9.76045417785645,-0.60310059785843,0.74689823389053,-0.17944897711277,0.11442473530769,-1.83005940914154
302,2184404882,-30.35965538024902,-86.36913299560547,95.00925445556641,9.76010894775391,-0.58204877376556,0.73548597097397,-0.46185457706451,0.11016021668911,-1.90465629100800
303,2184421549,-30.25350379943848,-86.37264251708984,94.88346862792969,9.72503376007080,-0.62376946210861,0.75314253568649,-0.53232789039612,-0.06626644730568,-1.92962861061096
304,2184438216,-30.17378807067871,-86.38069152832031,94.80515289306641,9.71609497070312,-0.53571009635925,0.78541594743729,-0.23191656172276,-0.36459034681320,-1.96050488948822
305,2184454883,-30.16374397277832,-86.39250183105469,94.77777862548828,9.74825382232666,-0.53785550594330,0.81503701210022,-0.64522874355316,-0.67235249280930,-1.86233139038086
306,2184471550,-30.15469169616699,-86.40489959716797,94.80237579345703,9.77130508422852,-0.60008746385574,0.74156129360199,0.66034662723541,-0.74719285964966,-1.80367815494537
307,2184488217,-30.16448593139648,-86.41619873046875,94.82812500000000,9.79355716705322,-0.56399333477020,0.76363915205002,0.29048639535904,-0.72019702196121,-1.73184716701508
308,2184504884,-30.11114120483398,-86.42423248291016,94.77178955078125,9.78074359893799,-0.58449018001556,0.72869545221329,-0.23413208127022,-0.41134631633759,-1.86631405353546
309,2184521551,-30.06601142883301,-86.42960357666016,94.73676300048828,9.74729919433594,-0.51219278573990,0.70916652679443,-0.39017105102539,-0.28506934642792,-1.76709687709808
310,2184538218,-30.02800559997559,-86.43295288085938,94.69673919677734,9.75757503509521,-0.56328690052032,0.71033042669296,-0.60962712764740,-0.18868236243725,-1.69584906101227
311,2184554885,-29.99220466613770,-86.43553161621094,94.65773010253906,9.78154373168945,-0.65114474296570,0.72579598426819,-0.15761414170265,-0.16456799209118,-1.63897585868835
312,2184571552,-29.89579963684082,-86.43608093261719,94.55413818359375,9.75434303283691,-0.61144042015076,0.73974835872650,-0.14284841716290,0.06460803747177,-1.76796126365662
313,2184588219,-29.79089164733887,-86.44036865234375,94.45707702636719,9.75176239013672,-0.60810250043869,0.72711569070816,-1.07253825664520,-0.09126445651054,-1.96216976642609
314,2184604886,-29.68287849426270,-86.44565582275391,94.35527801513672,9.77116870880127,-0.64227241277695,0.74348032474518,-0.36320728063583,-0.16966491937637,-1.96762514114380
315,2184621553,-29.55296134948730,-86.45034027099609,94.23069763183594,9.77129936218262,-0.57342427968979,0.78131753206253,-0.01994588784873,-0.09707852452993,-1.99353241920471
316,2184638220,-29.42363548278809,-86.45735168457031,94.10750579833984,9.75444984436035,-0.60796624422073,0.75041526556015,-0.62923365831375,-0.20667529106140,-2.09434413909912
317,2184654887,-29.30437278747559,-86.47152709960938,93.97084045410156,9.73587799072266,-0.63958698511124,0.78511816263199,-0.40939983725548,-0.59803736209869,-2.25424408912659
318,2184671554,-29.19900512695312,-86.49234008789062,93.86254882812500,9.73411369323730,-0.69017243385315,0.80644273757935,0.70139092206955,-1.01141345500946,-2.34285092353821
319,2184688221,-29.12987899780273,-86.51811981201172,93.81389617919922,9.73666572570801,-0.61270469427109,0.81093621253967,1.10169184207916,-1.33860290050507,-2.33848404884338
320,2184704888,-29.16404151916504,-86.54622650146484,93.88127899169922,9.71756362915039,-0.58210492134094,0.76140439510345,2.05554723739624,-1.69524693489075,-2.03551149368286
321,2184721555,-29.21243858337402,-86.57732391357422,93.99290466308594,9.72073745727539,-0.47783330082893,0.72496527433395,3.85004401206970,-1.90511119365692,-1.97220373153687
322,2184738222,-29.30558967590332,-86.60881805419922,94.16518402099609,9.77964687347412,-0.29020529985428,0.70311892032623,3.55596446990967,-2.01125645637512,-1.87357532978058
323,2184754889,-29.45026016235352,-86.63791656494141,94.32913970947266,9.78393554687500,-0.49108439683914,0.67387133836746,1.33165550231934,-1.89452648162842,-1.75754976272583
324,2184771556,-29.59180450439453,-86.66129302978516,94.47843933105469,9.74796485900879,-0.59068202972412,0.65916997194290,0.90412837266922,-1.58255112171173,-1.63239336013794
325,2184788223,-29.67802238464355,-86.67951965332031,94.59944152832031,9.73968696594238,-0.56443411111832,0.66629952192307,1.65030300617218,-1.24231195449829,-1.61906194686890
326,2184804890,-29.73390007019043,-86.69086456298828,94.68444061279297,9.76898193359375,-0.49715816974640,0.66377407312393,1.33967220783234,-0.80218338966370,-1.51366579532623
327,2184821557,-29.77043151855469,-86.69530487060547,94.70040130615234,9.79058456420898,-0.52234518527985,0.65046721696854,0.14117719233036,-0.39118912816048,-1.44006776809692
328,2184838224,-29.75072669982910,-86.69370269775391,94.69437408447266,9.76739215850830,-0.52939051389694,0.65774118900299,0.48381111025810,0.01047559455037,-1.41200900077820
329,2184854891,-29.71947479248047,-86.68902587890625,94.65834045410156,9.74048995971680,-0.50353127717972,0.68543648719788,-0.17230302095413,0.20554189383984,-1.39031481742859
330,2184871558,-29.72265434265137,-86.68264770507812,94.64173126220703,9.75095748901367,-0.47121170163155,0.70040327310562,-0.97524845600128,0.27751359343529,-1.26474869251251
331,2184888225,-29.73140144348145,-86.67698669433594,94.64601135253906,9.74005031585693,-0.62346249818802,0.67571896314621,-0.58334839344025,0.19793492555618,-1.26122689247131
332,2184904892,-29.79090881347656,-86.67339324951172,94.69185638427734,9.73798370361328,-0.50974690914154,0.72690618038177,0.57618331909180,-0.01428548432887,-1.09971332550049
333,2184921559,-29.85911750793457,-86.67098236083984,94.75012969970703,9.75102710723877,-0.48554417490959,0.70171099901199,-0.53387749195099,-0.06320574134588,-1.16511535644531
334,2184938226,-29.91333961486816,-86.66587066650391,94.78801727294922,9.76708889007568,-0.51770281791687,0.68109530210495,-0.99762094020844,0.10919973999262,-1.15371751785278
335,2184954893,-29.97087669372559,-86.65666961669922,94.83129882812500,9.74827098846436,-0.53642821311951,0.67238587141037,-0.92762798070908,0.31656658649445,-1.01540267467499
336,2184971560,-29.98959541320801,-86.64643859863281,94.84715270996094,9.75410652160645,-0.36332648992538,0.66475230455399,-0.06570298224688,0.39601075649261,-1.06822252273560
337,2184988227,-30.08257102966309,-86.63308715820312,94.87935638427734,9.77728462219238,-0.46476468443871,0.63660770654678,-3.82987403869629,0.57531255483627,-0.91426467895508
338,2185004894,-30.10980415344238,-86.61215972900391,94.84457397460938,9.77966308593750,-0.69957613945007,0.64953410625458,-3.98272991180420,1.04673969745636,-0.92302399873734
339,2185021561,-30.03389167785645,-86.58878326416016,94.72827911376953,9.75813388824463,-0.69252789020538,0.67716729640961,-2.64737319946289,1.35005807876587,-1.08440959453583
340,2185038228,-29.93708801269531,-86.56636047363281,94.58370208740234,9.75416183471680,-0.66317284107208,0.75252169370651,-2.60567617416382,1.32735276222229,-1.18807721138000
341,2185054895,-29.82675933837891,-86.54645538330078,94.43052673339844,9.73395729064941,-0.62936860322952,0.76076537370682,-1.91374897956848,1.20781815052032,-1.27089571952820
342,2185071562,-29.71874046325684,-86.53208160400391,94.30235290527344,9.75500392913818,-0.57701039314270,0.75316339731216,-0.95294606685638,0.88926005363464,-1.38194584846497
343,2185088229,-29.64336013793945,-86.52306365966797,94.21658325195312,9.75965785980225,-0.55767542123795,0.75689524412155,-0.61779117584229,0.54147803783417,-1.42356657981873
344,2185104896,-29.58226394653320,-86.51754760742188,94.15018463134766,9.76097297668457,-0.62038296461105,0.78955924510956,-0.27874940633774,0.32882866263390,-1.45976388454437
345,2185121563,-29.49638748168945,-86.51462554931641,94.07792663574219,9.73703098297119,-0.61893087625504,0.74233138561249,0.57079184055328,0.21769517660141,-1.56815695762634
346,2185138230,-29.40789604187012,-86.51181793212891,94.02619934082031,9.75173377990723,-0.61477208137512,0.72735953330994,0.94783622026443,0.19878016412258,-1.56372559070587
347,2185154897,-29.32922554016113,-86.50890350341797,93.97042083740234,9.72164344787598,-0.51054453849792,0.71987956762314,1.48781621456146,0.17873823642731,-1.49664616584778
348,2185171564,-29.26902389526367,-86.50756072998047,93.90942382812500,9.75016212463379,-0.39205887913704,0.69782233238220,0.39411541819572,0.08949077129364,-1.54500305652618
349,2185188231,-29.22516822814941,-86.50632476806641,93.86563873291016,9.75372219085693,-0.54085308313370,0.68431526422501,-0.05297346413136,0.06947445124388,-1.51714909076691
350,2185204898,-29.11217880249023,-86.49977111816406,93.75758361816406,9.77136135101318,-0.55634045600891,0.69976168870926,0.73137068748474,0.44763314723969,-1.54505407810211
351,2185221565,-28.97271728515625,-86.49412536621094,93.61652374267578,9.74384021759033,-0.45801496505737,0.73079937696457,-0.45629662275314,0.48329880833626,-1.72173047065735
352,2185238232,-28.88138389587402,-86.48921966552734,93.48721313476562,9.73598003387451,-0.54943352937698,0.69410258531570,-2.08949041366577,0.40788224339485,-1.67578125000000
353,2185254899,-28.83769798278809,-86.48687744140625,93.43624877929688,9.74403572082520,-0.62046444416046,0.70200890302658,-1.43023228645325,0.17416635155678,-1.55659282207489
354,2185271566,-28.74109458923340,-86.48252868652344,93.35143280029297,9.76394176483154,-0.55612605810165,0.72111737728119,0.82244944572449,0.30508568882942,-1.55170071125031
355,2185288233,-28.66463851928711,-86.48470306396484,93.25291442871094,9.75728893280029,-0.33382388949394,0.74207484722137,-1.50819742679596,-0.01158334407955,-1.80372965335846
356,2185304900,-28.55841827392578,-86.48770904541016,93.09833526611328,9.79865837097168,-0.47646549344063,0.72533512115479,-2.78133416175842,0.04067936539650,-1.98955595493317
357,2185321567,-28.42441940307617,-86.48553466796875,92.92009735107422,9.79425334930420,-0.62280249595642,0.66471403837204,-2.43985319137573,0.35676571726799,-1.90952944755554
358,2185338234,-28.22713470458984,-86.47874450683594,92.69777679443359,9.75063323974609,-0.55402100086212,0.65414178371429,-2.17204666137695,0.69207435846329,-1.98020756244659
359,2185354901,-28.04737854003906,-86.47630310058594,92.46427154541016,9.73689746856689,-0.57229775190353,0.70445126295090,-3.26617670059204,0.49350556731224,-2.09098911285400
360,2185371568,-27.90685272216797,-86.47330474853516,92.29019165039062,9.70523548126221,-0.60985285043716,0.72746074199677,-2.23358750343323,0.40064665675163,-1.90474593639374
361,2185388235,-27.74245643615723,-86.47697448730469,92.09766387939453,9.70291328430176,-0.52028191089630,0.70802569389343,-1.51118123531342,0.07261200994253,-2.12767910957336
362,2185404902,-27.55624389648438,-86.49033355712891,91.87786102294922,9.74428653717041,-0.34120088815689,0.77142131328583,-2.62398934364319,-0.37829321622849,-2.52955508232117
363,2185421569,-27.46808433532715,-86.50621032714844,91.70959472656250,9.79824066162109,-0.67430394887924,0.80075687170029,-4.80112075805664,-0.61714452505112,-2.39117002487183
364,2185438236,-27.28193855285645,-86.51957702636719,91.50447082519531,9.72922039031982,-0.43994137644768,0.75316953659058,-1.30403840541840,-0.42750793695450,-2.45124411582947
365,2185454903,-27.14182662963867,-86.53988647460938,91.31934356689453,9.74795913696289,-0.50592696666718,0.71323770284653,-3.53230524063110,-0.79698401689529,-2.59698057174683
366,2185471570,-27.02104568481445,-86.56772613525391,91.14744567871094,9.69947719573975,-0.55794060230255,0.70270079374313,-2.24022769927979,-1.27638339996338,-2.66731929779053
367,2185488237,-26.95117187500000,-86.60546875000000,91.03789520263672,9.65380668640137,-0.45755472779274,0.79281193017960,-3.58201289176941,-1.85626769065857,-2.83815598487854
368,2185504904,-26.75752830505371,-86.65075683593750,90.77302551269531,9.69996643066406,-0.43151015043259,0.76997184753418,-4.38136005401611,-2.03798985481262,-3.46493792533875
369,2185521571,-26.55130386352539,-86.71389770507812,90.47643280029297,9.79825019836426,-0.52903115749359,0.76415497064590,-5.61355638504028,-2.95018053054810,-4.02515840530396
370,2185538238,-26.37827873229980,-86.78453826904297,90.21751403808594,9.79374313354492,-0.62946289777756,0.67098915576935,-3.84557461738586,-3.46797919273376,-4.00457859039307
371,2185554905,-26.19245719909668,-86.85776519775391,89.99197387695312,9.77507877349854,-0.50158375501633,0.72716605663300,-2.89604711532593,-3.61731386184692,-4.03266239166260
372,2185571572,-25.99393653869629,-86.93714141845703,89.75907135009766,9.64466571807861,-0.44292742013931,0.65118598937988,-1.95387101173401,-3.95315980911255,-4.14943027496338
373,2185588239,-25.99107360839844,-87.03932189941406,89.67555236816406,9.67918586730957,-0.47166347503662,0.71340382099152,-4.25628709793091,-5.42093515396118,-4.27466392517090
374,2185604906,-26.07987403869629,-87.15793609619141,89.72827148437500,9.74847602844238,-0.60607671737671,0.76994788646698,-2.10428214073181,-6.47795915603638,-4.35060548782349
375,2185621573,-26.12351417541504,-87.28964233398438,89.78153228759766,9.78524494171143,-0.53240776062012,0.82012182474136,-0.28507581353188,-7.11759853363037,-4.72826576232910
376,2185638240,-26.24575614929199,-87.43265533447266,89.88203430175781,9.80466651916504,-0.45897433161736,0.78422880172729,-1.08693289756775,-7.81163883209229,-4.88516950607300
377,2185654907,-26.41399383544922,-87.58492279052734,90.04253387451172,9.75253105163574,-0.59242993593216,0.65582108497620,-0.21647217869759,-8.32168960571289,-5.00107908248901
378,2185671574,-26.71704864501953,-87.75249481201172,90.38018798828125,9.71466541290283,-0.49875593185425,0.58074098825455,1.97572588920593,-9.28100204467773,-5.07729053497314
379,2185688241,-27.16859245300293,-87.94043731689453,90.81629943847656,9.73819255828857,-0.40700033307076,0.71781033277512,-0.97016465663910,-10.41590309143066,-5.54039478302002
380,2185704908,-27.91447257995605,-88.14987945556641,91.54983520507812,9.65347957611084,-0.40847814083099,0.71873432397842,-0.66148030757904,-11.67775058746338,-5.72116947174072
381,2185721575,-29.16593933105469,-88.39257812500000,92.80782318115234,9.65935039520264,-0.59669178724289,0.65879815816879,-0.02190527878702,-13.60297298431396,-6.11318635940552
382,2185738242,-30.93698310852051,-88.65608215332031,94.65776062011719,9.70913696289062,-0.29700642824173,0.66956871747971,5.19771909713745,-14.78806495666504,-6.47708082199097
383,2185754909,-34.36685562133789,-88.94761657714844,98.06935119628906,9.72101402282715,-0.38282981514931,0.59447348117828,-1.01063346862793,-16.43574523925781,-6.51845884323120
384,2185771576,-40.35204696655273,-89.25297546386719,104.08458709716797,9.68960762023926,-0.52352529764175,0.49672085046768,2.80874276161194,-17.09820556640625,-6.55569934844971
385,2185788243,-53.37855911254883,-89.58788299560547,117.21263122558594,9.63040733337402,-0.36091831326485,0.41047644615173,4.91617250442505,-18.31563568115234,-6.61503314971924
386,2185804910,-87.51924133300781,-90.00000000000000,151.54048156738281,9.74528789520264,-0.22208932042122,0.45408913493156,4.36363029479980,-19.69972801208496,-6.42284965515137
387,2185821577,-137.51223754882812,-89.78878784179688,-158.31678771972656,9.68992233276367,-0.29692885279655,0.33223661780357,4.37194204330444,-21.06465721130371,-5.74906873703003
388,2185838244,-161.09286499023438,-89.37882232666016,-134.72216796875000,9.70122718811035,-0.22235870361328,0.25969490408897,5.15540456771851,-21.99953460693359,-5.39774608612061
389,2185854911,-170.60260009765625,-88.98239898681641,-125.16876220703125,9.75863552093506,-0.14442409574986,0.13185502588749,5.36428356170654,-22.82190513610840,-5.12977933883667
390,2185871578,-175.11105346679688,-88.58666992187500,-120.61999511718750,9.85720157623291,-0.08512696623802,-0.03830299526453,3.88094639778137,-23.16578102111816,-4.67044019699097
391,2185888245,-177.54753112792969,-88.18167114257812,-118.17040252685547,9.75869274139404,-0.01480113156140,-0.08663291484118,1.25561392307281,-23.81879234313965,-4.15427970886230
392,2185904912,-179.05758666992188,-87.77463531494141,-116.66935729980469,9.75062561035156,-0.14391201734543,-0.14883358776569,-0.73612970113754,-24.09403800964355,-3.90797424316406
393,2185921579,-179.93884277343750,-87.37311553955078,-115.80756378173828,9.75360584259033,-0.14634804427624,-0.11807823181152,-0.39851519465446,-23.84880828857422,-3.42928504943848
394,2185938246,179.48075866699219,-86.97618865966797,-115.23815917968750,9.81415557861328,-0.34530034661293,-0.23095273971558,-0.43927782773972,-23.62867546081543,-3.19261002540588
395,2185954913,179.10552978515625,-86.56145477294922,-114.86367797851562,9.77562808990479,-0.18637631833553,-0.24274927377701,0.13175201416016,-24.72595977783203,-2.97601652145386
396,2185971580,178.76330566406250,-86.11284637451172,-114.53210449218750,9.69141674041748,-0.09474892169237,-0.23666681349277,-0.68480205535889,-26.78811264038086,-3.15939188003540
397,2185988247,178.32548522949219,-85.62332916259766,-114.16353607177734,9.71947860717773,-0.09362544119358,-0.23151758313179,-3.95193004608154,-29.23398208618164,-3.74476099014282
398,2186004914,177.99140930175781,-85.09775543212891,-113.91056060791016,9.81711483001709,-0.11198750883341,-0.23732697963715,-4.81532621383667,-31.42254447937012,-3.63179779052734
399,2186021581,177.74182128906250,-84.53284454345703,-113.79016876220703,9.76658821105957,-0.06949243694544,-0.28824672102928,-7.82064771652222,-33.79503250122070,-3.29079151153564
400,2186038248,177.57261657714844,-83.93971252441406,-113.79787445068359,9.86388397216797,-0.03576845675707,-0.38587900996208,-10.41627979278564,-35.52455139160156,-2.80580091476440
401,2186054915,177.35430908203125,-83.30643463134766,-113.84230041503906,10.29382228851318,-0.00315869366750,-0.45372202992439,-15.69698047637939,-37.94985961914062,-2.76992082595825
402,2186071582,177.11531066894531,-82.61441040039062,-113.93859100341797,10.35207748413086,-0.37442725896835,-0.41407459974289,-20.04489707946777,-41.50188064575195,-2.67702722549438
403,2186088249,177.04757690429688,-81.85926818847656,-114.08125305175781,10.23301315307617,-0.14126586914062,-0.35292053222656,-12.47379398345947,-45.29494476318359,-2.54075455665588
404,2186104916,177.02687072753906,-81.04540252685547,-114.32376861572266,10.37375831604004,0.38968122005463,-0.42070293426514,-15.66572380065918,-48.88062286376953,-1.73726797103882
405,2186121583,176.91213989257812,-80.17371368408203,-114.55606079101562,10.80186939239502,0.54718464612961,-0.42862263321877,-20.66118049621582,-52.36515045166016,-1.86823034286499
406,2186138250,176.82572937011719,-79.26098632812500,-114.77902221679688,11.05093383789062,0.64224940538406,-0.53602361679077,-18.35479927062988,-54.82815551757812,-1.98270213603973
407,2186154917,176.78839111328125,-78.32794952392578,-114.99812316894531,11.52685070037842,0.87765133380890,-0.55015498399734,-15.12633705139160,-56.05873870849609,-1.94756186008453
408,2186171584,176.66783142089844,-77.36747741699219,-115.16249847412109,11.71950149536133,1.24824047088623,-0.80909901857376,-16.87847900390625,-57.68567657470703,-2.59140443801880
409,2186188251,176.25352478027344,-76.34716033935547,-115.22284698486328,11.69949531555176,1.27298462390900,-0.60952699184418,-28.39628982543945,-61.19273757934570,-4.32849407196045
410,2186204918,175.85902404785156,-75.30093383789062,-115.26632690429688,11.88980579376221,0.85668450593948,-0.53755050897598,-26.21160697937012,-62.70989990234375,-5.04848718643188
411,2186221585,175.50337219238281,-74.23283386230469,-115.29497528076172,12.13023567199707,-0.10948202759027,-1.74457824230194,-23.01892089843750,-63.99088287353516,-5.74269199371338
412,2186238252,175.25735473632812,-73.20442199707031,-115.15969848632812,12.28756523132324,0.80529272556305,-1.18046963214874,-6.99376487731934,-61.37219238281250,-8.60369873046875
413,2186254919,174.69538879394531,-72.23123168945312,-114.84474182128906,11.38616466522217,0.21938414871693,-1.33530151844025,-15.70497035980225,-57.74045181274414,-12.07010936737061
414,2186271586,174.48310852050781,-71.45355224609375,-114.36830902099609,10.34766006469727,-0.45134231448174,-0.98830080032349,14.38887977600098,-45.68634414672852,-14.63081169128418
415,2186288253,174.61402893066406,-71.23419189453125,-113.94823455810547,8.84000205993652,-1.80704510211945,-2.50960040092468,31.68809700012207,-12.42251491546631,-10.63743019104004
416,2186304920,175.10218811035156,-70.81687164306641,-113.73271179199219,6.44430112838745,-1.54194438457489,-4.42751932144165,41.46739578247070,-24.65281867980957,-7.79351663589478
417,2186321587,175.48681640625000,-70.29608154296875,-113.73824310302734,5.80745601654053,-2.34628582000732,-4.53805398941040,22.71787834167480,-31.22894668579102,-3.81715750694275
418,2186338254,175.69392395019531,-69.88678741455078,-113.89959716796875,5.23632240295410,-1.85552108287811,-1.77606034278870,3.27161955833435,-24.81576728820801,0.03222084790468
419,2186354921,175.51612854003906,-69.87442779541016,-113.89118194580078,4.58577442169189,-1.07875430583954,2.48751115798950,-10.25021266937256,-0.80758786201477,-1.60001945495605
420,2186371588,175.19003295898438,-70.41923522949219,-113.71346282958984,3.66117048263550,-0.98668891191483,2.92508435249329,-9.59369373321533,32.77956771850586,-2.33458828926086
421,2186388255,174.35969543457031,-71.46368408203125,-113.38312530517578,4.68499183654785,0.18947617709637,4.26595544815063,-31.15001296997070,62.87631225585938,-2.11235451698303
422,2186404922,173.16181945800781,-73.06155395507812,-112.81045532226562,5.46302986145020,-0.10261075198650,3.75092506408691,-39.20189666748047,96.30643463134766,-1.36543929576874
423,2186421589,171.67181396484375,-75.09455871582031,-111.73371124267578,6.07183599472046,0.43766731023788,2.44607639312744,-27.32862281799316,123.08324432373047,-2.85613608360291
424,2186438256,169.00926208496094,-77.45249176025391,-109.63744354248047,7.55700778961182,1.22708332538605,1.40911793708801,-37.60416412353516,144.26493835449219,-7.08263921737671
425,2186454923,164.37129211425781,-80.03836059570312,-105.83528137207031,9.14335155487061,1.34132957458496,0.53354281187057,-54.53812408447266,160.92160034179688,-9.04535007476807
426,2186471590,155.92086791992188,-82.72940063476562,-98.41238403320312,10.11156082153320,1.01055610179901,-0.01472827792168,-66.60279083251953,173.90283203125000,-9.49771213531494
427,2186488257,138.42324829101562,-85.29318237304688,-82.00901794433594,11.15794754028320,0.17967411875725,-0.55867636203766,-70.67311096191406,183.10017395019531,-5.23798370361328
428,2186504924,96.14237976074219,-86.88630676269531,-40.20586013793945,12.48158740997314,-0.83904373645782,-1.09198760986328,-32.95177078247070,190.08131408691406,0.39681199193001
429,2186521591,47.00616836547852,-85.90576171875000,9.12589073181152,12.75590038299561,-0.80315244197845,-1.34370136260986,7.12201690673828,188.93458557128906,5.51737022399902
430,2186538258,26.11057472229004,-83.57816314697266,30.42545318603516,12.83969688415527,-0.23267363011837,-1.26380836963654,18.89992332458496,179.38284301757812,10.90256500244141
431,2186554925,16.97559928894043,-81.06391906738281,40.02674102783203,12.69101238250732,-0.52917587757111,-1.32837009429932,22.78466987609863,167.78793334960938,15.08743572235107
432,2186571592,12.22240638732910,-78.66239166259766,45.40348434448242,12.36118412017822,-0.55230110883713,-1.13903534412384,32.37400436401367,153.38426208496094,17.31634902954102
433,2186588259,9.39159488677979,-76.50124359130859,48.90935897827148,11.93183231353760,-0.53962326049805,-0.94421643018723,35.59640121459961,135.62423706054688,18.76257705688477
434,2186604926,7.49028444290161,-74.60467529296875,51.51498031616211,11.32681560516357,-0.52736848592758,-0.76976311206818,37.34424209594727,118.12158966064453,20.50666618347168
435,2186621593,5.98460912704468,-72.98149108886719,53.68991088867188,10.54868888854980,-0.08000842481852,-0.33631807565689,35.00647735595703,100.85746002197266,23.36896133422852
436,2186638260,4.57789754867554,-71.59938049316406,55.67185592651367,9.68969631195068,1.00516831874847,0.11137226223946,28.92649269104004,85.79325103759766,27.01289558410645
437,2186654927,3.34890055656433,-70.43357849121094,57.09500122070312,8.77305126190186,2.32442092895508,0.90535658597946,7.05657911300659,71.60994720458984,21.50344085693359
438,2186671594,2.02505207061768,-69.59898376464844,57.97207260131836,8.66282749176025,1.67372238636017,0.79103004932404,-29.92291831970215,50.78638839721680,14.24942970275879
439,2186688261,0.93686193227768,-69.09799957275391,58.55519866943359,8.44218730926514,0.51283258199692,0.45637518167496,-32.49519348144531,30.30975341796875,10.19476222991943
440,2186704928,0.22921244800091,-68.94042968750000,58.86642456054688,8.67842483520508,0.27526134252548,0.77652645111084,-24.96582031250000,9.47235774993896,5.22636175155640
441,2186721595,-0.05105561017990,-69.07175445556641,58.95541381835938,8.70169448852539,0.16165232658386,1.29148900508881,-11.76799869537354,-7.91283655166626,0.56359499692917
442,2186738262,0.15067650377750,-69.41621398925781,58.76316452026367,8.87258052825928,0.35646879673004,1.88617622852325,1.38192260265350,-20.69572830200195,-5.43077802658081
443,2186754929,0.71846485137939,-69.89973449707031,58.39413070678711,8.81456661224365,0.63370132446289,2.24706315994263,13.36963748931885,-29.09239578247070,-8.83748531341553
444,2186771596,1.39415764808655,-70.50725555419922,57.93237304687500,9.07240581512451,0.74394482374191,2.64433193206787,14.53781509399414,-36.63405227661133,-10.06793022155762
445,2186788263,2.19468736648560,-71.18449401855469,57.43559265136719,9.36132144927979,0.74892103672028,2.85494828224182,19.93754959106445,-40.93143463134766,-9.85785865783691
446,2186804930,3.01106429100037,-71.89851379394531,56.88366699218750,9.55207538604736,0.96002513170242,3.12694978713989,17.63289260864258,-43.28409576416016,-9.88215541839600
447,2186821597,3.79512047767639,-72.61363220214844,56.31852340698242,9.73962211608887,0.66050440073013,3.10125970840454,14.81038951873779,-43.45138931274414,-9.11860847473145
448,2186838264,4.55773353576660,-73.30824279785156,55.78565597534180,9.97708415985107,0.65333187580109,2.97323179244995,15.24582576751709,-42.25806427001953,-7.65755462646484
449,2186854931,5.19385385513306,-73.98886108398438,55.28860092163086,9.98937320709229,0.82829320430756,3.03863334655762,9.60314750671387,-41.41325759887695,-6.24219512939453
450,2186871598,5.65125417709351,-74.63950347900391,54.83470916748047,9.87915229797363,0.80487513542175,3.13585352897644,1.27905392646790,-39.56665420532227,-4.98582744598389
451,2186888265,6.04419422149658,-75.23248291015625,54.42153549194336,9.56838798522949,1.15425026416779,3.02906346321106,-0.30379998683929,-36.05105209350586,-4.12749862670898
452,2186904932,6.25732898712158,-75.81804656982422,53.95876693725586,9.28082180023193,1.34710049629211,2.96462154388428,-14.05039978027344,-35.68468856811523,-4.47846174240112
453,2186921599,6.50638675689697,-76.40631866455078,53.38665771484375,8.62490177154541,0.83005756139755,2.82218742370605,-18.32944488525391,-35.99848175048828,-5.60441780090332
454,2186938266,7.01928091049194,-76.97856903076172,52.68521118164062,7.82824754714966,0.89558571577072,3.10681319236755,-10.13415622711182,-35.24061584472656,-6.91708183288574
455,2186954933,7.85587787628174,-77.51465606689453,51.83892440795898,6.28097105026245,0.80739295482635,3.22736501693726,0.71925872564316,-33.35379028320312,-8.29046058654785
456,2186971600,9.13914394378662,-78.02887725830078,50.89254760742188,3.62830662727356,0.52220070362091,3.10052371025085,21.55720901489258,-32.29815673828125,-8.67344284057617
457,2186988267,11.09447669982910,-78.54843139648438,49.81225204467773,0.04920835793018,0.70313417911530,2.87896084785461,53.90660095214844,-33.01778030395508,-8.81331634521484
458,2187004934,14.04641437530518,-79.09750366210938,48.31095123291016,-2.57870984077454,2.25986981391907,3.10594487190247,88.80904388427734,-35.97535324096680,-11.20978641510010
459,2187021601,17.44784736633301,-79.75145721435547,46.01502227783203,-1.36672604084015,2.74298405647278,3.28301763534546,68.73867034912109,-44.64681243896484,-15.02132606506348
460,2187038268,21.34634399414062,-80.43548583984375,43.07956314086914,1.87067115306854,1.28109049797058,2.61266088485718,60.47514343261719,-48.80670547485352,-16.28475761413574
461,2187054935,25.70539093017578,-81.09177398681641,39.71267318725586,2.77790284156799,0.92518258094788,1.90434730052948,62.22621917724609,-49.07626724243164,-15.35095977783203
462,2187071602,30.20979690551758,-81.75074005126953,35.80950164794922,2.18304991722107,0.62877130508423,1.34260463714600,38.77481079101562,-51.32715606689453,-13.67073726654053
463,2187088269,34.45795822143555,-82.37944793701172,31.75332832336426,1.83967316150665,-0.49204427003860,0.98022496700287,13.92566871643066,-49.87949371337891,-9.56536674499512
464,2187104936,37.97563552856445,-82.93192291259766,28.08070755004883,1.30141294002533,-0.20933976769447,1.42704319953918,-7.42302846908569,-43.43520355224609,-4.49445152282715
465,2187121603,39.97820281982422,-83.39739990234375,25.42843627929688,1.33934462070465,0.80174911022186,2.48679113388062,-37.78440475463867,-33.68089294433594,1.49683248996735
466,2187138270,40.46539306640625,-83.75728607177734,23.42508316040039,2.12119078636169,0.59683322906494,3.31342291831970,-90.15734863281250,-25.22737693786621,2.33230066299438
467,2187154937,40.50265502929688,-84.06159210205078,21.44989013671875,2.29043292999268,-0.70335102081299,3.75333786010742,-115.57158660888672,-22.12753868103027,0.95113557577133
468,2187171604,41.09780120849609,-84.29340362548828,19.06716918945312,2.14841318130493,-0.55306822061539,4.74216032028198,-106.48261260986328,-20.08814811706543,-3.24749827384949
469,2187188271,42.66577529907227,-84.47529602050781,15.26945018768311,2.47098135948181,-2.18393182754517,6.49570703506470,-132.67486572265625,-23.12513160705566,-10.68948078155518
470,2187204938,46.03513717651367,-84.52735900878906,10.22258758544922,2.23023033142090,-7.67507266998291,7.51536607742310,-99.25389099121094,-22.67239952087402,-19.94879531860352
471,2187221605,50.00657653808594,-84.29264068603516,8.07173347473145,0.67279040813446,-10.89639854431152,6.93550491333008,109.85179901123047,-0.10313406586647,-20.22124290466309
472,2187238272,51.31018829345703,-83.66606140136719,9.81390285491943,-0.84304082393646,-9.02549648284912,9.20739269256592,182.15179443359375,32.12752914428711,-23.41014862060547
473,2187254939,50.52276992797852,-83.48813629150391,16.45162391662598,9.67806148529053,-12.66107273101807,-35.84858703613281,348.59704589843750,41.18017959594727,18.51697921752930
474,2187271606,135.10496520996094,-82.99179077148438,-66.37762451171875,1.34534311294556,1.76588523387909,-88.01235198974609,127.84098052978516,-537.42175292968750,2.76420116424561
475,2187288273,160.45260620117188,-80.85964965820312,-89.20728302001953,62.19589233398438,-21.92005920410156,56.83232879638672,163.81455993652344,-207.93218994140625,93.77848052978516
476,2187304940,169.80749511718750,-76.02661132812500,-91.19797515869141,41.71398925781250,64.15874481201172,28.45050430297852,443.92614746093750,-286.36459350585938,-52.70095825195312
477,2187321607,164.32057189941406,-68.78659057617188,-96.17573547363281,-10.22430419921875,-30.56556892395020,-39.04953765869141,-613.53796386718750,-443.62557983398438,-10.42275142669678
478,2187338274,171.68775939941406,-66.48492431640625,-98.83533477783203,-30.83433151245117,11.88478279113770,-1.33738899230957,294.30700683593750,-147.62551879882812,29.36673736572266
479,2187354941,169.04798889160156,-64.69335174560547,-100.05148315429688,13.07986640930176,-8.25300788879395,-17.78270912170410,-224.84002685546875,-110.95488739013672,10.44640350341797
480,2187371608,168.39036560058594,-63.58318710327148,-99.61785125732422,3.86818861961365,1.21360039710999,-5.73649120330811,-16.09169960021973,-63.02220535278320,-25.47931098937988
481,2187388275,169.16769409179688,-62.79086685180664,-99.78018188476562,7.73554372787476,5.80351305007935,-8.28838729858398,37.89531707763672,-47.40414810180664,-6.25321102142334
482,2187404942,168.48170471191406,-62.09418487548828,-100.22594451904297,28.30462074279785,11.50478076934814,-4.29575347900391,-64.91053771972656,-43.32371520996094,2.74142456054688
483,2187421609,168.64614868164062,-61.80096435546875,-100.18971252441406,8.45962238311768,-2.56594061851501,-6.35006523132324,11.74684238433838,-16.96085929870605,-5.76853990554810
484,2187438276,168.83259582519531,-61.54505157470703,-100.84984588623047,-1.75653266906738,1.80577325820923,-5.33497142791748,-23.71966743469238,-18.64606666564941,14.15339565277100
485,2187454943,169.25711059570312,-61.32108306884766,-101.75205230712891,0.33487176895142,1.02502429485321,-5.77212524414062,-22.10917854309082,-18.02854347229004,21.58602905273438
486,2187471610,170.10350036621094,-61.38953781127930,-102.47963714599609,12.53710269927979,1.03335821628571,-6.46559619903564,12.43167877197266,0.37130156159401,20.05535125732422
487,2187488277,170.21040344238281,-61.71258926391602,-102.92990112304688,17.34342384338379,1.71214008331299,-5.42117404937744,-17.37592124938965,16.97899246215820,14.72540283203125
488,2187504944,170.91235351562500,-62.22643280029297,-103.37203216552734,12.76698875427246,1.31482481956482,-6.71095514297485,18.66075134277344,28.44841384887695,16.08754730224609
489,2187521611,171.18487548828125,-63.01795578002930,-103.78635406494141,11.50755119323730,2.70334672927856,-6.79818964004517,-5.76100969314575,45.21348190307617,17.41783714294434
490,2187538278,171.46192932128906,-64.18003082275391,-104.11919403076172,11.63491153717041,1.20906651020050,-8.31457138061523,-1.30226802825928,67.66363525390625,18.03659439086914
491,2187554945,171.93284606933594,-65.65512847900391,-104.07189941406250,12.37896728515625,2.11627769470215,-8.27654743194580,30.78545951843262,87.82586669921875,10.33162307739258
492,2187571612,172.17346191406250,-67.64826202392578,-103.68347930908203,13.84802341461182,2.93249726295471,-8.57715320587158,35.79158401489258,119.78638458251953,6.13128900527954
493,2187588279,171.66096496582031,-70.62977600097656,-102.85403442382812,16.74773216247559,5.35939359664917,-9.64369297027588,15.72267532348633,179.65341186523438,6.35347223281860
494,2187604946,168.57200622558594,-75.11419677734375,-100.04541015625000,23.33793258666992,7.15249586105347,-10.55390167236328,-24.21679687500000,273.52685546875000,-3.98189330101013
495,2187621613,153.41734313964844,-81.21732330322266,-86.26321411132812,35.46739578247070,7.26488971710205,-6.35120058059692,-98.57875061035156,398.79034423828125,-43.02252960205078
496,2187638280,74.73234558105469,-84.08110046386719,-9.73587226867676,54.51493072509766,7.72059440612793,1.85164070129395,-154.78063964843750,553.85833740234375,-101.03386688232422
497,2187654947,32.53722381591797,-76.46806335449219,28.43881034851074,59.08221817016602,3.29937672615051,-16.99026870727539,-266.88769531250000,562.56164550781250,-123.01464843750000
498,2187671614,15.30432605743408,-73.67479705810547,36.61114120483398,-14.36610984802246,-25.66393089294434,-45.61762237548828,-559.92626953125000,204.30816650390625,46.49258422851562
499,2187688281,5.78310489654541,-76.32184600830078,34.48764801025391,-16.23745155334473,15.28363227844238,2.77527189254761,-694.23431396484375,-162.21870422363281,-4.65084314346313
500,2187704948,9.21604442596436,-79.27864837646484,27.27556419372559,9.33014678955078,-34.21514129638672,-7.39042711257935,-217.02381896972656,-187.28311157226562,-68.80538940429688
501,2187721615,18.32028579711914,-80.41374206542969,19.68950080871582,1.51206827163696,1.05692160129547,16.17831039428711,98.23773193359375,-84.89786529541016,-63.07370376586914
502,2187738282,21.41419792175293,-80.35856628417969,21.00205612182617,7.76717901229858,-10.07271289825439,9.27594375610352,263.31661987304688,7.73481702804565,9.98141002655029
503,2187754949,23.05575180053711,-79.34935760498047,24.14900779724121,-0.04246163740754,5.67147493362427,8.90733814239502,284.36016845703125,68.74411010742188,6.63041353225708
504,2187771616,21.18418312072754,-78.81893157958984,26.43719291687012,-2.14006686210632,2.27486181259155,3.51698565483093,22.50520515441895,39.38471984863281,10.84772777557373
505,2187788283,19.32283020019531,-78.86127471923828,26.64594650268555,-3.53805518150330,1.21381318569183,3.12993645668030,-99.39604187011719,-1.41994059085846,1.88658833503723
506,2187804950,17.88056373596191,-78.88845825195312,26.55289077758789,-0.09796904772520,-3.14597606658936,2.10024976730347,-92.01635742187500,-1.76366615295410,-1.76666307449341
507,2187821617,16.01132202148438,-78.55769348144531,28.11148452758789,0.38217037916183,0.43830820918083,1.75338292121887,-20.44754409790039,24.42952156066895,10.45534420013428
508,2187838284,12.87765884399414,-78.10928344726562,30.74732971191406,0.00496527506039,2.51842927932739,0.51692950725555,-33.14841079711914,34.13505554199219,23.01511573791504
509,2187854951,11.35483741760254,-77.76718139648438,31.79581451416016,-1.39015531539917,2.97632145881653,-0.30758714675903,-29.85028076171875,22.94193267822266,7.29414415359497
510,2187871618,11.01232719421387,-77.77610015869141,31.46058845520020,-0.81365180015564,0.52989572286606,-0.13967840373516,-40.20438003540039,-1.23263096809387,-5.33250474929810
511,2187888285,10.90652656555176,-77.92833709716797,31.33955192565918,-0.08167167752981,-1.18945622444153,0.38150224089622,-13.43361663818359,-9.12939929962158,-1.01937353610992
512,2187904952,10.88506317138672,-78.11217498779297,31.34529495239258,1.25358593463898,-1.03568601608276,1.20585918426514,-0.93866747617722,-10.69262886047363,0.90062606334686
513,2187921619,10.85774707794189,-78.18472290039062,31.70248794555664,1.68896794319153,-2.04973793029785,1.83308148384094,19.34116935729980,-3.33125662803650,3.89118266105652
514,2187938286,10.52049827575684,-78.06404113769531,32.69984436035156,1.42830669879913,0.37159076333046,2.12264657020569,38.33167266845703,9.50901985168457,9.50969886779785
515,2187954953,9.06628990173340,-77.90940093994141,33.96568298339844,0.34970080852509,2.13966369628906,2.65712571144104,-12.96386432647705,11.94557285308838,12.75370597839355
516,2187971620,6.85611009597778,-77.80411529541016,35.41800308227539,-0.75762933492661,0.92124664783478,2.09566402435303,-47.42482757568359,8.89988040924072,16.03894996643066
517,2187988287,5.15101623535156,-77.79946136474609,36.43758010864258,-1.46946775913239,0.67884945869446,1.50297379493713,-42.51194763183594,1.73985695838928,11.58594512939453
518,2188004954,4.22595167160034,-77.96304321289062,37.01934814453125,-0.98988014459610,-1.42004966735840,0.93325805664062,-21.37005233764648,-9.07064056396484,6.86523675918579
519,2188021621,5.08148241043091,-78.12561035156250,37.18597793579102,-0.82569509744644,-0.93086099624634,0.47363623976707,61.13185882568359,-9.43931674957275,1.60983753204346
520,2188038288,6.67544889450073,-78.31268310546875,37.01191329956055,0.01774520426989,1.37929594516754,0.94305783510208,85.42893981933594,-11.27953815460205,-2.22026920318604
521,2188054955,8.63987255096436,-78.47229766845703,36.43670654296875,0.41955092549324,2.41161274909973,1.03973305225372,84.08250427246094,-10.30638980865479,-6.85551643371582
522,2188071622,10.23874187469482,-78.69453430175781,35.59235763549805,-0.05211343616247,3.84083747863770,1.18430066108704,46.29077529907227,-14.69592380523682,-8.95217609405518
523,2188088289,11.16327190399170,-79.13670349121094,34.42391204833984,-0.58708608150482,2.46421694755554,0.55626773834229,-13.30844211578369,-28.45736312866211,-9.56282711029053
524,2188104956,12.81828784942627,-79.79502105712891,32.41363143920898,-0.79144406318665,0.37516957521439,0.19095307588577,-19.26127624511719,-43.09627151489258,-14.61414241790771
525,2188121623,16.19432830810547,-80.55537414550781,29.17205238342285,0.08238731324673,-2.34733629226685,0.93166548013687,10.95600700378418,-52.33834075927734,-21.96758079528809
526,2188138290,21.76943588256836,-81.17888641357422,25.07129287719727,0.70614039897919,0.62326008081436,0.91110646724701,91.61943054199219,-47.94511795043945,-26.04138946533203
527,2188154957,28.13120841979980,-81.76252746582031,19.98728179931641,0.27574947476387,4.32690525054932,1.96220254898071,80.07762145996094,-50.70145416259766,-27.54106330871582
528,2188171624,35.50996017456055,-82.45360565185547,13.27691650390625,-0.62520992755890,-0.55587732791901,1.25247764587402,43.94838714599609,-64.22071075439453,-26.43077087402344
529,2188188291,47.19972229003906,-83.24584960937500,3.59565591812134,2.35755777359009,-2.59362006187439,-3.80794048309326,125.05242919921875,-83.21337890625000,-24.27573585510254
530,2188204958,110.66551208496094,-84.89608001708984,-52.38335800170898,-0.00341224670410,-7.48589420318604,-105.72621154785156,463.41619873046875,-344.99145507812500,20.32241630554199
531,2188221625,149.31103515625000,-80.02208709716797,-101.55036926269531,74.52551269531250,-18.70916366577148,64.12866210937500,-610.46618652343750,-459.42846679687500,37.11643218994141
532,2188238292,164.97706604003906,-74.40021514892578,-111.20318603515625,35.36100006103516,-28.19525527954102,2.49379158020020,374.08111572265625,-359.43090820312500,-13.67135238647461
533,2188254959,159.39157104492188,-73.01727294921875,-101.25695800781250,22.17266082763672,64.35476684570312,40.96909713745117,237.76353454589844,-27.42350959777832,-185.86842346191406
534,2188271626,165.13278198242188,-70.02681732177734,-103.04228210449219,18.76724624633789,-20.13838958740234,-37.11269378662109,242.77684020996094,-181.13272094726562,-23.52260208129883
535,2188288293,163.17778015136719,-69.79285430908203,-102.98477172851562,-24.19756698608398,16.55223655700684,-10.83841323852539,-114.06334686279297,-13.09181690216064,-6.21237373352051
536,2188304960,162.80335998535156,-70.88758850097656,-104.47812652587891,-10.67595195770264,-3.95381069183350,-22.43448257446289,-106.84965515136719,54.06070709228516,46.83292388916016
537,2188321627,161.66523742675781,-72.86368560791016,-104.83383178710938,16.72871208190918,3.85512900352478,-8.66262531280518,-88.57913208007812,110.94529724121094,41.28395843505859
538,2188338294,159.40759277343750,-74.66819763183594,-101.66702270507812,29.69020462036133,-8.50953006744385,-0.05624014139175,46.97235870361328,119.80187225341797,-15.24553012847900
539,2188354961,158.11950683593750,-76.55288696289062,-96.96446990966797,8.52789306640625,4.48281478881836,-7.21138191223145,195.99653625488281,130.77508544921875,-25.67871665954590
540,2188371628,152.14952087402344,-78.31634521484375,-91.39110565185547,3.85322403907776,6.34151554107666,-5.29414558410645,-31.75954627990723,126.52119445800781,-22.81312179565430
541,2188388295,145.55093383789062,-80.13349151611328,-85.03372192382812,5.86224365234375,1.23666071891785,-4.22153472900391,-21.13541603088379,130.08023071289062,-5.97745513916016
542,2188404962,138.71907043457031,-81.86337280273438,-77.23600769042969,9.44435691833496,1.68500471115112,-1.08404123783112,52.26149368286133,126.69778442382812,4.48499727249146
543,2188421629,131.45057678222656,-83.22975158691406,-69.17314910888672,10.40186882019043,0.87683546543121,0.54880613088608,43.65839767456055,102.25057220458984,11.97619342803955
544,2188438296,123.13739776611328,-84.22467803955078,-59.92193222045898,7.33667516708374,1.89222323894501,4.22516584396362,53.08247756958008,84.35951232910156,9.23657321929932
545,2188454963,112.85108184814453,-84.94898986816406,-49.45156860351562,7.37483596801758,1.59760415554047,5.08813381195068,8.42976188659668,72.75158691406250,9.02878952026367
546,2188471630,101.18820190429688,-85.31726074218750,-38.58792114257812,7.08349275588989,3.67735147476196,3.52740120887756,-50.09350204467773,59.49695968627930,3.53245091438293
547,2188488297,90.76139831542969,-85.47598266601562,-29.69474029541016,8.41826820373535,-0.58222484588623,3.05606245994568,-93.56962585449219,43.79505920410156,3.71575474739075
548,2188504964,82.07720947265625,-85.55696868896484,-21.73343658447266,10.00471401214600,-2.27380943298340,3.16785311698914,-44.71440505981445,37.18529129028320,5.95296144485474
549,2188521631,77.56796264648438,-85.55335998535156,-16.86232185363770,9.89560413360596,-1.87732291221619,1.79102146625519,20.89280509948730,22.51319694519043,2.58783245086670
550,2188538298,76.45613098144531,-85.54138946533203,-15.33232307434082,10.05521011352539,0.41523608565331,2.71279883384705,24.83480834960938,7.22655010223389,-0.30921643972397
551,2188554965,76.09352111816406,-85.52630615234375,-14.77486038208008,9.61229610443115,0.32919698953629,0.93288904428482,11.58694744110107,2.84365129470825,-1.46346545219421
552,2188571632,75.34555816650391,-85.50499725341797,-13.46575450897217,10.09417247772217,0.75106447935104,0.48734652996063,33.44473648071289,6.37884283065796,-0.92544817924500
553,2188588299,73.64442443847656,-85.47411346435547,-11.22821426391602,9.69137191772461,1.55186259746552,-0.58957850933075,31.79014587402344,10.80040454864502,-0.16469669342041
554,2188604966,70.89273071289062,-85.42380523681641,-8.15832805633545,10.12027168273926,1.26311111450195,-0.72646272182465,18.53397369384766,14.98372554779053,0.38690617680550
555,2188621633,67.20708465576172,-85.34722137451172,-4.52378082275391,9.86616325378418,1.26544654369354,-0.33960169553757,-3.75761198997498,18.17287445068359,0.81266635656357
556,2188638300,64.22165679931641,-85.29139709472656,-1.69866120815277,9.73182392120361,0.26118212938309,-0.32299610972404,-10.17304706573486,14.11896133422852,1.46036076545715
557,2188654967,61.45372772216797,-85.22525024414062,1.11256802082062,9.73800563812256,0.59626293182373,1.19773447513580,2.04183292388916,14.35302162170410,1.64662873744965
558,2188671634,58.66067123413086,-85.15208435058594,4.13696670532227,9.73401069641113,0.01259548217058,0.62296223640442,13.25446701049805,15.51424026489258,2.61625719070435
559,2188688301,56.25867462158203,-85.07534790039062,6.75153684616089,9.59315395355225,0.90428632497787,-0.42606344819069,12.18052387237549,13.85948848724365,2.13728618621826
560,2188704968,53.76316833496094,-84.98690795898438,9.15717697143555,10.04050350189209,1.07047986984253,0.65776133537292,-5.94403266906738,13.40008068084717,1.65025937557220
561,2188721635,51.57038879394531,-84.91746520996094,11.16438198089600,9.66996383666992,0.49038159847260,0.52374529838562,-11.59816551208496,11.07069015502930,1.92542374134064
562,2188738302,49.79565811157227,-84.85494232177734,12.89547348022461,9.81454086303711,-0.04760475084186,1.12906551361084,-3.04759860038757,9.64278697967529,1.78615331649780
563,2188754969,48.35397338867188,-84.80371093750000,14.43450164794922,9.33891487121582,0.28390496969223,0.59761762619019,5.46397161483765,8.40729331970215,1.94109725952148
564,2188771636,47.34947967529297,-84.76868438720703,15.46752166748047,9.86814022064209,0.50775265693665,1.12008452415466,1.44824457168579,5.68541860580444,1.02760732173920
565,2188788303,46.50645065307617,-84.73545837402344,16.28975296020508,9.58387184143066,0.22535836696625,1.65545856952667,-1.45619082450867,4.75977468490601,0.42312178015709
566,2188804970,45.67024993896484,-84.67954254150391,17.27140808105469,9.61657714843750,0.04308488965034,1.37493538856506,8.46751117706299,6.33836460113525,0.15726204216480
567,2188821637,45.26570129394531,-84.64288330078125,17.86883163452148,9.63334083557129,0.11876818537712,0.40141740441322,11.42077255249023,4.02081155776978,-0.43774047493935
568,2188838304,45.01193237304688,-84.60414123535156,18.33273696899414,9.84857463836670,0.74039334058762,0.85610276460648,12.47010231018066,3.57356333732605,-1.00433242321014
569,2188854971,44.77459716796875,-84.57870483398438,18.66847038269043,9.77876281738281,0.66467285156250,0.95525175333023,5.80645132064819,2.51064705848694,-0.93566423654556
570,2188871638,44.73423385620117,-84.56920623779297,18.83247756958008,9.65505313873291,0.40305715799332,0.95832920074463,7.38314342498779,1.16040909290314,-0.95651280879974
571,2188888305,44.88397216796875,-84.56790924072266,18.87864303588867,9.75336265563965,0.26470610499382,1.26067328453064,11.74657821655273,0.33795973658562,-1.08647191524506
572,2188904972,45.02979660034180,-84.55108642578125,18.95275115966797,9.70351409912109,0.69907534122467,1.68049895763397,13.16713714599609,1.09489226341248,-1.61903727054596
573,2188921639,44.80395889282227,-84.51584625244141,19.29535102844238,9.51616764068604,0.50077521800995,0.69873964786530,6.91243314743042,2.97492814064026,-1.31565415859222
574,2188938306,44.67452239990234,-84.49035644531250,19.49921607971191,10.01899433135986,0.62093305587769,0.60686135292053,4.39680433273315,1.99634349346161,-1.44855833053589
575,2188954973,44.55706024169922,-84.46441650390625,19.69452285766602,9.86588096618652,0.78125518560410,0.89531600475311,4.60796833038330,1.98595762252808,-1.49435389041901
576,2188971640,44.25670623779297,-84.43711853027344,19.97040176391602,9.65510749816895,0.57901787757874,0.54397827386856,-1.55303239822388,2.38263416290283,-1.21048820018768
577,2188988307,44.14755249023438,-84.43064117431641,19.96127891540527,9.89437198638916,0.31569051742554,0.93243557214737,-7.09948873519897,0.33355420827866,-1.52265584468842
578,2189004974,44.06727981567383,-84.40995025634766,20.07153129577637,9.72653484344482,0.40497219562531,1.38596677780151,1.77078533172607,1.43245422840118,-1.61442613601685
579,2189021641,43.56363677978516,-84.38110351562500,20.51220893859863,9.89041900634766,0.39946812391281,1.55176496505737,-3.91024613380432,3.13233065605164,-0.54372560977936
580,2189038308,42.88384628295898,-84.35489654541016,21.11947441101074,9.73805522918701,0.52335357666016,0.27527895569801,-4.53463840484619,3.68515515327454,0.32821393013000
581,2189054975,42.13105392456055,-84.32856750488281,21.72611808776855,10.06940269470215,0.93596184253693,0.65314203500748,-8.94972038269043,3.68832612037659,0.36993074417114
582,2189071642,41.11549758911133,-84.28701782226562,22.48233222961426,9.81115913391113,0.64878612756729,0.78467977046967,-15.78452682495117,4.95699644088745,0.49928164482117
583,2189088309,40.22615051269531,-84.22504425048828,23.18471527099609,9.86271095275879,0.20107695460320,1.15880727767944,-11.45020675659180,5.65373706817627,-0.41835159063339
584,2189104976,39.41228103637695,-84.12290954589844,23.89117240905762,9.83743286132812,-0.04566075652838,1.25369405746460,-6.68530750274658,7.54601621627808,-1.81524312496185
585,2189121643,38.79089355468750,-83.98992919921875,24.54699897766113,9.79065227508545,0.27216655015945,0.05925406515598,1.83650124073029,8.84552001953125,-3.06803059577942
586,2189138310,38.39556503295898,-83.85841369628906,24.84683799743652,10.14640522003174,0.99945694208145,-0.22372663021088,-5.84061288833618,7.44397497177124,-4.64385986328125
587,2189154977,36.86304473876953,-83.71291351318359,25.89155960083008,9.87735939025879,0.96185487508774,0.26291152834892,-29.66461753845215,11.13963603973389,-1.14610826969147
588,2189171644,35.49169540405273,-83.58497619628906,26.94687271118164,9.77273654937744,0.51067274808884,0.91321307420731,-19.36647033691406,10.42273902893066,-0.07394397258759
589,2189188311,34.32888412475586,-83.48633575439453,27.90793037414551,9.50436401367188,0.27854990959167,1.13597071170807,-12.49622631072998,8.65413379669189,0.74305695295334
590,2189204978,33.52928543090820,-83.42377471923828,28.51043510437012,9.65837669372559,0.44562977552414,1.21244120597839,-12.07472419738770,5.50527334213257,0.11904788762331
591,2189221645,33.28232574462891,-83.39080810546875,28.52459144592285,9.55469417572021,0.41629290580750,0.87995553016663,-13.97682666778564,1.79660403728485,-2.22166609764099
592,2189238312,33.78586578369141,-83.41733551025391,27.70434379577637,9.55851364135742,0.45541527867317,0.99863016605377,-18.67413711547852,-4.35983180999756,-5.05896949768066
593,2189254979,35.26357269287109,-83.52989196777344,26.04579162597656,9.63426208496094,-0.02341023460031,0.97174912691116,-10.19662475585938,-11.88126277923584,-6.73205518722534
594,2189271646,37.19872665405273,-83.67379760742188,24.18074226379395,9.64858341217041,0.32655435800552,0.88073384761810,4.91742467880249,-14.24741554260254,-6.19686317443848
595,2189288313,39.03082275390625,-83.81826019287109,22.41488075256348,9.78514099121094,0.56552529335022,0.97281891107559,4.62136650085449,-13.85110855102539,-4.97610950469971
596,2189304980,40.45920181274414,-83.94991302490234,20.98100662231445,9.93682956695557,0.75626975297928,1.10867869853973,0.17297543585300,-11.84064579010010,-3.23809337615967
597,2189321647,41.32954406738281,-84.03977203369141,20.06376647949219,9.96914863586426,0.64000803232193,1.06667339801788,-2.50658702850342,-7.75285053253174,-2.05481767654419
598,2189338314,41.36835098266602,-84.05432891845703,19.94663619995117,9.80495643615723,0.46924036741257,0.77687084674835,-4.65965461730957,-1.04369199275970,-1.18773770332336
599,2189354981,41.43609619140625,-84.06813049316406,19.80523300170898,9.68038654327393,0.59882086515427,0.85890841484070,-4.37368249893188,-1.10536110401154,-1.33301949501038
600,2189371648,41.57720184326172,-84.09584808349609,19.56786727905273,9.71216011047363,0.50559711456299,1.03286302089691,-5.69876861572266,-2.12710285186768,-1.21675050258636
601,2189388315,41.93435287475586,-84.14128112792969,19.16279029846191,9.74203109741211,0.40874543786049,1.01007735729218,-2.74555349349976,-3.59788036346436,-1.26690673828125
602,2189404982,42.45861053466797,-84.19596099853516,18.65003204345703,9.71863937377930,0.58083486557007,0.81384718418121,0.86595916748047,-4.42762994766235,-1.34629333019257
603,2189421649,42.88226699829102,-84.25178527832031,18.14978408813477,9.80860233306885,0.63346207141876,0.91437828540802,-4.44206285476685,-4.42053508758545,-1.17498278617859
604,2189438316,43.21459960937500,-84.29312133789062,17.82215499877930,9.80431938171387,0.48524078726768,0.73883152008057,0.38007965683937,-3.05866217613220,-0.96263414621353
605,2189454983,43.42394638061523,-84.33074951171875,17.55903244018555,9.76066684722900,0.64402228593826,0.83318346738815,-3.14971518516541,-2.62290048599243,-0.81167280673981
606,2189471650,43.61706924438477,-84.36267852783203,17.30660247802734,9.75948238372803,0.44638031721115,0.88626199960709,-3.48088717460632,-2.32347512245178,-0.98443049192429
607,2189488317,43.83274078369141,-84.39415740966797,17.07788848876953,9.73397445678711,0.40520483255386,0.96542745828629,-0.71438944339752,-2.20079684257507,-0.88785147666931
608,2189504984,44.15359878540039,-84.42887878417969,16.75136947631836,9.75224113464355,0.49038177728653,0.99295175075531,-0.23388876020908,-2.72065138816833,-1.15892982482910
609,2189521651,44.48906707763672,-84.46905517578125,16.42377090454102,9.77218151092529,0.42296266555786,0.89850968122482,0.57285374403000,-2.95888829231262,-0.90244442224503
610,2189538318,44.87989807128906,-84.50645446777344,16.06960678100586,9.75504684448242,0.62528318166733,0.75570827722549,2.29651188850403,-2.94199705123901,-1.09430921077728
611,2189554985,45.22152709960938,-84.54346466064453,15.71078395843506,9.70371723175049,0.55364644527435,0.66795039176941,-0.92749339342117,-2.92669248580933,-1.10815262794495
612,2189571652,45.57217788696289,-84.58014678955078,15.34157466888428,9.76448917388916,0.54358232021332,0.78911083936691,-1.00964629650116,-2.94496726989746,-1.13614726066589
613,2189588319,45.90704727172852,-84.61540985107422,15.00840377807617,9.81039905548096,0.42545688152313,0.82430195808411,0.19707691669464,-2.73303484916687,-1.02272152900696
614,2189604986,46.19219589233398,-84.64075469970703,14.76552200317383,9.81190776824951,0.53823167085648,0.71621894836426,2.60076475143433,-1.94704532623291,-1.07361388206482
615,2189621653,46.36313247680664,-84.66138458251953,14.56899642944336,9.78461074829102,0.67226362228394,0.67169988155365,-1.49138271808624,-1.56065225601196,-1.08451211452484
616,2189638320,46.41901016235352,-84.67549896240234,14.48158264160156,9.79175281524658,0.54393112659454,0.66488295793533,-1.86302316188812,-0.83937305212021,-0.94785565137863
617,2189654987,46.41889953613281,-84.68599700927734,14.45345592498779,9.77674388885498,0.54564458131790,0.69404071569443,-1.69401729106903,-0.46186733245850,-0.86392259597778
618,2189671654,46.44273757934570,-84.69998931884766,14.42086219787598,9.72045230865479,0.50959700345993,0.70545798540115,-0.51456546783447,-0.61264938116074,-0.73977792263031
619,2189688321,46.48959350585938,-84.71991729736328,14.34877490997314,9.74757671356201,0.52045863866806,0.80559253692627,-1.49139535427094,-1.01713788509369,-0.63115453720093
620,2189704988,46.61025238037109,-84.74144744873047,14.24667453765869,9.74951457977295,0.47344928979874,0.80368810892105,1.14148116111755,-1.20163905620575,-0.67228859663010
621,2189721655,46.78022003173828,-84.76823425292969,14.08751201629639,9.73277664184570,0.51471322774887,0.80264705419540,0.68985241651535,-1.64555823802948,-0.65065860748291
622,2189738322,47.02790451049805,-84.79655456542969,13.84881496429443,9.76672458648682,0.45195287466049,0.76755023002625,0.59048801660538,-2.02597093582153,-0.86663776636124
623,2189754989,47.28709793090820,-84.82528686523438,13.61641788482666,9.81181812286377,0.57592409849167,0.69548177719116,1.67713236808777,-1.99823224544525,-0.82458168268204
624,2189771656,47.47933959960938,-84.84809112548828,13.42367172241211,9.76414966583252,0.48934525251389,0.63027274608612,0.01954889297485,-1.59787380695343,-0.92249262332916
625,2189788323,47.65743255615234,-84.86878204345703,13.26157665252686,9.75800704956055,0.52184486389160,0.65368658304214,1.00547111034393,-1.38405883312225,-0.90009421110153
626,2189804990,47.83625030517578,-84.88626861572266,13.09628009796143,9.76921272277832,0.50234621763229,0.73188585042953,0.84067273139954,-1.27551865577698,-1.03381156921387
627,2189821657,48.00974273681641,-84.90353393554688,12.93869018554688,9.74726676940918,0.51357144117355,0.70507079362869,0.99593698978424,-1.22488248348236,-1.01949417591095
628,2189838324,48.16307830810547,-84.91669464111328,12.78224658966064,9.76894378662109,0.54177743196487,0.67545050382614,-0.14533285796642,-1.05211210250854,-1.19421136379242
629,2189854991,48.30923843383789,-84.92847442626953,12.63348388671875,9.75119113922119,0.51881253719330,0.65046513080597,-0.11715888977051,-0.96706515550613,-1.22316634654999
630,2189871658,48.45389556884766,-84.93933868408203,12.47586441040039,9.76322078704834,0.52020889520645,0.72222447395325,-0.73783791065216,-0.96258932352066,-1.29404342174530
631,2189888325,48.60132980346680,-84.94972229003906,12.34035205841064,9.79272556304932,0.46566259860992,0.65553385019302,0.74438822269440,-0.85862731933594,-1.22930705547333
632,2189904992,48.73346710205078,-84.95647430419922,12.21870708465576,9.75624752044678,0.50567638874054,0.66878080368042,0.65350162982941,-0.66042345762253,-1.34086322784424
633,2189921659,48.84061813354492,-84.95989990234375,12.12313270568848,9.76635932922363,0.51280719041824,0.66255766153336,0.71745020151138,-0.42381978034973,-1.39866471290588
634,2189938326,48.95526504516602,-84.96327972412109,12.00280475616455,9.76035785675049,0.51552206277847,0.65405017137527,-0.32235500216484,-0.52482342720032,-1.48150897026062
635,2189954993,49.08742141723633,-84.96456146240234,11.86733341217041,9.74319076538086,0.50312566757202,0.66648811101913,-0.16409415006638,-0.49426743388176,-1.63754153251648
636,2189971660,49.20399856567383,-84.96530151367188,11.75509643554688,9.76860237121582,0.50540977716446,0.70070964097977,0.28545349836349,-0.38714233040810,-1.57192158699036
637,2189988327,49.34085083007812,-84.96620178222656,11.64016437530518,9.78005981445312,0.46173173189163,0.67522478103638,1.34119617938995,-0.40014082193375,-1.58055341243744
638,2190004994,49.47788619995117,-84.96475982666016,11.52395153045654,9.78033733367920,0.53358757495880,0.65062487125397,1.27698516845703,-0.31847473978996,-1.68564236164093
639,2190021661,49.59185409545898,-84.95982360839844,11.42652416229248,9.74483203887939,0.50243228673935,0.63945579528809,1.01738762855530,-0.10594052076340,-1.78411006927490
640,2190038328,49.65427017211914,-84.95437622070312,11.37925434112549,9.76979637145996,0.58496803045273,0.63383316993713,0.91488558053970,0.10825207084417,-1.62629747390747
641,2190054995,49.67824172973633,-84.94724273681641,11.34876918792725,9.75380325317383,0.55207431316376,0.59769278764725,-0.38963955640793,0.24398654699326,-1.65073204040527
642,2190071662,49.69200897216797,-84.93840789794922,11.31541442871094,9.72719287872314,0.51689517498016,0.67762595415115,-1.16949510574341,0.29966861009598,-1.74050474166870
643,2190088329,49.65314102172852,-84.92696380615234,11.34971809387207,9.77032089233398,0.49736455082893,0.64727342128754,-0.28452509641647,0.67175716161728,-1.62403094768524
644,2190104996,49.57305908203125,-84.91292572021484,11.42362689971924,9.76490306854248,0.58857613801956,0.64636921882629,-0.39991030097008,0.93112403154373,-1.60118424892426
645,2190121663,49.42562484741211,-84.89653778076172,11.56067085266113,9.76402473449707,0.52446329593658,0.61817693710327,-0.64972370862961,1.29079043865204,-1.49870789051056
646,2190138330,49.21611785888672,-84.87689208984375,11.75339126586914,9.74945926666260,0.56669288873672,0.63696283102036,-1.05973196029663,1.64103126525879,-1.43878710269928
647,2190154997,48.92440414428711,-84.85635375976562,12.02650547027588,9.77976989746094,0.54911118745804,0.64775264263153,-1.18159699440002,2.00875258445740,-1.18883264064789
648,2190171664,48.59045791625977,-84.83131408691406,12.34566688537598,9.77806282043457,0.57880067825317,0.64575463533401,-0.97567087411880,2.37452769279480,-1.20806777477264
649,2190188331,48.20422363281250,-84.80381774902344,12.70234870910645,9.75064945220947,0.52974379062653,0.63048601150513,-1.86476480960846,2.63214063644409,-1.16201627254486
650,2190204998,47.77139282226562,-84.77310180664062,13.11633396148682,9.76654338836670,0.55873757600784,0.65228134393692,-1.23845732212067,3.00211596488953,-1.07426714897156
651,2190221665,47.21114349365234,-84.73712921142578,13.62930774688721,9.80760669708252,0.65118765830994,0.67843782901764,-2.97554922103882,3.62569546699524,-0.90191924571991
652,2190238332,46.57728958129883,-84.69584655761719,14.20434761047363,9.76598930358887,0.51626318693161,0.65984684228897,-3.67542910575867,4.10934019088745,-0.85221779346466
653,2190254999,45.89998626708984,-84.65067291259766,14.83004665374756,9.73678684234619,0.49006721377373,0.66967552900314,-3.26567721366882,4.48728132247925,-0.75865465402603
654,2190271666,45.18780136108398,-84.60014343261719,15.50224018096924,9.79189014434814,0.56409472227097,0.75367414951324,-2.58048629760742,4.91498804092407,-0.72934097051620
655,2190288333,44.44267654418945,-84.55014801025391,16.18732833862305,9.78943157196045,0.55410027503967,0.79623031616211,-3.79048180580139,4.96443319320679,-0.57110565900803
656,2190305000,43.72578048706055,-84.50267791748047,16.85395622253418,9.75895500183105,0.50653630495071,0.76064735651016,-3.21597552299500,4.78454208374023,-0.44264510273933
657,2190321667,43.07024002075195,-84.45761871337891,17.47257804870605,9.74432373046875,0.52889508008957,0.81707644462585,-2.38954353332520,4.51500701904297,-0.47913041710854
658,2190338334,42.47291564941406,-84.41644287109375,18.03637695312500,9.75764083862305,0.49664103984833,0.87545871734619,-2.18277215957642,4.12815284729004,-0.47965547442436
659,2190355001,41.89184951782227,-84.37817382812500,18.60073280334473,9.77684402465820,0.53434747457504,0.83825564384460,-1.16355288028717,4.01974630355835,-0.30963829159737
660,2190371668,41.32866668701172,-84.33932495117188,19.15340423583984,9.80134868621826,0.50619298219681,0.85628145933151,-0.78978037834167,4.00330972671509,-0.32642108201981
661,2190388335,40.77491378784180,-84.30047607421875,19.69134521484375,9.75618934631348,0.51911264657974,0.81969970464706,-1.11841034889221,3.94470143318176,-0.33398318290710
662,2190405002,40.26489639282227,-84.26359558105469,20.17341804504395,9.73800659179688,0.51395308971405,0.89544731378555,-1.83084690570831,3.64370751380920,-0.45860815048218
663,2190421669,39.81062316894531,-84.23234558105469,20.59892082214355,9.75471782684326,0.48084145784378,1.01446342468262,-1.85781729221344,3.17403483390808,-0.46463999152184
664,2190438336,39.42916107177734,-84.20606994628906,20.98360061645508,9.76238250732422,0.45132285356522,0.94446676969528,0.07069104909897,2.78636717796326,-0.43051743507385
665,2190455003,39.10654067993164,-84.18163299560547,21.31262207031250,9.77985286712646,0.46112301945686,0.94301122426987,0.27912721037865,2.48979783058167,-0.60075229406357
666,2190471670,38.83921432495117,-84.16300201416016,21.57199096679688,9.77166652679443,0.54345852136612,0.98415136337280,-0.55272847414017,1.96044743061066,-0.69909214973450
667,2190488337,38.63623046875000,-84.14770507812500,21.77979660034180,9.79380989074707,0.42203003168106,0.96657609939575,0.21610715985298,1.59486448764801,-0.80077469348907
668,2190505004,38.51921463012695,-84.13890075683594,21.91105270385742,9.71233177185059,0.46800246834755,0.94488900899887,0.81070590019226,1.00239133834839,-0.92329293489456
669,2190521671,38.47621536254883,-84.13739776611328,21.98671340942383,9.74426460266113,0.44137105345726,0.95280915498734,1.93591046333313,0.45102685689926,-0.91755574941635
670,2190538338,38.46269607543945,-84.14020538330078,22.02448844909668,9.77030467987061,0.53867644071579,0.92940974235535,1.44353187084198,0.10077317059040,-0.93804591894150
671,2190555005,38.48894119262695,-84.14512634277344,22.00203132629395,9.75469684600830,0.47627732157707,0.91901779174805,0.23299875855446,-0.22616656124592,-1.15074682235718
672,2190571672,38.51150131225586,-84.15035247802734,21.99505043029785,9.76327133178711,0.47611838579178,0.84982669353485,0.94346940517426,-0.17693892121315,-1.06797909736633
673,2190588339,38.52734756469727,-84.15387725830078,21.97679710388184,9.75606632232666,0.53482061624527,0.88238674402237,-0.14295087754726,-0.14863689243793,-1.17990660667419
674,2190605006,38.49971389770508,-84.15581512451172,22.00080871582031,9.79696655273438,0.47719138860703,0.88595968484879,-0.22132572531700,0.09101472795010,-1.03928005695343
675,2190621673,38.44492340087891,-84.15380859375000,22.07431411743164,9.80893993377686,0.51207935810089,0.86763590574265,1.09644126892090,0.46109262108803,-0.94683116674423
676,2190638340,38.34535217285156,-84.14823913574219,22.18221855163574,9.77510356903076,0.53896147012711,0.86165422201157,0.46373072266579,0.75981360673904,-0.91349619626999
