sep=,
DeviceTag:,Xsens_DOT_2
FirmwareVersion:,3.0.0
AppVersion:,2023.6.0
StartTime: ,2025-04-09_10:58:45_000 CEST
© Movella Technologies B. V. 2005-2025

PacketCounter,SampleTimeFine,Euler_X,Euler_Y,Euler_Z,Acc_X,Acc_Y,Acc_Z,Gyr_X,Gyr_Y,Gyr_Z
0,2179354781,44.13529968261719,-83.11103057861328,2.18160414695740,0.00000000000000,0.00000000000000,0.00000000000000,0.00000000000000,0.00000000000000,0.00000000000000
1,2179371448,44.01834869384766,-83.28598022460938,1.94739329814911,9.66174316406250,0.77718889713287,1.47902572154999,-20.33998680114746,-10.08284950256348,6.65806055068970
2,2179388115,44.15922927856445,-83.45728302001953,1.45869481563568,9.86983871459961,0.66302400827408,1.27808928489685,-20.04177093505859,-11.12109470367432,5.27230167388916
3,2179404782,44.31912231445312,-83.61487579345703,0.95904850959778,10.07804679870605,0.55897289514542,1.38821828365326,-19.56008148193359,-10.50527191162109,4.72434139251709
4,2179421449,44.12775039672852,-83.72102355957031,0.81141895055771,10.25421714782715,0.40136608481407,1.43066143989563,-19.65796852111816,-6.62556743621826,4.28714323043823
5,2179438116,43.24715423583984,-83.74041748046875,1.35317754745483,10.21439743041992,0.43310543894768,1.71273970603943,-19.89788055419922,0.22602598369122,3.91090488433838
6,2179454783,42.33238983154297,-83.74806213378906,1.86636924743652,9.87985515594482,0.46153920888901,1.91081643104553,-23.64477157592773,0.56809717416763,3.30344939231873
7,2179471450,41.35791778564453,-83.73318481445312,2.38817834854126,9.68857574462891,0.23042997717857,1.86552071571350,-26.71755790710449,1.56161665916443,2.47866892814636
8,2179488117,40.25326538085938,-83.65980529785156,3.04940319061279,9.56706047058105,0.12570528686047,1.71060538291931,-26.20937347412109,4.80679178237915,0.93697249889374
9,2179504784,39.26310729980469,-83.54190063476562,3.64784860610962,9.55221652984619,0.15834105014801,1.68741393089294,-23.08712196350098,6.62452030181885,-0.93219530582428
10,2179521451,38.46415328979492,-83.41560363769531,4.12688446044922,9.73178005218506,0.04876258969307,1.55981802940369,-18.73901367187500,6.58074378967285,-1.70554554462433
11,2179538118,37.69826889038086,-83.31129455566406,4.67178678512573,10.05790519714355,-0.06880162656307,1.23611950874329,-12.84425067901611,5.88603830337524,-0.37855589389801
12,2179554785,36.79749298095703,-83.24855041503906,5.43291759490967,10.22388553619385,-0.31045913696289,1.10822772979736,-8.05828285217285,4.85772562026978,2.48191642761230
13,2179571452,35.95753479003906,-83.25090026855469,6.23805522918701,10.03931903839111,-0.54349792003632,0.80890446901321,-1.79027664661407,1.88000428676605,5.15828943252563
14,2179588119,35.26492309570312,-83.30177307128906,6.98251438140869,9.94964504241943,-0.57298636436462,0.64153641462326,3.43629670143127,-0.80183142423630,6.52518939971924
15,2179604786,34.69620132446289,-83.37715148925781,7.67286396026611,10.00726318359375,-0.42419415712357,0.58632010221481,7.64390802383423,-2.31964707374573,7.02708959579468
16,2179621453,34.25094604492188,-83.46169281005859,8.28332614898682,10.00848674774170,-0.35774666070938,0.73042988777161,10.30069160461426,-3.16103792190552,6.82186937332153
17,2179638120,34.22377777099609,-83.57425689697266,8.51526355743408,9.66565036773682,-0.22255535423756,0.73822873830795,12.82097911834717,-6.06185245513916,5.59655237197876
18,2179654787,34.44750595092773,-83.67749023437500,8.47506618499756,9.40572071075439,0.00982457771897,0.69688302278519,11.65960597991943,-6.60955333709717,3.76059365272522
19,2179671454,34.89185714721680,-83.75317382812500,8.17932796478271,9.18480777740479,-0.07659651339054,0.78370231389999,9.64755344390869,-6.18308115005493,1.47880113124847
20,2179688121,35.48660659790039,-83.76791381835938,7.73332548141479,9.39662265777588,-0.22182413935661,1.11343777179718,9.70084476470947,-3.74763870239258,-1.36828219890594
21,2179704788,36.29710769653320,-83.69096374511719,7.08186531066895,9.70975589752197,0.08466626703739,1.49559235572815,10.40787315368652,-0.09804546087980,-5.67331838607788
22,2179721455,37.40307998657227,-83.53692626953125,6.16067123413086,10.14054584503174,0.28144937753677,1.65438413619995,12.07581424713135,2.38812375068665,-9.97737026214600
23,2179738122,38.37173080444336,-83.34992980957031,5.44153881072998,10.55084323883057,0.35955250263214,1.93560230731964,15.88565540313721,4.49554681777954,-10.28611850738525
24,2179754789,39.05328369140625,-83.20367431640625,5.03628683090210,10.58782863616943,0.46508187055588,2.22868728637695,17.37878990173340,3.72829198837280,-7.21599769592285
25,2179771456,39.46531295776367,-83.09845733642578,4.87944030761719,10.25596809387207,0.70240151882172,2.01886057853699,16.01409149169922,2.83391284942627,-4.36851835250854
26,2179788123,39.87102508544922,-83.03437805175781,4.73713445663452,10.03609371185303,0.61285489797592,1.77469086647034,16.50478935241699,0.95827448368073,-2.75202989578247
27,2179804790,40.36542892456055,-82.97247314453125,4.54047822952271,9.86114025115967,0.61238074302673,1.49497032165527,18.58591842651367,0.56415885686874,-2.98921728134155
28,2179821457,40.86948394775391,-82.87933349609375,4.34438514709473,9.78286170959473,0.36577624082565,1.65496206283569,19.20643997192383,1.95453333854675,-4.23719787597656
29,2179838124,41.38297271728516,-82.75278472900391,4.17098760604858,9.79038619995117,0.29188093543053,1.80010485649109,21.12651634216309,3.51696252822876,-5.47059345245361
30,2179854791,41.77128601074219,-82.60387420654297,4.11928606033325,9.72464179992676,0.37032383680344,2.01568365097046,20.86088371276855,5.06563186645508,-5.71229553222656
31,2179871458,42.12173080444336,-82.44768524169922,4.11754179000854,9.72534179687500,0.50453400611877,2.02181267738342,21.57376861572266,5.61423730850220,-5.77035284042358
32,2179888125,42.54783248901367,-82.27188110351562,4.07162094116211,9.58618927001953,0.49529841542244,1.93205010890961,23.47407150268555,6.19569349288940,-6.86361646652222
33,2179904792,42.94931793212891,-82.03747558593750,4.07829332351685,9.78877258300781,0.64048963785172,1.94683372974396,25.13600730895996,9.01284503936768,-8.99657535552979
34,2179921459,43.42619705200195,-81.75938415527344,4.00701999664307,9.82449817657471,0.92614859342575,2.13022255897522,25.02478981018066,10.40036869049072,-11.34838104248047
35,2179938126,44.23203659057617,-81.51168060302734,3.58957862854004,9.61048603057861,1.10008192062378,2.18242311477661,24.21410179138184,6.83367347717285,-12.39280414581299
36,2179954793,45.13085937500000,-81.29146575927734,3.09999799728394,9.66443729400635,1.16538834571838,1.86392545700073,25.48781013488770,4.94012069702148,-11.89291763305664
37,2179971460,45.79058456420898,-81.07787322998047,2.84915041923523,9.78753566741943,1.20434319972992,1.69839429855347,25.36649513244629,5.98486518859863,-10.22520637512207
38,2179988127,46.16884231567383,-80.87318420410156,2.86222672462463,9.74011707305908,1.08446657657623,1.83088195323944,24.12327957153320,7.25628805160522,-8.20949935913086
39,2180004794,46.42539596557617,-80.68563079833984,2.98113894462585,9.55210590362549,1.18948459625244,1.72368836402893,23.09062194824219,7.23581457138062,-6.80734539031982
40,2180021461,46.50566101074219,-80.51200103759766,3.25759649276733,9.42153739929199,1.30565500259399,1.69117510318756,21.82715225219727,7.77044057846069,-5.14233541488647
41,2180038128,46.45521163940430,-80.39331817626953,3.61700916290283,9.33555126190186,1.49481582641602,1.55562007427216,18.89011573791504,6.12588119506836,-2.15053486824036
42,2180054795,46.15702819824219,-80.33013153076172,4.14511251449585,9.30708980560303,1.45385241508484,1.51912033557892,13.99483299255371,5.08500146865845,1.47552943229675
43,2180071462,45.72048950195312,-80.31202697753906,4.71231555938721,9.37746715545654,1.47677969932556,1.45877945423126,8.00521850585938,3.49382257461548,3.76116800308228
44,2180088129,45.13495635986328,-80.28926086425781,5.34962129592896,9.66327381134033,1.45341658592224,1.49480712413788,3.22093200683594,4.18366241455078,4.10550498962402
45,2180104796,44.56971740722656,-80.27257537841797,5.88977956771851,9.64388561248779,1.45618093013763,1.59564244747162,-1.32198691368103,3.19852066040039,3.73997306823730
46,2180121463,44.12683486938477,-80.26554107666016,6.23058748245239,9.59935092926025,1.45946538448334,1.60705173015594,-5.76654624938965,1.35288226604462,2.74402308464050
47,2180138130,43.75292205810547,-80.25829315185547,6.46385431289673,9.68260669708252,1.47338938713074,1.58261108398438,-7.98431301116943,0.59497672319412,1.97023832798004
48,2180154797,43.39712905883789,-80.26697540283203,6.66935825347900,9.66479110717773,1.50543057918549,1.66335880756378,-8.54927825927734,-0.30380514264107,2.44140982627869
49,2180171464,43.10334777832031,-80.32006835937500,6.80780124664307,9.64331054687500,1.50151526927948,1.75867009162903,-8.77685356140137,-2.71641349792480,3.77468538284302
50,2180188131,42.95402908325195,-80.40531921386719,6.80195283889771,9.74521732330322,1.31089127063751,1.81147611141205,-8.64912319183350,-5.13540601730347,4.02046537399292
51,2180204798,42.87322998046875,-80.49328613281250,6.75138187408447,9.85968589782715,1.23536515235901,1.89406085014343,-7.19286823272705,-5.56596088409424,3.79989457130432
52,2180221465,42.87480545043945,-80.58486938476562,6.64728927612305,9.83499240875244,1.18380892276764,1.84585309028625,-5.42514276504517,-6.08160924911499,3.55931472778320
53,2180238132,42.83742904663086,-80.67372131347656,6.59398841857910,9.82466220855713,1.13460958003998,1.75227570533752,-4.75665092468262,-5.62256526947021,3.82179355621338
54,2180254799,42.66476440429688,-80.75405883789062,6.68636322021484,9.70773696899414,1.10833907127380,1.75439143180847,-4.25339937210083,-4.28825807571411,4.50172042846680
55,2180271466,42.37914276123047,-80.83115386962891,6.89300584793091,9.49504375457764,1.15068686008453,1.76503407955170,-4.24999284744263,-3.42105102539062,5.16264390945435
56,2180288133,41.92055130004883,-80.89251708984375,7.25990104675293,9.47656631469727,1.16100931167603,1.71832549571991,-5.13732051849365,-1.74076783657074,5.63884925842285
57,2180304800,41.32497406005859,-80.93843841552734,7.76696920394897,9.48848438262939,1.06682598590851,1.82328391075134,-5.04052925109863,-0.21992351114750,5.99522352218628
58,2180321467,40.62816238403320,-80.97910308837891,8.36851596832275,9.53083705902100,1.07529747486115,1.85353136062622,-5.54009246826172,0.51583349704742,6.46012020111084
59,2180338134,39.85062789916992,-81.01657867431641,9.03646278381348,9.60599040985107,1.10416638851166,1.91109859943390,-6.42553663253784,0.98354727029800,6.81142425537109
60,2180354801,39.10818862915039,-81.06130218505859,9.66250610351562,9.71622943878174,1.11083424091339,2.03502273559570,-6.81254482269287,0.29265719652176,6.79866933822632
61,2180371468,38.36383438110352,-81.11235046386719,10.28328514099121,9.78468608856201,1.03799605369568,2.04195785522461,-7.24077606201172,-0.13587540388107,6.99358177185059
62,2180388135,37.56792068481445,-81.18337249755859,10.92414665222168,9.72832870483398,0.97819447517395,2.02966594696045,-9.12221717834473,-1.06965720653534,7.85956716537476
63,2180404802,36.66849136352539,-81.26760864257812,11.65187549591064,9.73023700714111,0.88769108057022,1.98847591876984,-10.17478561401367,-1.36670100688934,8.93803215026855
64,2180421469,35.73388671875000,-81.36222839355469,12.39840984344482,9.66824340820312,0.88182437419891,1.91365730762482,-11.16306686401367,-1.94467782974243,9.38839340209961
65,2180438136,34.82350921630859,-81.46926879882812,13.09829521179199,9.65861129760742,0.96926891803741,1.83415400981903,-12.46320724487305,-2.97976493835449,9.40303230285645
66,2180454803,33.91396713256836,-81.59300231933594,13.74218177795410,9.67115306854248,1.02368104457855,1.79204702377319,-15.71707344055176,-4.26503229141235,9.45895385742188
67,2180471470,32.95631027221680,-81.71952056884766,14.37228584289551,9.82583045959473,0.92265999317169,1.59672939777374,-19.42862319946289,-4.67260980606079,9.33950138092041
68,2180488137,31.92157173156738,-81.84844970703125,15.01146125793457,9.89208889007568,0.79049420356750,1.62108480930328,-23.49649429321289,-4.94235324859619,9.34829235076904
69,2180504804,30.82330513000488,-81.98090362548828,15.71716499328613,10.06760406494141,0.61961901187897,1.35245501995087,-23.34412002563477,-5.02991008758545,9.79009914398193
70,2180521471,29.68095016479492,-82.08743286132812,16.51035881042480,10.10599422454834,0.41595879197121,1.42240095138550,-20.77954673767090,-3.54132103919983,9.48162746429443
71,2180538138,28.56151199340820,-82.21023559570312,17.31998443603516,10.03446388244629,0.01327723357826,1.61036634445190,-18.39604377746582,-4.55165290832520,9.95049285888672
72,2180554805,27.66193771362305,-82.36470794677734,18.00230216979980,10.04158496856689,0.05380007252097,1.32029712200165,-12.79076766967773,-6.93506956100464,9.77692317962646
73,2180571472,26.88564300537109,-82.52588653564453,18.66867446899414,10.06962394714355,-0.07958288490772,1.18429064750671,-6.31414222717285,-7.52439355850220,9.66202545166016
74,2180588139,26.06633758544922,-82.64918518066406,19.51339912414551,10.01003932952881,-0.25968125462532,1.10969805717468,1.72479808330536,-5.04323863983154,9.70560359954834
75,2180604806,25.18184280395508,-82.72926330566406,20.53122138977051,9.81435966491699,-0.25697594881058,1.04779994487762,8.12003040313721,-2.30428600311279,9.63638019561768
76,2180621473,24.31860923767090,-82.78574371337891,21.59063529968262,9.65452194213867,-0.28257966041565,1.14884495735168,11.88298988342285,-1.05129969120026,9.24498176574707
77,2180638140,23.31884765625000,-82.84338378906250,22.78876495361328,9.75308227539062,-0.24016445875168,1.28649151325226,11.96317672729492,-0.85725140571594,10.17115688323975
78,2180654807,21.99885177612305,-82.86683654785156,24.28289985656738,9.83822917938232,-0.18628567457199,1.27315020561218,10.36234283447266,1.66142010688782,11.38029384613037
79,2180671474,20.62687110900879,-82.85455322265625,25.80658912658691,9.58615398406982,-0.09935477375984,1.55342757701874,9.02099132537842,3.50027275085449,10.85949707031250
80,2180688141,19.52882957458496,-82.83535766601562,27.03266334533691,9.37654495239258,-0.06050573289394,1.75899136066437,7.72750186920166,2.91137766838074,8.75402069091797
81,2180704808,18.88149833679199,-82.75476074218750,27.82374763488770,9.47741794586182,-0.19644224643707,1.64167523384094,8.86429500579834,5.20496940612793,4.57832860946655
82,2180721475,18.79309654235840,-82.67903137207031,28.07784271240234,9.67849826812744,-0.20008069276810,1.59541094303131,10.43085289001465,3.60730671882629,0.91149216890335
83,2180738142,18.64063835144043,-82.68426513671875,28.36676597595215,9.79053878784180,-0.00736598949879,1.36108040809631,8.65461540222168,-0.90496093034744,2.73973321914673
84,2180754809,18.22006988525391,-82.72886657714844,28.89976692199707,9.96420669555664,0.16038164496422,1.23862421512604,7.08339786529541,-2.57877016067505,5.24636554718018
85,2180771476,17.79190254211426,-82.80415344238281,29.44844245910645,9.98234653472900,0.31479427218437,1.20440351963043,7.58416604995728,-4.32752990722656,5.88846397399902
86,2180788143,17.32317733764648,-82.87038421630859,29.99335289001465,9.85384178161621,0.28379082679749,1.26839160919189,4.93364715576172,-3.86611580848694,5.63415431976318
87,2180804810,16.86675834655762,-82.89668273925781,30.47981262207031,9.66257095336914,0.12267934530973,1.40435218811035,2.17820668220520,-1.76282620429993,4.47324609756470
88,2180821477,16.75156784057617,-82.96168518066406,30.70511245727539,9.51525115966797,-0.17695164680481,1.31059765815735,7.10854339599609,-4.56678342819214,3.27621698379517
89,2180838144,16.78950691223145,-83.05287933349609,30.88631439208984,9.62632751464844,0.08842223137617,1.21157896518707,13.68794345855713,-6.15838575363159,3.40018463134766
90,2180854811,17.21035003662109,-83.17369842529297,30.76380157470703,9.73058032989502,-0.00482295360416,1.02623224258423,18.56861305236816,-8.49169731140137,1.83376324176788
91,2180871478,17.54088973999023,-83.30139160156250,30.73509407043457,9.81111717224121,-0.21378195285797,1.14340925216675,18.73490524291992,-8.66969394683838,2.65273070335388
92,2180888145,17.94627189636230,-83.43143463134766,30.62977790832520,9.66760730743408,-0.09534544497728,1.19278407096863,18.63691520690918,-8.96712875366211,2.24446988105774
93,2180904812,18.71826934814453,-83.56240081787109,30.14182662963867,9.70598411560059,-0.06454122066498,1.23699319362640,17.82815551757812,-9.80671310424805,-0.11103762686253
94,2180921479,19.87296295166016,-83.71210479736328,29.29900550842285,9.66330337524414,-0.24573382735252,1.38060152530670,19.62756538391113,-11.62357616424561,-1.75560009479523
95,2180938146,21.16875457763672,-83.89286041259766,28.30193328857422,9.50951862335205,0.22529020905495,1.46828401088715,18.86843109130859,-13.72596168518066,-1.67600846290588
96,2180954813,22.82673454284668,-84.08772277832031,26.90527915954590,9.30605411529541,0.48655763268471,1.45124590396881,16.74651527404785,-15.42116355895996,-3.18175601959229
97,2180971480,25.36124801635742,-84.31183624267578,24.60453605651855,9.36074733734131,0.55814540386200,1.49840629100800,15.32432174682617,-19.26783561706543,-6.66219711303711
98,2180988147,28.50951004028320,-84.51359558105469,21.65298461914062,9.55303382873535,0.62706434726715,1.41668462753296,13.24503803253174,-19.89339828491211,-9.29546546936035
99,2181004814,31.65487098693848,-84.71694946289062,18.67481994628906,9.65506458282471,0.27768871188164,1.29152548313141,11.42096900939941,-20.26043701171875,-7.79423522949219
100,2181021481,34.64376449584961,-84.93553924560547,15.86363887786865,9.53568649291992,-0.02634006924927,1.34894835948944,11.97374439239502,-20.58552551269531,-4.96489763259888
101,2181038148,37.83500289916992,-85.14514160156250,12.90243816375732,9.69790744781494,-0.07063028216362,1.03956222534180,15.05785751342773,-20.51217842102051,-4.35681390762329
102,2181054815,41.16614532470703,-85.30660247802734,9.84867858886719,9.84413051605225,-0.13997875154018,1.11734890937805,17.90881919860840,-18.45563316345215,-5.00436162948608
103,2181071482,44.71397781372070,-85.43151855468750,6.63438081741333,9.99018001556396,-0.01984096132219,1.04579317569733,21.24538993835449,-17.37391090393066,-5.69379568099976
104,2181088149,48.44517135620117,-85.52114105224609,3.25470542907715,10.01580524444580,0.22733163833618,1.07035303115845,22.31316566467285,-16.58217620849609,-6.49580144882202
105,2181104816,52.44506835937500,-85.58673858642578,-0.39778831601143,9.86806869506836,0.36810246109962,1.09834146499634,22.11100769042969,-16.88324356079102,-7.17011070251465
106,2181121483,56.61493301391602,-85.61930084228516,-4.23972702026367,9.77334880828857,0.40774649381638,0.77664566040039,20.86271667480469,-16.79788780212402,-8.06768798828125
107,2181138150,59.99866867065430,-85.58638000488281,-7.29656887054443,10.00972080230713,0.60756373405457,0.51261198520660,20.80642890930176,-12.18994331359863,-8.47675895690918
108,2181154817,62.62467193603516,-85.52131652832031,-9.63665676116943,10.22006130218506,0.89145487546921,0.74848598241806,18.40431976318359,-8.92715358734131,-8.05600070953369
109,2181171484,65.63130950927734,-85.43185424804688,-12.40279483795166,10.35487937927246,0.68538600206375,0.90539425611496,15.56837654113770,-10.70264148712158,-9.94167327880859
110,2181188151,68.09017181396484,-85.34924316406250,-14.61703872680664,9.96030521392822,0.84833109378815,0.70106369256973,15.64188480377197,-9.14369583129883,-8.17247295379639
111,2181204818,69.86058044433594,-85.28981781005859,-16.14991378784180,9.98633766174316,0.72388923168182,0.69434028863907,14.93145275115967,-7.01503896713257,-5.45176553726196
112,2181221485,70.84546661376953,-85.24304962158203,-16.94572830200195,10.09350204467773,0.65322619676590,0.85678821802139,12.35357761383057,-4.03151178359985,-3.36029291152954
113,2181238152,71.20543670654297,-85.20526885986328,-17.13554000854492,9.94902229309082,0.69465494155884,0.80937576293945,10.56403160095215,-1.46532869338989,-1.87835919857025
114,2181254819,70.54937744140625,-85.17083740234375,-16.33642005920410,9.87650871276855,0.64170962572098,0.95811778306961,8.80169105529785,3.16573047637939,-0.04511037468910
115,2181271486,69.38346099853516,-85.15730285644531,-15.07501506805420,9.69109821319580,0.69363403320312,1.09590017795563,5.98895454406738,4.96914625167847,2.01017475128174
116,2181288153,68.12396240234375,-85.17014312744141,-13.75896167755127,9.50276374816895,0.77801942825317,1.12050235271454,3.41438460350037,4.60236597061157,3.72034144401550
117,2181304820,67.16452789306641,-85.20384216308594,-12.77770328521729,9.37038993835449,0.70695167779922,1.04414629936218,1.66832816600800,2.49943470954895,4.34721183776855
118,2181321487,66.59642791748047,-85.24317169189453,-12.18070316314697,9.52494144439697,0.53280276060104,1.05166733264923,2.09942817687988,0.51233726739883,3.93667817115784
119,2181338154,66.59513092041016,-85.26724243164062,-12.17262744903564,9.65398597717285,0.52926522493362,1.18389618396759,1.07791042327881,-1.82176113128662,1.94338929653168
120,2181354821,67.32991790771484,-85.27462005615234,-12.93727874755859,9.66422080993652,0.60352998971939,1.21776366233826,-0.80313098430634,-4.92129468917847,-0.46277663111687
121,2181371488,68.53894805908203,-85.26831817626953,-14.21545314788818,9.90759372711182,0.56013798713684,1.01070034503937,-2.82277631759644,-6.96479845046997,-2.10107398033142
122,2181388155,69.40145874023438,-85.23284912109375,-15.16465568542480,10.13185596466064,0.49712768197060,0.96444225311279,-4.51244592666626,-4.92944574356079,-3.08635616302490
123,2181404822,69.91259765625000,-85.19226074218750,-15.79646396636963,10.08689212799072,0.68130308389664,1.01190340518951,-6.79480648040771,-3.42354774475098,-2.80998253822327
124,2181421489,70.45573425292969,-85.16029357910156,-16.50321006774902,9.95780563354492,0.78021287918091,1.03530573844910,-9.22691440582275,-4.00331783294678,-2.41780138015747
125,2181438156,71.14610290527344,-85.13916778564453,-17.39547157287598,9.90895080566406,0.74787813425064,0.92202174663544,-11.22669029235840,-5.13434982299805,-2.08671879768372
126,2181454823,71.72920227050781,-85.11417388916016,-18.18950462341309,9.95849990844727,0.69300794601440,0.81084215641022,-11.98873424530029,-4.64811849594116,-2.12956881523132
127,2181471490,72.03820037841797,-85.07984161376953,-18.69769477844238,10.04649162292480,0.66242134571075,0.78415334224701,-10.69449043273926,-3.07892322540283,-2.14713263511658
128,2181488157,72.10001373291016,-85.04650878906250,-18.94882011413574,9.98547840118408,0.66498786211014,0.79127895832062,-10.59942245483398,-1.89462316036224,-1.71119785308838
129,2181504824,72.00653076171875,-85.00605773925781,-19.03396034240723,9.91540431976318,0.69067740440369,0.72858393192291,-10.10235595703125,-0.95924717187881,-1.85735678672791
130,2181521491,71.82366180419922,-84.96036529541016,-19.02934837341309,9.84618568420410,0.65567052364349,0.75657814741135,-10.12078571319580,-0.41208288073540,-2.01484918594360
131,2181538158,71.61960601806641,-84.91967010498047,-18.99604988098145,9.79865837097168,0.63628482818604,0.73237484693527,-9.54076480865479,-0.34429240226746,-1.66324436664581
132,2181554825,71.24040985107422,-84.88607025146484,-18.77779006958008,9.71233367919922,0.67853689193726,0.81358814239502,-9.09972667694092,0.46104145050049,-0.95333689451218
133,2181571492,70.99444580078125,-84.85813903808594,-18.70968055725098,9.68761444091797,0.63831812143326,0.84877103567123,-10.07830619812012,-0.38996627926826,-0.89603501558304
134,2181588159,70.86840057373047,-84.83593750000000,-18.77335166931152,9.77790546417236,0.68295919895172,0.83190160989761,-10.71358966827393,-1.16733753681183,-0.77894645929337
135,2181604826,70.88352966308594,-84.82994842529297,-18.99663925170898,9.68875408172607,0.74498319625854,0.91746670007706,-11.88055801391602,-2.30666804313660,-0.14612050354481
136,2181621493,71.20001983642578,-84.84828186035156,-19.53639984130859,9.65058994293213,0.66269814968109,0.80248516798019,-12.76039123535156,-4.39861965179443,0.68132394552231
137,2181638160,71.57006835937500,-84.86141967773438,-20.10823440551758,9.84766006469727,0.57410788536072,0.63102495670319,-11.29853534698486,-4.43604469299316,0.34854418039322
138,2181654827,71.63936614990234,-84.85182189941406,-20.34909057617188,9.97110939025879,0.48969602584839,0.68475657701492,-9.53459930419922,-2.31323719024658,-0.37540546059608
139,2181671494,71.46421051025391,-84.82949066162109,-20.31975746154785,9.92183876037598,0.50711137056351,0.78623390197754,-8.09930801391602,-0.69938689470291,-0.63313966989517
140,2181688161,71.34602355957031,-84.81529998779297,-20.30663299560547,9.75889873504639,0.56636446714401,0.78904819488525,-5.73005390167236,-0.93821239471436,-0.20746926963329
141,2181704828,71.37574005126953,-84.81299591064453,-20.42054557800293,9.94466114044189,0.58894330263138,0.60750472545624,-4.35505580902100,-1.80889725685120,0.25025534629822
142,2181721495,71.22369384765625,-84.81152343750000,-20.32908248901367,10.08100032806396,0.68565636873245,0.60242253541946,-3.10442566871643,-0.77662819623947,0.64390963315964
143,2181738162,70.81731414794922,-84.81587219238281,-19.95715141296387,9.95654964447021,0.74172532558441,0.69687682390213,-1.37394213676453,0.56225645542145,1.49253535270691
144,2181754829,70.51105499267578,-84.82154083251953,-19.67144966125488,9.69398880004883,0.67015594244003,0.80319613218307,-0.77255588769913,0.07042212039232,1.40663671493530
145,2181771496,70.49256896972656,-84.82895660400391,-19.65595817565918,9.69158744812012,0.55956226587296,0.72765058279037,0.45137903094292,-1.33624017238617,1.02375888824463
146,2181788163,70.49062347412109,-84.83517456054688,-19.62927436828613,9.79573154449463,0.54194444417953,0.70270466804504,2.10043334960938,-1.25790381431580,0.98593527078629
147,2181804830,70.33481597900391,-84.83995819091797,-19.42749977111816,9.78848743438721,0.55750757455826,0.70093345642090,3.34572315216064,-0.33535352349281,1.21314561367035
148,2181821497,69.92915344238281,-84.82869720458984,-18.96125411987305,9.72083663940430,0.59976446628571,0.79126137495041,4.20255756378174,1.33396065235138,0.80368816852570
149,2181838164,69.53939819335938,-84.80891418457031,-18.50756645202637,9.75577735900879,0.63056260347366,0.80455303192139,4.28464651107788,1.44771969318390,0.29995036125183
150,2181854831,69.01879882812500,-84.78395080566406,-17.92367935180664,9.79658412933350,0.70149856805801,0.82545095682144,4.26761293411255,2.23213386535645,0.30462461709976
151,2181871498,68.55559539794922,-84.75196838378906,-17.40021705627441,9.73897933959961,0.78516644239426,0.84265446662903,4.21106767654419,2.10740685462952,-0.17079830169678
152,2181888165,68.31944274902344,-84.71198272705078,-17.10937500000000,9.68999481201172,0.80693548917770,0.85122966766357,3.84596419334412,1.10621237754822,-1.05595386028290
153,2181904832,68.32096099853516,-84.68072509765625,-17.06354713439941,9.63094615936279,0.74493634700775,0.84722751379013,3.44087433815002,-0.33166527748108,-1.07589352130890
154,2181921499,68.58208465576172,-84.66351318359375,-17.27369880676270,9.70750713348389,0.76616710424423,0.78474313020706,3.77202105522156,-1.96547377109528,-0.81213396787643
155,2181938166,68.70066833496094,-84.64848327636719,-17.34409713745117,9.88479804992676,0.72692251205444,0.75558942556381,3.38729858398438,-1.31227946281433,-0.40470620989799
156,2181954833,68.67039489746094,-84.63904571533203,-17.25905609130859,9.88330173492432,0.69900518655777,0.80839079618454,3.89758133888245,-0.61229735612869,0.23659095168114
157,2181971500,68.69343566894531,-84.63929748535156,-17.22497558593750,9.80864906311035,0.74599021673203,0.89398401975632,3.94683337211609,-1.09671008586884,0.66647446155548
158,2181988167,68.93429565429688,-84.64284515380859,-17.40339469909668,9.79888534545898,0.71490931510925,0.91396802663803,4.36920022964478,-2.26925969123840,0.41301119327545
159,2182004834,69.20704650878906,-84.64025115966797,-17.59176635742188,9.81743717193604,0.71356844902039,0.91317033767700,5.73646354675293,-2.19026350975037,0.06763034313917
160,2182021501,69.46945953369141,-84.63655853271484,-17.76219749450684,9.79789829254150,0.70831918716431,0.85114103555679,6.17860412597656,-2.07299613952637,0.03802205994725
161,2182038168,69.70148468017578,-84.63137054443359,-17.91119766235352,9.75117874145508,0.75010246038437,0.88155812025070,5.64154338836670,-1.93313801288605,0.00452064210549
162,2182054835,69.93553924560547,-84.62596893310547,-18.06037330627441,9.69332313537598,0.77358096837997,0.87794470787048,5.74372434616089,-1.93244600296021,-0.00542348856106
163,2182071502,70.19401550292969,-84.61671447753906,-18.24759483337402,9.79153633117676,0.73997831344604,0.80151784420013,4.89837837219238,-2.06445431709290,-0.28507578372955
164,2182088169,70.36064910888672,-84.60370635986328,-18.34574508666992,9.86957073211670,0.79310464859009,0.79112398624420,4.76725339889526,-1.51118123531342,-0.33928504586220
165,2182104836,70.53746795654297,-84.59687805175781,-18.46958351135254,9.79203891754150,0.81311315298080,0.84542822837830,3.77111148834229,-1.78500652313232,-0.02910242974758
166,2182121503,70.90066528320312,-84.60552215576172,-18.79583358764648,9.75944519042969,0.80394935607910,0.82229298353195,2.95474505424500,-3.16326403617859,0.47976428270340
167,2182138170,71.34579467773438,-84.62163543701172,-19.22157287597656,9.82797431945801,0.81611233949661,0.79448640346527,1.90705752372742,-3.83450913429260,0.73523813486099
168,2182154837,71.79125213623047,-84.63684844970703,-19.66138839721680,9.81524658203125,0.80327874422073,0.83257329463959,1.08957695960999,-3.88299369812012,0.67626488208771
169,2182171504,72.36754608154297,-84.65294647216797,-20.24210739135742,9.70064544677734,0.77070921659470,0.90340179204941,0.56324893236160,-4.63744258880615,0.50919330120087
170,2182188171,73.09642791748047,-84.67630767822266,-20.97591781616211,9.70937156677246,0.77910447120667,0.86728924512863,0.46725243330002,-5.58103942871094,0.72048521041870
171,2182204838,73.80591583251953,-84.70180511474609,-21.69416999816895,9.74057769775391,0.72991764545441,0.82674515247345,0.17306503653526,-5.52186203002930,0.93316030502319
172,2182221505,74.48625946044922,-84.72452545166016,-22.38894844055176,9.73357105255127,0.71843492984772,0.79313051700592,-0.16235892474651,-5.32351064682007,0.84339421987534
173,2182238172,75.23730468750000,-84.75006866455078,-23.15553665161133,9.79843139648438,0.74303036928177,0.76894968748093,-0.03040227666497,-5.71521806716919,0.98229187726974
174,2182254839,76.00621032714844,-84.78038787841797,-23.94648551940918,9.79476928710938,0.76777815818787,0.79919368028641,-0.56137269735336,-5.89803457260132,1.27939271926880
175,2182271506,76.82832336425781,-84.81412506103516,-24.78927612304688,9.82041358947754,0.71607971191406,0.70570993423462,-0.33569931983948,-6.17474269866943,1.48982691764832
176,2182288173,77.57222747802734,-84.85144042968750,-25.55428123474121,9.87863731384277,0.80248290300369,0.65484070777893,-0.56233328580856,-5.78336668014526,1.86270940303802
177,2182304840,78.30097961425781,-84.89462280273438,-26.32706260681152,9.86561775207520,0.77216851711273,0.62657755613327,-1.74769568443298,-5.83264017105103,2.26748633384705
178,2182321507,78.97233581542969,-84.93213653564453,-27.03866195678711,9.87060928344727,0.68188881874084,0.61823874711990,-1.72338902950287,-5.40981245040894,2.06353211402893
179,2182338174,79.40991210937500,-84.95437622070312,-27.51562690734863,9.92229270935059,0.64803129434586,0.61324697732925,-1.51094424724579,-3.96461534500122,1.43202531337738
180,2182354841,79.65438079833984,-84.97301483154297,-27.78932571411133,9.90526294708252,0.66889613866806,0.65950143337250,-1.04917299747467,-2.86712384223938,1.44255197048187
181,2182371508,79.89371490478516,-84.99437713623047,-28.05527114868164,9.84494495391846,0.69784212112427,0.65732592344284,-0.90803414583206,-2.84569883346558,1.60762584209442
182,2182388175,80.11700439453125,-85.01429748535156,-28.30578994750977,9.82006740570068,0.70836102962494,0.65466433763504,-0.90667659044266,-2.73761296272278,1.53501379489899
183,2182404842,80.19688415527344,-85.02957153320312,-28.40858650207520,9.81076240539551,0.69740539789200,0.59870290756226,-0.78967785835266,-1.93567943572998,1.40874314308167
184,2182421509,80.20454406738281,-85.04453277587891,-28.43836784362793,9.81349658966064,0.69307243824005,0.60919618606567,-0.60211622714996,-1.54275536537170,1.45407795906067
185,2182438176,80.21472930908203,-85.06295013427734,-28.46460342407227,9.74452781677246,0.73691463470459,0.62692910432816,-0.30447736382484,-1.56585168838501,1.66410839557648
186,2182454843,80.41541290283203,-85.08310699462891,-28.69105720520020,9.77765274047852,0.75338023900986,0.58808314800262,-0.90427553653717,-2.60050225257874,1.60288107395172
187,2182471510,80.57144927978516,-85.10143280029297,-28.88720893859863,9.84159660339355,0.76549214124680,0.55916243791580,-1.72117328643799,-2.41452217102051,1.50730097293854
188,2182488177,80.57382202148438,-85.11364746093750,-28.93728256225586,9.76982593536377,0.73419904708862,0.54628127813339,-2.26929163932800,-1.61944627761841,1.26465260982513
189,2182504844,80.63526916503906,-85.12155151367188,-29.05063629150391,9.76014614105225,0.73002982139587,0.56863850355148,-2.39424967765808,-1.88372457027435,0.97567087411880
190,2182521511,80.85681152343750,-85.12577056884766,-29.32145690917969,9.82533550262451,0.54711169004440,0.58411818742752,-2.22290039062500,-2.63931179046631,0.62261265516281
191,2182538178,81.04286956787109,-85.11910247802734,-29.53869438171387,9.82068252563477,0.73115915060043,0.53425681591034,-1.25262749195099,-2.27471494674683,0.02984519489110
192,2182554845,81.13272857666016,-85.11428833007812,-29.67243957519531,9.81710910797119,0.75712859630585,0.51432979106903,-1.87606620788574,-1.86017322540283,0.20412679016590
193,2182571512,81.30178070068359,-85.12580871582031,-29.89541435241699,9.76919174194336,0.75503456592560,0.57382977008820,-2.55198526382446,-2.46476125717163,1.09566640853882
194,2182588179,81.52734375000000,-85.15058898925781,-30.18004226684570,9.77626895904541,0.63766139745712,0.54869115352631,-2.93876266479492,-2.89643812179565,1.84688699245453
195,2182604846,81.74297332763672,-85.17452239990234,-30.45167732238770,9.77789974212646,0.67285722494125,0.54614222049713,-2.70276761054993,-2.80625557899475,1.82077503204346
196,2182621513,81.78147888183594,-85.18907928466797,-30.55026817321777,9.78782749176025,0.65142601728439,0.54443615674973,-2.97633671760559,-1.85476922988892,1.39813959598541
197,2182638180,81.69928741455078,-85.19396972656250,-30.53265762329102,9.90599250793457,0.63036370277405,0.50152623653412,-3.13257408142090,-1.17876040935516,0.88550156354904
198,2182654847,81.45326995849609,-85.19694519042969,-30.34371948242188,9.90780448913574,0.65914547443390,0.49722892045975,-2.88943910598755,-0.32837402820587,0.92574548721313
199,2182671514,81.26189422607422,-85.20739746093750,-30.21049690246582,9.81505966186523,0.63269406557083,0.52966737747192,-2.93161058425903,-0.66949677467346,1.30040800571442
200,2182688181,81.32756042480469,-85.22143554687500,-30.33568191528320,9.78384113311768,0.65027815103531,0.53369504213333,-3.03011083602905,-1.98877525329590,1.33876943588257
201,2182704848,81.54253387451172,-85.23773956298828,-30.60181999206543,9.81665039062500,0.61151224374771,0.55473649501801,-2.30561661720276,-2.68118858337402,1.36439502239227
202,2182721515,81.74778747558594,-85.25819396972656,-30.84412765502930,9.80058288574219,0.63025975227356,0.53388309478760,-1.53304183483124,-2.59751844406128,1.63558876514435
203,2182738182,81.86876678466797,-85.28253936767578,-31.00377273559570,9.75301742553711,0.67906498908997,0.56905174255371,-1.82130002975464,-2.23179435729980,1.92264282703400
204,2182754849,81.94147491455078,-85.30272674560547,-31.12404823303223,9.69685935974121,0.68018817901611,0.55799776315689,-2.12907481193542,-1.97810065746307,1.71141493320465
205,2182771516,82.04375457763672,-85.32006835937500,-31.26943206787109,9.74649620056152,0.65439671278000,0.49853923916817,-2.03731727600098,-2.08680105209351,1.53211319446564
206,2182788183,82.00533294677734,-85.33554077148438,-31.26486968994141,9.84132480621338,0.63536429405212,0.45606800913811,-1.48679172992706,-1.34064555168152,1.51339697837830
207,2182804850,81.73844909667969,-85.34574890136719,-31.02955245971680,9.82422637939453,0.66031366586685,0.48284402489662,-1.25221765041351,-0.17385898530483,1.35818374156952
208,2182821517,81.36272430419922,-85.33965301513672,-30.69174575805664,9.80768108367920,0.65147924423218,0.49201911687851,-1.79004585742950,0.44765236973763,0.47331625223160
209,2182838184,80.97832489013672,-85.32722473144531,-30.34661293029785,9.87714767456055,0.63070875406265,0.44618168473244,-1.54267835617065,0.57235419750214,0.12158347666264
210,2182854851,80.55556488037109,-85.31956481933594,-29.95584678649902,9.86342716217041,0.65156936645508,0.48686411976814,-1.39485490322113,0.73370778560638,0.43908494710922
211,2182871518,80.07537841796875,-85.31550598144531,-29.49962806701660,9.84893321990967,0.66368991136551,0.46950358152390,-1.46922111511230,0.97232842445374,0.71670091152191
212,2182888185,79.58157348632812,-85.30911254882812,-29.05431365966797,9.83389854431152,0.67831945419312,0.48050007224083,-2.42581081390381,0.98884236812592,0.59765952825546
213,2182904852,79.26410675048828,-85.30472564697266,-28.79893302917480,9.86713504791260,0.65992462635040,0.48579940199852,-3.04603528976440,0.06791207939386,0.56333851814270
214,2182921519,78.76963043212891,-85.30393218994141,-28.37062835693359,9.85718536376953,0.64606302976608,0.50494003295898,-3.65283250808716,0.83376395702362,0.93430662155151
215,2182938186,78.13177490234375,-85.30789947509766,-27.79817771911621,9.77942943572998,0.69218087196350,0.56124842166901,-3.59805917739868,1.46653831005096,1.40064966678619
216,2182954853,77.51951599121094,-85.31500244140625,-27.25586509704590,9.66895771026611,0.66932535171509,0.60580801963806,-3.73263430595398,1.28400313854218,1.57256841659546
217,2182971520,77.04969787597656,-85.32320404052734,-26.85053062438965,9.67952156066895,0.58400744199753,0.57827323675156,-3.40777587890625,0.60271805524826,1.50145483016968
218,2182988187,76.66797637939453,-85.33024597167969,-26.52399253845215,9.71255302429199,0.52715909481049,0.53066456317902,-2.57390975952148,0.25232991576195,1.37942957878113
219,2183004854,76.20385742187500,-85.33586883544922,-26.09037399291992,9.72405433654785,0.55970007181168,0.49705684185028,-1.42392528057098,0.75013834238052,1.41499280929565
220,2183021521,75.69213104248047,-85.32890319824219,-25.61001586914062,9.70885181427002,0.60429614782333,0.58812999725342,-1.50593066215515,1.14778196811676,0.74605947732925
221,2183038188,75.49943542480469,-85.31797027587891,-25.44218635559082,9.68913650512695,0.62581479549408,0.67316025495529,-0.70771723985672,-0.23868472874165,0.16035470366478
222,2183054855,75.77087402343750,-85.32086181640625,-25.73657035827637,9.74388980865479,0.66113322973251,0.60072267055511,-0.58532702922821,-2.64096403121948,0.40622383356094
223,2183071522,76.02529144287109,-85.33200836181641,-26.01938819885254,9.72573947906494,0.62967169284821,0.61652153730392,-1.08577358722687,-2.71976161003113,0.91116541624069
224,2183088189,76.37514495849609,-85.35050964355469,-26.37739562988281,9.66989612579346,0.58319759368896,0.65687167644501,-0.93531179428101,-3.25764083862305,1.22175776958466
225,2183104856,76.99711608886719,-85.38111877441406,-27.01339149475098,9.75429153442383,0.58620268106461,0.58715564012527,-0.19983029365540,-4.63708972930908,1.66922461986542
226,2183121523,77.70967864990234,-85.42161560058594,-27.72451019287109,9.95952796936035,0.61700153350830,0.52617383003235,0.83717036247253,-5.07563114166260,2.20750093460083
227,2183138190,77.99050903320312,-85.46508026123047,-28.01149177551270,9.97370910644531,0.64402866363525,0.51336467266083,0.28674057126045,-3.09813785552979,2.87533903121948
228,2183154857,77.81279754638672,-85.50625610351562,-27.86026763916016,9.94379711151123,0.63679051399231,0.51395112276077,-1.30809175968170,-1.05278444290161,3.15389037132263
229,2183171524,77.42359161376953,-85.54824829101562,-27.51740074157715,9.86349678039551,0.56758999824524,0.50180369615555,-2.05000233650208,-0.17105443775654,3.40152740478516
230,2183188191,77.12383270263672,-85.58820343017578,-27.29019737243652,9.81430244445801,0.49670901894569,0.48466417193413,-3.25411939620972,-0.66992574930191,3.17541790008545
231,2183204858,76.78065490722656,-85.61662292480469,-27.01284217834473,9.78073787689209,0.48790267109871,0.43589070439339,-3.36563014984131,-0.35065704584122,2.55165195465088
232,2183221525,76.19368743896484,-85.63614654541016,-26.49174880981445,9.77503967285156,0.50897556543350,0.49616041779518,-3.40087342262268,0.83718949556351,2.28502392768860
233,2183238192,75.48454284667969,-85.65503692626953,-25.84033012390137,9.80768489837646,0.49009776115417,0.45764216780663,-3.24976491928101,1.36772453784943,2.41956138610840
234,2183254859,74.63668823242188,-85.67021179199219,-25.04464912414551,9.83587455749512,0.48506462574005,0.46592673659325,-2.53344202041626,2.05615568161011,2.38878774642944
235,2183271526,73.40731048583984,-85.67763519287109,-23.84140586853027,9.82667255401611,0.49999997019768,0.47064784169197,-1.32094955444336,3.88720798492432,2.52298593521118
236,2183288193,72.24541473388672,-85.67993927001953,-22.71522140502930,9.70757389068604,0.50783628225327,0.56940954923630,-1.83011722564697,3.60555744171143,2.22271513938904
237,2183304860,71.26428222656250,-85.67288208007812,-21.77650833129883,9.74741554260254,0.48649096488953,0.55703294277191,-2.05718660354614,2.96279430389404,1.50572586059570
238,2183321527,70.29372406005859,-85.65914154052734,-20.83563995361328,9.79159736633301,0.46183153986931,0.53025007247925,-1.20952117443085,3.09880995750427,1.22704672813416
239,2183338194,69.34735870361328,-85.63775634765625,-19.90735244750977,9.80881118774414,0.53447669744492,0.55189824104309,-0.61738121509552,3.20821452140808,0.83403271436691
240,2183354861,68.54871368408203,-85.61818695068359,-19.12413406372070,9.73208332061768,0.52994644641876,0.65063184499741,-0.69181185960770,2.54483318328857,0.77260071039200
241,2183371528,67.91156768798828,-85.60832214355469,-18.50156974792480,9.74314212799072,0.51224398612976,0.65300011634827,-0.30523931980133,1.67247700691223,1.11061131954193
242,2183388195,67.46906280517578,-85.61206817626953,-18.04853248596191,9.77579307556152,0.48911014199257,0.60234791040421,0.88999003171921,0.62413018941879,1.57018649578094
243,2183404862,67.02927398681641,-85.61760711669922,-17.59105682373047,9.78930377960205,0.54910981655121,0.62754392623901,1.54953002929688,0.60632944107056,1.70252740383148
244,2183421529,66.67677307128906,-85.61853790283203,-17.22623634338379,9.76382541656494,0.59276968240738,0.60315734148026,0.93136739730835,0.29477652907372,1.28302955627441
245,2183438196,66.46220397949219,-85.62198638916016,-17.01109313964844,9.80538654327393,0.57191985845566,0.65129899978638,0.98726063966751,-0.34974142909050,1.19728493690491
246,2183454863,66.18444061279297,-85.63013458251953,-16.72448921203613,9.80223655700684,0.57646155357361,0.65583878755569,1.09651172161102,-0.19201840460300,1.57229328155518
247,2183471530,65.87943267822266,-85.64477539062500,-16.41255187988281,9.74011325836182,0.52392184734344,0.66092985868454,0.81524586677551,-0.25803515315056,1.95738029479980
248,2183488197,65.64601898193359,-85.65706634521484,-16.17582893371582,9.70120525360107,0.50440949201584,0.63312560319901,0.67009228467941,-0.51912456750870,1.70111858844757
249,2183504864,65.50975799560547,-85.66451263427734,-16.04077911376953,9.78132915496826,0.52289801836014,0.63030403852463,0.38914653658867,-0.82811617851257,1.24954104423523
250,2183521531,65.35025787353516,-85.66568756103516,-15.89342021942139,9.81690692901611,0.54156589508057,0.60885161161423,0.05006001889706,-0.60094434022903,0.94711917638779
251,2183538198,65.09518432617188,-85.66948699951172,-15.64087390899658,9.83072280883789,0.49630755186081,0.59121781587601,0.18826614320278,-0.26404771208763,1.27373230457306
252,2183554865,64.81381988525391,-85.67283630371094,-15.35834789276123,9.85134506225586,0.47879144549370,0.63048768043518,0.67785930633545,-0.10925096273422,1.31039059162140
253,2183571532,64.53802490234375,-85.67319488525391,-15.06474399566650,9.84918022155762,0.48119443655014,0.67270934581757,0.85535526275635,-0.04949654638767,1.14872312545776
254,2183588199,64.34986114501953,-85.67459869384766,-14.86660194396973,9.86267852783203,0.50599813461304,0.56390267610550,0.86933338642120,-0.43712556362152,1.04700875282288
255,2183604866,64.04689025878906,-85.67115783691406,-14.56636524200439,9.85412216186523,0.50483727455139,0.57836079597473,0.51658254861832,0.13674619793892,0.99744808673859
256,2183621533,63.57412338256836,-85.66347503662109,-14.09844970703125,9.82055568695068,0.50040644407272,0.64408147335052,0.44103151559830,0.93285924196243,1.11987042427063
257,2183638200,63.17492675781250,-85.66302490234375,-13.70566082000732,9.69142913818359,0.51947659254074,0.66567671298981,0.11613437533379,0.41559803485870,1.36841607093811
258,2183654867,62.91537475585938,-85.65516662597656,-13.45794868469238,9.66573333740234,0.55403316020966,0.62797844409943,-0.16889014840126,0.02378779463470,0.69558328390121
259,2183671534,62.73287200927734,-85.65143585205078,-13.29374694824219,9.82669830322266,0.59134560823441,0.60867339372635,-0.24756594002247,-0.39800211787224,0.74527829885483
260,2183688201,62.41630554199219,-85.65058135986328,-12.99893474578857,9.85371208190918,0.55544286966324,0.65184032917023,-0.52411264181137,0.05435015261173,1.15473568439484
261,2183704868,62.09655761718750,-85.65463256835938,-12.69694042205811,9.77464485168457,0.53950995206833,0.65032136440277,-0.55966955423355,-0.09105955064297,1.46158874034882
262,2183721535,61.95248794555664,-85.65950012207031,-12.57452583312988,9.73425292968750,0.51927006244659,0.69462990760803,-0.94282907247543,-0.83827805519104,1.09633231163025
263,2183738202,61.90761947631836,-85.66342926025391,-12.55093765258789,9.78371906280518,0.47382628917694,0.67701005935669,-0.97957050800323,-1.21587324142456,0.84147328138351
264,2183754869,61.84482192993164,-85.66532897949219,-12.50655651092529,9.82942008972168,0.42152440547943,0.67851150035858,-0.44644218683243,-1.05307900905609,0.79689437150955
265,2183771536,61.74269104003906,-85.67111968994141,-12.40474033355713,9.79830932617188,0.40735027194023,0.70522230863571,0.48940750956535,-0.93996679782867,1.11296141147614
266,2183788203,61.73159027099609,-85.67868041992188,-12.38913917541504,9.75481414794922,0.45519366860390,0.73878240585327,1.07692432403564,-1.31319510936737,1.03065490722656
267,2183804870,61.81581497192383,-85.68462371826172,-12.45481395721436,9.79773044586182,0.51344233751297,0.70927482843399,1.21360027790070,-1.64501416683197,0.75771975517273
268,2183821537,61.89999008178711,-85.68970489501953,-12.52975845336914,9.83775520324707,0.52062457799911,0.70015412569046,1.07274937629700,-1.62464547157288,0.70232576131821
269,2183838204,62.03343200683594,-85.70012664794922,-12.65805912017822,9.79000282287598,0.53431129455566,0.71973645687103,0.88212704658508,-1.98374843597412,0.87887424230576
270,2183854871,62.34819412231445,-85.71957397460938,-12.98466396331787,9.74340820312500,0.55493855476379,0.76096546649933,0.19837680459023,-2.99404835700989,0.95067310333252
271,2183871538,62.83127975463867,-85.74742889404297,-13.47892951965332,9.77492332458496,0.53066629171371,0.68064743280411,-0.06818101555109,-3.90098094940186,1.05498087406158
272,2183888205,63.26466751098633,-85.77539062500000,-13.92878532409668,9.80172634124756,0.51583468914032,0.66213756799698,-0.26521953940392,-3.70628619194031,1.19029915332794
273,2183904872,63.69234085083008,-85.79891204833984,-14.37315464019775,9.77418899536133,0.48235061764717,0.67034548521042,-0.44034636020660,-3.56518554687500,0.99517512321472
274,2183921539,64.10842132568359,-85.81905364990234,-14.80981922149658,9.76784515380859,0.47893846035004,0.67148190736771,-0.36603751778603,-3.40776348114014,0.84961169958115
275,2183938206,64.43993377685547,-85.83825683593750,-15.15496349334717,9.85110473632812,0.49542042613029,0.64857178926468,-0.23344692587852,-3.02685737609863,0.97106057405472
276,2183954873,64.68492126464844,-85.86123657226562,-15.41869926452637,9.88878536224365,0.45585641264915,0.64973920583725,-0.52736550569534,-2.79991650581360,1.35093557834625
277,2183971540,64.69145965576172,-85.88934326171875,-15.43358802795410,9.91910552978516,0.45417582988739,0.64250123500824,0.08145479112864,-1.95545291900635,2.10408973693848
278,2183988207,64.60885620117188,-85.91481018066406,-15.36376667022705,9.80586242675781,0.52191597223282,0.69056200981140,-0.11594867706299,-1.55010616779327,2.10603594779968
279,2184004874,64.76628112792969,-85.94445800781250,-15.54708385467529,9.80125045776367,0.51383239030838,0.68246406316757,-1.22111105918884,-2.65622901916504,1.86806869506836
280,2184021541,64.95602416992188,-85.97260284423828,-15.77049922943115,9.87945270538330,0.47488933801651,0.63064873218536,-1.58803880214691,-2.75243020057678,1.71895158290863
281,2184038208,64.98883056640625,-85.99649810791016,-15.82894515991211,9.86847305297852,0.47408089041710,0.63799148797989,-1.17228698730469,-2.01441979408264,1.78680610656738
282,2184054875,64.98271942138672,-86.01778411865234,-15.85433101654053,9.80011558532715,0.46854016184807,0.69321769475937,-1.22011840343475,-1.79523885250092,1.70361578464508
283,2184071542,65.04414367675781,-86.03968048095703,-15.95489311218262,9.79131698608398,0.48451280593872,0.67240542173386,-1.65408098697662,-2.09940910339355,1.62341618537903
284,2184088209,65.17208099365234,-86.05950927734375,-16.13256645202637,9.77513408660889,0.45203331112862,0.63300651311874,-2.55362462997437,-2.34594416618347,1.36634147167206
285,2184104876,65.20183563232422,-86.07574462890625,-16.21288108825684,9.81593418121338,0.43060043454170,0.64680206775665,-2.40368771553040,-1.86771631240845,1.33013796806335
286,2184121543,65.01105499267578,-86.08413696289062,-16.06721878051758,9.87470626831055,0.43948805332184,0.73562514781952,-2.17884659767151,-0.84632039070129,1.31912434101105
287,2184138210,64.79850006103516,-86.09685516357422,-15.89741230010986,9.90157222747803,0.47325599193573,0.65964698791504,-2.00265073776245,-0.86058026552200,1.57776796817780
288,2184154877,64.52200317382812,-86.11456298828125,-15.66577339172363,9.92648601531982,0.46382611989975,0.58392363786697,-2.53537511825562,-0.79363501071930,1.94741654396057
289,2184171544,63.93478012084961,-86.12414550781250,-15.12240791320801,9.84859752655029,0.44099161028862,0.61640977859497,-2.52630829811096,0.54069042205811,2.06487655639648
290,2184188211,63.25859832763672,-86.12844085693359,-14.50939655303955,9.74382591247559,0.43442192673683,0.64395016431808,-2.48632717132568,0.99398398399353,1.94841563701630
291,2184204878,62.83017349243164,-86.14171600341797,-14.12496376037598,9.72915267944336,0.43156257271767,0.63869476318359,-2.30829334259033,-0.15698024630547,2.00991177558899
292,2184221545,62.48015975952148,-86.15967559814453,-13.82456874847412,9.75801753997803,0.44803661108017,0.66706836223602,-2.44455242156982,-0.58847737312317,2.11174774169922
293,2184238212,62.04166793823242,-86.17101287841797,-13.45267200469971,9.80856037139893,0.45374324917793,0.61380118131638,-3.15433239936829,-0.13780914247036,1.89191412925720
294,2184254879,61.54010009765625,-86.17602539062500,-13.01513767242432,9.84898662567139,0.42593148350716,0.59867334365845,-3.27507042884827,0.23634760081768,1.69440186023712
295,2184271546,61.06795120239258,-86.17981719970703,-12.59907341003418,9.82979774475098,0.42188054323196,0.61870265007019,-2.84633946418762,0.19014227390289,1.58479213714600
296,2184288213,60.62322235107422,-86.18531036376953,-12.20825958251953,9.80397701263428,0.36869990825653,0.59735071659088,-2.63073182106018,0.04201123490930,1.64987421035767
297,2184304880,60.24264526367188,-86.19018554687500,-11.87521076202393,9.81724834442139,0.37487116456032,0.62645602226257,-2.38163542747498,-0.15674972534180,1.50463724136353
298,2184321547,59.88977050781250,-86.19162750244141,-11.55722713470459,9.83136844635010,0.40293127298355,0.64247113466263,-1.91524744033813,-0.12993963062763,1.29688620567322
299,2184338214,59.39428710937500,-86.19023895263672,-11.09726047515869,9.86452388763428,0.42125442624092,0.65438342094421,-1.74634444713593,0.45351126790047,1.44529914855957
300,2184354881,58.97142410278320,-86.19512176513672,-10.71968841552734,9.83489894866943,0.41500318050385,0.63724863529205,-1.90512394905090,0.00063391431468,1.62088048458099
301,2184371548,58.53422927856445,-86.19779968261719,-10.32982921600342,9.78424167633057,0.38866296410561,0.67055559158325,-1.94926750659943,0.10400678217411,1.55330133438110
302,2184388215,58.20510482788086,-86.20341491699219,-10.03683280944824,9.74008655548096,0.39553496241570,0.66786605119705,-1.80838477611542,-0.35230270028114,1.48138105869293
303,2184404882,58.02508163452148,-86.21431732177734,-9.89067649841309,9.78010654449463,0.39662635326385,0.62871807813644,-1.45627415180206,-1.00572109222412,1.45030009746552
304,2184421549,57.81615066528320,-86.22514343261719,-9.71812534332275,9.79602146148682,0.35045057535172,0.62436234951019,-1.17817151546478,-0.89809656143188,1.52781689167023
305,2184438216,57.63129425048828,-86.23308563232422,-9.55419635772705,9.71341705322266,0.38918730616570,0.65864700078964,-0.67677718400955,-0.86481285095215,1.34857916831970
306,2184454883,57.71006011962891,-86.24751281738281,-9.64973449707031,9.72233486175537,0.44851157069206,0.65410447120667,-0.82686769962311,-1.95497906208038,1.10962533950806
307,2184471550,57.81488037109375,-86.26362609863281,-9.78323650360107,9.82063770294189,0.45433712005615,0.59531444311142,-0.91186326742172,-2.09556698799133,1.13978433609009
308,2184488217,57.78616714477539,-86.27869415283203,-9.78794670104980,9.82797241210938,0.44817066192627,0.60868674516678,-1.02523803710938,-1.62666261196136,1.36644387245178
309,2184504884,57.72876739501953,-86.29271697998047,-9.74881076812744,9.82616329193115,0.39385792613029,0.63537967205048,-0.61841225624084,-1.48015165328979,1.39018070697784
310,2184521551,57.76159286499023,-86.30711364746094,-9.80510807037354,9.80736923217773,0.38689050078392,0.61984330415726,-0.66665381193161,-1.78610813617706,1.21812725067139
311,2184538218,57.73173904418945,-86.31549072265625,-9.79423904418945,9.84422874450684,0.42553725838661,0.64189589023590,-1.05950129032135,-1.41144537925720,1.02642893791199
312,2184554885,57.56887817382812,-86.32342529296875,-9.66366291046143,9.84187412261963,0.40589389204979,0.57104891538620,-0.88411831855774,-0.95451480150223,1.28829312324524
313,2184571552,57.37965393066406,-86.33232879638672,-9.49893188476562,9.83914375305176,0.41288802027702,0.58918225765228,-0.92041152715683,-0.90595322847366,1.39029574394226
314,2184588219,57.14046478271484,-86.34339141845703,-9.29504013061523,9.85150051116943,0.40718498826027,0.62273532152176,-0.72521710395813,-0.80201673507690,1.60448181629181
315,2184604886,56.96003723144531,-86.35449218750000,-9.14057350158691,9.80489444732666,0.39709681272507,0.63730251789093,-0.65266275405884,-0.99737125635147,1.48914146423340
316,2184621553,56.87556457519531,-86.36455535888672,-9.06984615325928,9.76252651214600,0.37653622031212,0.62877863645554,-0.41659057140350,-1.25985026359558,1.24509096145630
317,2184638220,56.79129791259766,-86.37657928466797,-8.98285675048828,9.76389884948730,0.35802552103996,0.66261631250381,0.02919207140803,-1.30416011810303,1.35896492004395
318,2184654887,56.75154113769531,-86.39538574218750,-8.93971920013428,9.75187206268311,0.31833446025848,0.69346594810486,0.26108944416046,-1.65589940547943,1.61395215988159
319,2184671554,56.69001770019531,-86.41996765136719,-8.87558269500732,9.75368309020996,0.31227362155914,0.69776135683060,0.78365892171860,-1.74809873104095,1.96229135990143
320,2184688221,56.58608245849609,-86.44818878173828,-8.76803684234619,9.79321670532227,0.29432240128517,0.66662651300430,0.87294489145279,-1.73401188850403,2.22996973991394
321,2184704888,56.46712493896484,-86.47041320800781,-8.63994407653809,9.81239223480225,0.28368505835533,0.71620702743530,0.96696257591248,-1.50007176399231,1.97872841358185
322,2184721555,56.58706665039062,-86.48353576660156,-8.74186038970947,9.78588008880615,0.31805634498596,0.68683457374573,1.83336341381073,-1.87997198104858,1.05273950099945
323,2184738222,56.92155456542969,-86.49479675292969,-9.05562400817871,9.84771728515625,0.35182827711105,0.57541346549988,2.26776123046875,-2.46211671829224,0.56086683273315
324,2184754889,57.12825775146484,-86.49949645996094,-9.22569084167480,9.79170608520508,0.32350540161133,0.63740396499634,2.67414522171021,-1.82005786895752,0.48799881339073
325,2184771556,57.30442810058594,-86.50363922119141,-9.37143898010254,9.69892692565918,0.27875337004662,0.69228523969650,2.44405341148376,-1.71717154979706,0.51074290275574
326,2184788223,57.59041595458984,-86.52024841308594,-9.62366962432861,9.75152301788330,0.30220353603363,0.68063962459564,2.64638710021973,-2.45256972312927,0.94822692871094
327,2184804890,58.03296279907227,-86.54328918457031,-10.03424167633057,9.83290386199951,0.35902294516563,0.65507715940475,2.56346607208252,-3.13145947456360,0.97372436523438
328,2184821557,58.46866607666016,-86.56076812744141,-10.44136238098145,9.87798118591309,0.37800884246826,0.62772595882416,2.35206580162048,-2.94320058822632,0.73060238361359
329,2184838224,58.88845062255859,-86.56623840332031,-10.84105396270752,9.88151836395264,0.37082505226135,0.64675140380859,2.14582562446594,-2.52278685569763,0.15501447021961
330,2184854891,59.28297042846680,-86.56886291503906,-11.21994495391846,9.82440567016602,0.37850442528725,0.67149585485458,1.71134448051453,-2.37147998809814,0.03231682255864
331,2184871558,59.82532882690430,-86.57582855224609,-11.75384044647217,9.83957576751709,0.39066576957703,0.62820398807526,1.11582362651825,-2.99566149711609,-0.01466326881200
332,2184888225,60.27178955078125,-86.58013153076172,-12.20874023437500,9.84822750091553,0.36974015831947,0.63452476263046,0.29684481024742,-2.66625666618347,0.02200771123171
333,2184904892,60.62464523315430,-86.57811737060547,-12.56683063507080,9.82910251617432,0.36941578984261,0.65405237674713,0.06068288907409,-2.20209026336670,-0.14654307067394
334,2184921559,61.04599761962891,-86.57194519042969,-12.99660778045654,9.81746006011963,0.37929379940033,0.61703026294708,0.18886165320873,-2.29877829551697,-0.46374353766441
335,2184938226,61.43523788452148,-86.56242370605469,-13.40012168884277,9.86253452301025,0.40084433555603,0.60860866308212,-0.07977075874805,-2.11605739593506,-0.60069465637207
336,2184954893,61.75692367553711,-86.55036926269531,-13.73569202423096,9.83117198944092,0.39655083417892,0.62421536445618,-0.06267426908016,-1.84349966049194,-0.60599648952484
337,2184971560,62.01520919799805,-86.53926086425781,-14.00310420989990,9.78366947174072,0.39759218692780,0.60527396202087,0.02157229557633,-1.67093408107758,-0.45036089420319
338,2184988227,62.25901794433594,-86.52943420410156,-14.25908374786377,9.81743144989014,0.41671249270439,0.57109016180038,-0.00742768310010,-1.67440474033356,-0.34482377767563
339,2185004894,62.26615524291992,-86.51844787597656,-14.27108287811279,9.83711051940918,0.41260769963264,0.57316291332245,0.32307216525078,-0.86669528484344,0.00406601559371
340,2185021561,62.12661743164062,-86.50794982910156,-14.13790512084961,9.84185218811035,0.42349442839622,0.59980857372284,-0.01655220426619,-0.41958078742027,0.25467982888222
341,2185038228,61.92173767089844,-86.49792480468750,-13.94526672363281,9.83159160614014,0.41828384995461,0.61969953775406,-0.09738589078188,-0.22537255287170,0.39868730306625
342,2185054895,61.65504074096680,-86.48436737060547,-13.69429111480713,9.80250263214111,0.42160981893539,0.60241925716400,-0.40783742070198,0.05803837999701,0.32261759042740
343,2185071562,61.34487915039062,-86.46803283691406,-13.40486431121826,9.79903221130371,0.46190613508224,0.60015875101089,-0.24531841278076,0.29995673894882,0.25183045864105
344,2185088229,60.90005874633789,-86.45204925537109,-12.96700096130371,9.81256866455078,0.52519816160202,0.64283347129822,0.09400501847267,0.74794852733612,0.53983253240585
345,2185104896,60.15060043334961,-86.43553161621094,-12.23964214324951,9.83847427368164,0.48920360207558,0.65632706880569,-0.79169499874115,1.70297563076019,1.07943451404572
346,2185121563,59.52363204956055,-86.43092346191406,-11.63579273223877,9.83591079711914,0.41812622547150,0.61959707736969,-0.90845036506653,0.94709354639053,1.49470591545105
347,2185138230,58.89529418945312,-86.42642211914062,-11.02184200286865,9.80658149719238,0.34663105010986,0.62652701139450,-0.41788396239281,0.97314804792404,1.53172266483307
348,2185154897,58.40971755981445,-86.41838073730469,-10.54682540893555,9.74050235748291,0.34830871224403,0.62488937377930,-0.09599640220404,0.63353651762009,1.11757802963257
349,2185171564,58.16902160644531,-86.40599060058594,-10.30939483642578,9.76540279388428,0.38752496242523,0.57368832826614,0.25268846750259,0.00985448528081,0.43616506457329
350,2185188231,58.08568572998047,-86.38849639892578,-10.23426723480225,9.81319904327393,0.44643226265907,0.57536166906357,0.06878291070461,-0.33498206734657,-0.14094029366970
351,2185204898,57.98680496215820,-86.37258911132812,-10.14075183868408,9.81078815460205,0.41629555821419,0.58897274732590,0.26473924517632,-0.32004347443581,-0.02411435544491
352,2185221565,57.81845474243164,-86.36547088623047,-9.98101520538330,9.77148532867432,0.41704657673836,0.63089305162430,0.27788496017456,-0.37857490777969,0.57769441604614
353,2185238232,57.68429565429688,-86.35830688476562,-9.86118507385254,9.80488491058350,0.42928060889244,0.60045963525772,-0.23089209198952,-0.50693291425705,0.48054543137550
354,2185254899,57.45585250854492,-86.34248352050781,-9.64086437225342,9.82872962951660,0.44625702500343,0.60496908426285,-0.33179333806038,0.06852677464485,0.23677662014961
355,2185271566,57.24839782714844,-86.32464599609375,-9.44971179962158,9.84235572814941,0.43144795298576,0.62411969900131,-0.51242685317993,0.06462083756924,0.09032317996025
356,2185288233,57.13536071777344,-86.30445098876953,-9.34883689880371,9.83774566650391,0.43379393219948,0.69810783863068,0.06930796802044,-0.12826199829578,-0.20047701895237
357,2185304900,57.14146804809570,-86.28527832031250,-9.35695266723633,9.85756969451904,0.46475481987000,0.59514343738556,0.60613733530045,-0.52166026830673,-0.36931592226028
358,2185321567,57.00147247314453,-86.26603698730469,-9.22862911224365,9.88048171997070,0.45642083883286,0.55504202842712,0.08495092391968,-0.05696264281869,-0.10137506574392
359,2185338234,56.63619995117188,-86.24027252197266,-8.87140464782715,9.78181076049805,0.39675158262253,0.60240101814270,0.29668468236923,0.90328305959702,0.08813329041004
360,2185354901,56.33069992065430,-86.21426391601562,-8.56744766235352,9.71492099761963,0.42643409967422,0.63248443603516,0.40912443399429,0.73152428865433,-0.03384077548981
361,2185371568,56.17685699462891,-86.19615173339844,-8.41957569122314,9.77665328979492,0.46555083990097,0.63898593187332,0.22252315282822,-0.03165089339018,0.02778978087008
362,2185388235,56.10794448852539,-86.18074035644531,-8.35315036773682,9.76657962799072,0.46754577755928,0.65011155605316,0.41112226247787,-0.38971641659737,-0.01277433428913
363,2185404902,56.02768325805664,-86.16667175292969,-8.28056240081787,9.74105262756348,0.43873071670532,0.65724205970764,0.83515328168869,-0.36584538221359,0.09179589897394
364,2185421569,56.01231384277344,-86.15559387207031,-8.27157402038574,9.75233936309814,0.44192725419998,0.66779267787933,0.55728751420975,-0.70119893550873,0.09018872678280
365,2185438236,56.07878494262695,-86.14979553222656,-8.33154296875000,9.81696510314941,0.44391003251076,0.59254455566406,0.91193377971649,-1.12741982936859,0.17505641281605
366,2185454903,56.03507232666016,-86.13928222656250,-8.28513145446777,9.84617996215820,0.45881500840187,0.60932636260986,1.13308668136597,-0.58887439966202,0.20229551196098
367,2185471570,55.99776077270508,-86.12748718261719,-8.23341751098633,9.82063770294189,0.42274311184883,0.62186819314957,1.55552983283997,-0.54852163791656,0.14748433232307
368,2185488237,55.98573684692383,-86.11995697021484,-8.19974422454834,9.80511760711670,0.44802483916283,0.58629155158997,2.30714726448059,-0.72553092241287,0.31985780596733
369,2185504904,55.92228698730469,-86.10202789306641,-8.09723281860352,9.85175704956055,0.44361460208893,0.56317144632339,2.93308329582214,-0.17060619592667,-0.04922760650516
370,2185521571,55.78126907348633,-86.07609558105469,-7.90989255905151,9.83564281463623,0.48262062668800,0.60298341512680,3.60808634757996,0.40852251648903,-0.24696406722069
371,2185538238,55.54940414428711,-86.05796813964844,-7.62697172164917,9.78755283355713,0.49066257476807,0.63289165496826,3.71677422523499,0.45888996124268,0.37423998117447
372,2185554905,55.32754898071289,-86.05915832519531,-7.35060358047485,9.74239253997803,0.46066525578499,0.62110960483551,3.97783136367798,-0.20983843505383,1.31540405750275
373,2185571572,55.02720260620117,-86.07295227050781,-6.98768281936646,9.72647571563721,0.46989265084267,0.57705980539322,4.36962890625000,-0.36502581834793,2.14957141876221
374,2185588239,54.79565048217773,-86.09304809570312,-6.69582653045654,9.75100040435791,0.51949697732925,0.56185984611511,3.97763371467590,-0.84232503175735,2.27291607856750
375,2185604906,54.60410308837891,-86.11380004882812,-6.45030212402344,9.76788234710693,0.50922507047653,0.59593409299850,4.01808881759644,-1.00883316993713,2.21668338775635
376,2185621573,54.43964767456055,-86.14186859130859,-6.24550676345825,9.72450542449951,0.52864021062851,0.55291616916656,3.60747885704041,-1.38791382312775,2.49792385101318
377,2185638240,54.30459213256836,-86.18135070800781,-6.07862472534180,9.70986747741699,0.56420391798019,0.49454593658447,2.55025649070740,-1.95026004314423,2.93559956550598
378,2185654907,54.14360046386719,-86.22955322265625,-5.89726972579956,9.79496002197266,0.54005944728851,0.50930881500244,1.73522210121155,-2.22965598106384,3.38459038734436
379,2185671574,53.88449859619141,-86.28411102294922,-5.61457157135010,9.80627727508545,0.49932068586349,0.46597716212273,1.97837603092194,-2.13887166976929,3.90725541114807
380,2185688241,53.52808380126953,-86.34365844726562,-5.24253702163696,9.77551746368408,0.49379101395607,0.50890356302261,1.52193236351013,-2.07979607582092,4.35449218750000
381,2185704908,53.18466567993164,-86.41236877441406,-4.89222621917725,9.75169563293457,0.47792086005211,0.55747759342194,1.00155282020569,-2.51232457160950,4.72274589538574
382,2185721575,52.81663894653320,-86.48904418945312,-4.51851987838745,9.77661132812500,0.43152230978012,0.57111924886703,0.63962602615356,-2.80101180076599,5.13245248794556
383,2185738242,52.40322113037109,-86.57012176513672,-4.10303974151611,9.82363033294678,0.41625940799713,0.57283973693848,0.58288103342056,-2.87403297424316,5.39251089096069
384,2185754909,51.82831573486328,-86.64807128906250,-3.52530241012573,9.81539249420166,0.41905912756920,0.57017964124680,0.69974529743195,-2.37532162666321,5.57198476791382
385,2185771576,51.22328948974609,-86.72888183593750,-2.92339992523193,9.76790809631348,0.42262732982635,0.62010627985001,0.27157789468765,-2.50937891006470,5.71471309661865
386,2185788243,50.51918792724609,-86.81162261962891,-2.22542262077332,9.75930309295654,0.37427628040314,0.60505914688110,0.32320025563240,-2.42242383956909,5.97255516052246
387,2185804910,49.62735748291016,-86.90042114257812,-1.31849968433380,9.68753147125244,0.31764057278633,0.67622536420822,1.32645010948181,-2.26003932952881,6.61743259429932
388,2185821577,48.86076354980469,-87.00853729248047,-0.53664731979370,9.64070415496826,0.27976056933403,0.67446637153625,1.34309816360474,-3.47500371932983,7.16024255752563
389,2185838244,48.28671646118164,-87.12547302246094,0.04253837466240,9.66525936126709,0.28336384892464,0.60629773139954,1.07849323749542,-4.43385362625122,7.08134317398071
390,2185854911,47.95508193969727,-87.24408721923828,0.38889247179031,9.69479942321777,0.23569677770138,0.58096879720688,1.27012109756470,-5.13554525375366,6.62051248550415
391,2185871578,47.81657028198242,-87.36679077148438,0.54923593997955,9.75226688385010,0.22691138088703,0.60745245218277,1.95673370361328,-5.72540616989136,6.40305995941162
392,2185888245,47.58095550537109,-87.49118804931641,0.81434017419815,9.82429695129395,0.30053034424782,0.65478885173798,2.36343789100647,-5.63042163848877,6.64590787887573
393,2185904912,47.36048126220703,-87.62520599365234,1.05816912651062,9.90412998199463,0.33660447597504,0.51167911291122,1.82074975967407,-6.12224388122559,6.99285173416138
394,2185921579,46.83109283447266,-87.75318908691406,1.59961664676666,9.87454795837402,0.30711024999619,0.53394520282745,0.98486620187759,-5.41926431655884,7.15366029739380
395,2185938246,45.68846893310547,-87.86384582519531,2.74716114997864,9.86968708038330,0.29232829809189,0.54085838794708,0.77801156044006,-3.84325695037842,7.25865364074707
396,2185954913,44.20338058471680,-87.97706604003906,4.21911907196045,9.80147171020508,0.34843727946281,0.65963685512543,-0.58914339542389,-3.71357297897339,7.69622659683228
397,2185971580,43.00430679321289,-88.10421752929688,5.35917234420776,9.74271869659424,0.38062795996666,0.63545954227448,-3.14366531372070,-5.08231687545776,7.60198593139648
398,2185988247,41.90496826171875,-88.24253082275391,6.38339805603027,9.76614952087402,0.24137237668037,0.59602349996567,-4.00027608871460,-5.96850967407227,7.69551706314087
399,2186004914,40.89241409301758,-88.36505889892578,7.31860589981079,9.73097419738770,0.21144260466099,0.60742217302322,-4.09114313125610,-5.61908197402954,6.78949975967407
400,2186021581,40.20885848999023,-88.47569274902344,7.91309452056885,9.64232540130615,0.20691946148872,0.55195909738541,-5.15140628814697,-5.59427547454834,5.72375440597534
401,2186038248,39.86024093627930,-88.57811737060547,8.15492820739746,9.69642448425293,0.15979701280594,0.61373794078827,-5.87759113311768,-5.66701650619507,4.93391036987305
402,2186054915,39.56021499633789,-88.67234802246094,8.36702823638916,9.91038417816162,0.00664145732298,0.46119853854179,-4.68101596832275,-5.33259010314941,4.52346563339233
403,2186071582,37.04471969604492,-88.70896148681641,10.81338024139404,10.00077152252197,0.01277678366750,0.53931742906570,-3.95197534561157,-0.82366603612900,4.57502317428589
404,2186088249,34.13370513916016,-88.72436523437500,13.63672351837158,9.84751033782959,0.06918501108885,0.73297643661499,-4.75901269912720,0.27552869915962,4.19988107681274
405,2186104916,32.04934692382812,-88.73761749267578,15.61251354217529,9.72012996673584,-0.04076403379440,0.70390415191650,-5.93580102920532,-0.33728724718094,3.18751358985901
406,2186121583,30.73111534118652,-88.74010467529297,16.87054634094238,9.67686843872070,-0.19035592675209,0.60338640213013,-3.07632851600647,-0.43025496602058,2.11258029937744
407,2186138250,29.53591346740723,-88.74227905273438,18.01592445373535,9.66713142395020,0.04206747189164,0.61058533191681,-2.39882826805115,-0.45022642612457,1.94892168045044
408,2186154917,28.71660804748535,-88.73839569091797,18.72682762145996,9.83407878875732,0.35679566860199,0.41420873999596,-5.92290449142456,-0.42901909351349,1.29549026489258
409,2186171584,27.07629776000977,-88.73143768310547,20.20216941833496,10.00880241394043,0.36251005530357,0.41040787100792,-9.32818031311035,0.16006660461426,2.11701822280884
410,2186188251,23.73876380920410,-88.70034790039062,23.35705757141113,10.10184574127197,0.24455218017101,0.42077142000198,-10.38581943511963,2.39791297912598,3.55713152885437
411,2186204918,19.66811943054199,-88.65245056152344,27.22316169738770,9.98878383636475,0.18396921455860,0.48505929112434,-11.72754955291748,3.53562426567078,4.42804765701294
412,2186221585,15.92893505096436,-88.61252593994141,30.74391174316406,9.85428714752197,0.09468448162079,0.44139435887337,-12.84290122985840,2.76695466041565,4.56734991073608
413,2186238252,12.64949131011963,-88.57811737060547,33.79507446289062,9.96917629241943,0.05580588057637,0.28322792053223,-12.72381496429443,1.97115457057953,4.39956045150757
414,2186254919,9.48202419281006,-88.52568054199219,36.72043228149414,9.95009994506836,-0.10008244216442,0.20920036733150,-14.01967716217041,2.87715315818787,4.28445672988892
415,2186271586,6.58447074890137,-88.48819732666016,39.36507415771484,9.59629154205322,-0.20331020653248,-0.01230240985751,-14.56208515167236,1.78877305984497,4.32392024993896
416,2186288253,3.71794605255127,-88.46634674072266,41.99161529541016,9.55178737640381,-0.41894525289536,-0.29339510202408,-13.83707809448242,0.59387564659119,4.60918140411377
417,2186304920,1.00560879707336,-88.45389556884766,44.50814437866211,9.60440540313721,-0.62665385007858,-0.38563126325607,-11.19459915161133,-0.18806134164333,4.58249139785767
418,2186321587,-1.32957625389099,-88.45832824707031,46.70370864868164,9.56294822692871,-0.44660526514053,-0.64763844013214,-7.83248710632324,-1.37268090248108,4.11217117309570
419,2186338254,-3.94248676300049,-88.47351074218750,49.19740676879883,9.78127384185791,-0.46061110496521,-0.83764767646790,-5.96436071395874,-2.16813468933105,4.53579282760620
420,2186354921,-7.39111661911011,-88.44518280029297,52.56398391723633,10.11847209930420,-0.61955916881561,-0.75224936008453,-4.37171745300293,0.08448991179466,6.10811138153076
421,2186371588,-11.29538917541504,-88.38298797607422,56.40362167358398,9.96447086334229,-0.60709846019745,-0.44251465797424,-3.31672358512878,1.62878870964050,7.43111705780029
422,2186388255,-15.02720546722412,-88.33798980712891,60.09481811523438,9.69380950927734,-0.55117666721344,-0.49991765618324,-1.87039327621460,0.15790872275829,7.32412528991699
423,2186404922,-17.89857673645020,-88.28639984130859,62.93025588989258,9.79128837585449,-0.38040837645531,-0.47360906004906,-1.59275150299072,0.53809088468552,6.25045347213745
424,2186421589,-20.02026176452637,-88.23320770263672,65.01490783691406,9.58757209777832,-0.25429448485374,-0.32004049420357,-1.65137898921967,0.76571083068848,5.21351003646851
425,2186438256,-21.68535232543945,-88.20648956298828,66.66532135009766,9.31947231292725,-0.31133142113686,-0.28438109159470,-0.32806023955345,-0.66074365377426,4.02246809005737
426,2186454923,-22.80288696289062,-88.21019744873047,67.81154632568359,9.23062229156494,-0.37869754433632,-0.34737786650658,2.26559090614319,-2.06654834747314,2.49970364570618
427,2186471590,-23.12691497802734,-88.22402954101562,68.18174743652344,9.31024360656738,-0.32497948408127,-0.29533055424690,3.34484601020813,-2.11995077133179,0.90690100193024
428,2186488257,-21.89308166503906,-88.22226715087891,67.00262451171875,9.40578269958496,-0.27158731222153,-0.24337029457092,3.89825916290283,-0.11462962627411,-1.34307873249054
429,2186504924,-19.31495475769043,-88.20006561279297,64.46871185302734,9.41195011138916,-0.33702355623245,-0.19919963181019,3.28014826774597,1.84292995929718,-3.31243944168091
430,2186521591,-16.63405799865723,-88.19897460937500,61.84765625000000,9.28127193450928,-0.47395160794258,-0.16732688248158,4.21859788894653,0.50923812389374,-4.01806926727295
431,2186538258,-13.92437171936035,-88.22029113769531,59.23883819580078,9.38972854614258,-0.46058425307274,-0.29311516880989,6.67789793014526,-1.03290271759033,-4.39553070068359
432,2186554925,-10.87788200378418,-88.24990081787109,56.34003448486328,9.58354854583740,-0.37103733420372,-0.24468529224396,9.50574684143066,-1.62774515151978,-4.93844366073608
433,2186571592,-7.49001359939575,-88.28034973144531,53.12136840820312,9.75392913818359,-0.32167384028435,-0.27695214748383,10.75938320159912,-1.98543357849121,-5.39499807357788
434,2186588259,-3.93162012100220,-88.27399444580078,49.73272323608398,9.79346370697021,-0.32833871245384,-0.01019494794309,10.80913352966309,-0.08279309421778,-5.36248254776001
435,2186604926,-0.66573661565781,-88.27082061767578,46.63730239868164,9.60296535491943,-0.19506418704987,0.10293076932430,10.85300350189209,-0.63778853416443,-4.91001462936401
436,2186621593,2.12045598030090,-88.28856658935547,43.98368835449219,9.47308731079102,-0.17186053097248,0.04656020179391,8.58505916595459,-2.19538664817810,-4.09619569778442
437,2186638260,4.74640178680420,-88.30142211914062,41.47330474853516,9.52991962432861,-0.21761859953403,0.14921543002129,7.55007505416870,-2.07837486267090,-3.76139879226685
438,2186654927,7.59469413757324,-88.31948852539062,38.71797180175781,9.41748332977295,-0.33727267384529,0.17148193717003,6.21678590774536,-2.65199065208435,-4.05733394622803
439,2186671594,11.08677768707275,-88.36410522460938,35.31964492797852,9.28301906585693,-0.29137352108955,-0.11853235960007,6.24951887130737,-4.66789007186890,-4.69587182998657
440,2186688261,14.71237468719482,-88.36315155029297,31.76167869567871,9.50502300262451,-0.18100279569626,-0.35120096802711,4.69998884201050,-2.34810900688171,-5.26141357421875
441,2186704928,17.77365875244141,-88.29774475097656,28.76847076416016,9.69654178619385,-0.29615783691406,-0.16527906060219,4.80361175537109,1.35811388492584,-5.46796035766602
442,2186721595,20.19725799560547,-88.19853973388672,26.43106651306152,9.69056034088135,-0.37228018045425,-0.07416956126690,5.84711170196533,3.24035310745239,-5.34240770339966
443,2186738262,22.06260108947754,-88.08225250244141,24.60296630859375,9.70015525817871,-0.48288580775261,-0.30664095282555,2.93341636657715,4.25670909881592,-5.21126270294189
444,2186754929,23.69372749328613,-87.94062805175781,23.02323532104492,9.77793979644775,-0.32212078571320,-0.44073078036308,3.78868842124939,5.60200405120850,-5.72752523422241
445,2186771596,25.06061744689941,-87.74501800537109,21.68082809448242,10.03929042816162,-0.17389667034149,-0.59219920635223,2.16882038116455,8.47427177429199,-7.00057458877563
446,2186788263,25.98889350891113,-87.48145294189453,20.78437423706055,10.15851593017578,-0.13305824995041,-0.30016511678696,2.63630485534668,12.38371276855469,-8.26046848297119
447,2186804930,26.69170951843262,-87.21582794189453,20.11999320983887,10.05164146423340,-0.25383791327477,-0.13011245429516,2.99356317520142,12.50278472900391,-8.13606548309326
448,2186821597,27.25130081176758,-86.95766448974609,19.58965301513672,9.99778366088867,-0.27694037556648,-0.07631434500217,2.43462347984314,12.09636878967285,-7.87510395050049
449,2186838264,27.90241050720215,-86.71210479736328,18.96664047241211,9.87789630889893,-0.28536149859428,0.14757740497589,2.37216663360596,11.12916755676270,-8.05984687805176
450,2186854931,28.63427734375000,-86.50582122802734,18.26989936828613,9.91688919067383,-0.33647993206978,0.15205094218254,2.78773212432861,8.72386074066162,-7.43271875381470
451,2186871598,29.07869148254395,-86.26598358154297,17.89406394958496,10.10425567626953,-0.52251303195953,0.41787940263748,4.78622913360596,10.93305110931396,-7.59919071197510
452,2186888265,29.55132293701172,-85.95586395263672,17.49220466613770,10.05571174621582,-0.67258286476135,1.18465566635132,4.91866827011108,14.43173408508301,-9.94325160980225
453,2186904932,30.47396469116211,-85.60984039306641,16.68689537048340,9.75176143646240,-0.99698799848557,1.83353233337402,7.79481601715088,15.21687602996826,-12.87007617950439
454,2186921599,31.18519592285156,-85.18635559082031,16.27674484252930,9.57696056365967,-1.32955527305603,2.20708155632019,18.76270484924316,19.80985832214355,-14.12711620330811
455,2186938266,30.62435150146484,-84.51834869384766,17.44589042663574,9.31688499450684,-1.65598189830780,2.88175821304321,36.85189819335938,36.63365173339844,-14.61736869812012
456,2186954933,28.08108139038086,-83.50134277343750,21.03180313110352,8.05205917358398,-1.80356979370117,3.77419590950012,62.02793502807617,63.16715240478516,-9.77423286437988
457,2186971600,23.96782112121582,-82.18229675292969,26.70262718200684,5.06569337844849,-1.59030055999756,4.37330293655396,91.45799255371094,88.61366271972656,3.95544838905334
458,2186988267,19.14932441711426,-80.88527679443359,33.17163848876953,0.64734524488449,-0.45584720373154,4.03887081146240,95.45755004882812,92.21698760986328,25.13252449035645
459,2187004934,13.83333301544189,-79.98072052001953,39.43230438232422,-2.94673991203308,0.00564302783459,1.14624559879303,52.09801101684570,68.62328338623047,45.02310943603516
460,2187021601,7.90051078796387,-79.28226470947266,45.80375289916992,-4.18090724945068,0.89248579740524,-1.37306272983551,20.71291160583496,52.99584197998047,60.22550964355469
461,2187038268,2.53992295265198,-78.44663238525391,51.59177017211914,-3.19445300102234,0.64621406793594,-2.32410240173340,19.74611091613770,54.91018676757812,62.79624938964844
462,2187054935,-0.70788341760635,-77.43331909179688,55.18776321411133,-0.45710194110870,0.14322490990162,-3.01438760757446,16.75243949890137,60.42805099487305,44.69454574584961
463,2187071602,-2.62945508956909,-76.19411468505859,56.69847106933594,1.04020380973816,0.31407213211060,0.42088040709496,-26.41873931884766,72.67123413085938,23.44277763366699
464,2187088269,-2.49506711959839,-75.38011932373047,56.55585861206055,1.14703166484833,1.43553781509399,-0.99476444721222,0.37211063504219,47.83353805541992,0.69707435369492
465,2187104936,-1.46122944355011,-74.45777893066406,55.22578048706055,2.39023470878601,1.30589687824249,-0.87638992071152,-14.42185878753662,54.97441864013672,-18.22142219543457
466,2187121603,1.08320713043213,-73.83359527587891,52.67509460449219,3.53969717025757,0.45368075370789,-0.95873802900314,6.04144144058228,36.53256607055664,-41.05753707885742
467,2187138270,4.38243532180786,-73.09155273437500,49.21175384521484,4.79613304138184,0.61445558071136,-0.95663148164749,-0.65482670068741,40.59645080566406,-60.56605529785156
468,2187154937,7.39717769622803,-72.42726898193359,46.04713058471680,2.58879375457764,0.78914135694504,0.05832351371646,0.13328424096107,32.82044601440430,-59.43269348144531
469,2187171604,9.52615547180176,-71.96080780029297,43.57626724243164,2.09129405021667,1.61358940601349,0.11868061125278,-12.80608463287354,19.97535324096680,-48.32649993896484
470,2187188271,11.00106811523438,-71.57562255859375,41.62685394287109,1.88740634918213,1.91234493255615,0.13025391101837,-21.98941040039062,15.18872928619385,-39.49330902099609
471,2187204938,11.72523975372314,-71.05197906494141,40.15671920776367,0.95489448308945,2.85956263542175,-0.03048291616142,-39.49703216552734,24.20491409301758,-33.26435089111328
472,2187221605,11.90888977050781,-70.39550781250000,39.03847122192383,-0.15021727979183,2.39686107635498,0.44180160760880,-51.70022964477539,32.99156570434570,-29.10922431945801
473,2187238272,11.72666358947754,-69.54028320312500,38.22228622436523,-0.71669989824295,0.11202183365822,2.25475001335144,-56.32900619506836,45.76548385620117,-26.29023361206055
474,2187254939,11.60591220855713,-68.74755859375000,37.69834899902344,-1.44504415988922,-2.37437319755554,3.56001901626587,-36.00948333740234,43.28536224365234,-19.94105339050293
475,2187271606,9.85382080078125,-67.59096527099609,38.01284790039062,1.24690628051758,2.32010030746460,12.92584323883057,-86.98635864257812,68.45490264892578,-5.39601039886475
476,2187288273,5.69991207122803,-65.73639678955078,39.58947372436523,20.60675239562988,12.35014057159424,27.86188888549805,-161.71830749511719,114.26786041259766,22.70405197143555
477,2187304940,3.28189682960510,-63.09781265258789,40.74421691894531,35.68991851806641,11.77065467834473,14.87545204162598,-81.93939208984375,159.08059692382812,18.07962608337402
478,2187321607,3.93834948539734,-61.88926696777344,38.88031387329102,11.91832923889160,-12.82472991943359,8.52386283874512,-59.20629501342773,68.02111816406250,-55.44435119628906
479,2187338274,4.31480312347412,-59.84048461914062,38.69174957275391,31.66557884216309,-1.78406667709351,13.20915794372559,13.31857395172119,121.12265777587891,-13.69979381561279
480,2187354941,2.14431691169739,-58.51660919189453,40.10507965087891,24.91576194763184,1.34227252006531,13.23623371124268,-56.77233886718750,80.66860961914062,39.53760147094727
481,2187371608,0.14770029485226,-57.37111663818359,40.13589859008789,22.38873863220215,3.14824628829956,12.86571598052979,-117.60121154785156,67.66267395019531,0.23992334306240
482,2187388275,-0.54184865951538,-56.70825576782227,39.18192291259766,25.35713005065918,0.12027928233147,14.08595466613770,-88.77932739257812,38.80589675903320,-30.36976051330566
483,2187404942,-0.38856416940689,-56.33303070068359,38.31848907470703,23.03918266296387,-0.86736381053925,13.90791606903076,-33.39417648315430,21.67717552185059,-27.76087379455566
484,2187421609,-0.59592264890671,-56.24845123291016,38.17801284790039,23.98962974548340,-1.26961910724640,10.85132503509521,-18.83328819274902,4.05013561248779,-4.00396251678467
485,2187438276,-1.26907384395599,-56.34212112426758,38.60484695434570,23.14559555053711,-3.09815573692322,11.17791557312012,-18.46218681335449,-6.90475034713745,14.74420642852783
486,2187454943,-1.80181288719177,-56.82157897949219,39.13762664794922,22.62852859497070,-3.28001904487610,11.47811985015869,-4.65966844558716,-30.27428817749023,17.44874000549316
487,2187471610,-2.13356423377991,-57.51321792602539,39.41820907592773,22.79067039489746,0.45853742957115,11.88846397399902,-5.13394069671631,-42.82574462890625,8.31390094757080
488,2187488277,-2.27351331710815,-58.43964385986328,39.35760498046875,21.81601524353027,2.06471729278564,11.65564823150635,-10.85743999481201,-56.50483322143555,-3.44594717025757
489,2187504944,-2.41566133499146,-59.62938308715820,39.28779220581055,22.74609756469727,0.75399398803711,10.97893238067627,-11.50366306304932,-72.26930999755859,-4.45327472686768
490,2187521611,-2.93897604942322,-61.06549835205078,39.73860549926758,24.48443603515625,-0.14026871323586,10.34163188934326,-7.27644824981689,-87.72309875488281,9.96423625946045
491,2187538278,-4.37099218368530,-62.88591384887695,41.27179718017578,24.64012527465820,-0.13043908774853,9.26523113250732,-4.09203672409058,-112.77077484130859,36.79121017456055
492,2187554945,-6.69391012191772,-65.28717803955078,43.73962402343750,25.68875503540039,-2.44961142539978,8.30707931518555,-5.55074262619019,-150.62547302246094,51.13747406005859
493,2187571612,-8.67756938934326,-68.26630401611328,46.01592636108398,25.20116043090820,-6.24493122100830,5.89951658248901,7.13809061050415,-185.32221984863281,30.08623886108398
494,2187588279,-9.12178707122803,-71.50083160400391,47.15954589843750,25.63033485412598,-4.95677232742310,1.95787572860718,38.39131927490234,-196.38192749023438,-6.09941816329956
495,2187604946,-4.78092050552368,-72.57620239257812,43.36070632934570,24.59290885925293,-1.81941950321198,-1.18672788143158,44.20261001586914,-56.49972915649414,-76.95474243164062
496,2187621613,-2.28718304634094,-74.62017059326172,41.66379165649414,19.88400840759277,12.29336261749268,2.46445560455322,52.52173233032227,-121.60109710693359,-35.64884185791016
497,2187638280,-2.98684835433960,-77.96838378906250,42.07021713256836,10.15850448608398,4.20066595077515,2.51264381408691,-17.69813537597656,-201.93736267089844,-2.85050487518311
498,2187654947,-3.52478742599487,-81.72680664062500,42.27926254272461,6.05960321426392,-2.42964148521423,7.08256149291992,-19.36742401123047,-226.29302978515625,-9.97519874572754
499,2187671614,0.48190042376518,-82.16604614257812,38.49884033203125,6.13528680801392,-4.99162960052490,19.96834945678711,16.38394165039062,-26.46899223327637,-31.81069755554199
500,2187688281,1.91875112056732,-79.00196075439453,35.48345184326172,6.31488227844238,-8.83766460418701,22.93630599975586,-91.67680358886719,188.18611145019531,-32.92759323120117
501,2187704948,4.78999328613281,-77.45916748046875,34.40134048461914,-23.98645019531250,-6.20611476898193,26.76815605163574,109.30956268310547,90.61342620849609,-18.02618598937988
502,2187721615,11.29530715942383,-80.92309570312500,29.66635704040527,-17.22027015686035,-1.67533779144287,3.97501397132874,111.63779449462891,-214.25028991699219,-23.07627677917480
503,2187738282,20.54910469055176,-82.97175598144531,22.77658081054688,-2.45005750656128,-1.57763361930847,-11.65865230560303,146.35784912109375,-135.05895996093750,-21.34949874877930
504,2187754949,19.53820610046387,-82.46234893798828,24.95842742919922,1.44805562496185,2.29261040687561,-3.68815946578979,69.80792999267578,33.29677963256836,5.70897388458252
505,2187771616,20.31946754455566,-83.06675720214844,25.11407470703125,7.77739191055298,7.58412742614746,1.58684718608856,56.71246337890625,-34.81893920898438,14.08718109130859
506,2187788283,16.17355728149414,-82.45524597167969,28.46657562255859,12.63352870941162,7.63913488388062,1.97772550582886,-48.58356475830078,41.67999649047852,13.19388198852539
507,2187804950,13.17271137237549,-82.61509704589844,31.43291091918945,3.55153369903564,-0.59730476140976,0.97040688991547,-2.98179936408997,-4.52865600585938,25.42317199707031
508,2187821617,8.01059436798096,-82.73207092285156,35.94231414794922,1.90751016139984,-0.87650310993195,-0.53443056344986,-40.76717758178711,-1.65820872783661,35.81197357177734
509,2187838284,4.47221755981445,-81.84732055664062,39.37947463989258,-1.55540680885315,-3.70563888549805,2.01112675666809,-7.31545019149780,54.67540740966797,22.35320472717285
510,2187854951,4.72591638565063,-81.31988525390625,39.61100006103516,-2.55702066421509,-2.70011973381042,4.09375143051147,29.56055068969727,30.61426353454590,0.12061736732721
511,2187871618,6.80255651473999,-81.36200714111328,38.28516006469727,-1.88227665424347,-1.53992116451263,1.20335376262665,46.54534149169922,-4.82168054580688,-11.02738094329834
512,2187888285,9.56138610839844,-81.49256896972656,36.18051910400391,0.37798753380775,-0.42324453592300,-0.39649355411530,41.24900436401367,-11.54723739624023,-16.87740898132324
513,2187904952,10.46602821350098,-81.08226776123047,35.56645584106445,-0.21511808037758,-1.45630896091461,-0.50490504503250,18.45712852478027,22.16414260864258,-9.14344406127930
514,2187921619,10.67371273040771,-80.78763580322266,35.66877365112305,-3.33815693855286,-0.03845598921180,0.00757933966815,19.12368202209473,16.45441055297852,-1.66558480262756
515,2187938286,10.87648677825928,-80.87562561035156,35.64771270751953,-2.60508060455322,1.33054435253143,-0.75527793169022,11.51682758331299,-6.33616352081299,1.41852819919586
516,2187954953,10.01085567474365,-80.93228149414062,36.37519454956055,-0.57884490489960,0.71046012639999,0.03607534244657,-8.23867511749268,-3.19857954978943,8.03075695037842
517,2187971620,8.90611076354980,-80.96499633789062,37.51255416870117,0.62886548042297,0.45890074968338,-0.69042211771011,1.70066475868225,-1.28739738464355,11.54149055480957
518,2187988287,8.20563697814941,-80.90577697753906,38.05558395385742,1.46479773521423,0.57845395803452,0.11492472141981,-9.25812339782715,3.17109060287476,5.17862749099731
519,2188004954,8.32003116607666,-80.93690490722656,37.91080856323242,3.28507423400879,-0.02288167178631,0.83841282129288,-1.12234854698181,-3.15501070022583,-0.45116773247719
520,2188021621,8.43028354644775,-80.84496307373047,37.75445556640625,1.91122651100159,0.53148496150970,0.28892907500267,-2.05221748352051,4.13764810562134,-1.63708686828613
521,2188038288,9.00902652740479,-80.78488159179688,37.12433242797852,-0.30454656481743,-0.18244805932045,0.86679410934448,-2.00190186500549,1.54846084117889,-5.87199449539185
522,2188054955,10.66008472442627,-80.97698974609375,35.69408416748047,-1.76342654228210,-0.21337771415710,0.40873029828072,14.91550064086914,-14.79684352874756,-10.78796195983887
523,2188071622,12.29257583618164,-81.30473327636719,34.17758941650391,-1.91504299640656,-0.11194102466106,0.40236419439316,8.63259601593018,-23.16933059692383,-9.17495250701904
524,2188088289,13.95409202575684,-81.59695434570312,32.65834426879883,-1.13884103298187,0.49125140905380,0.43316692113876,10.13348865509033,-21.26286315917969,-8.57056522369385
525,2188104956,15.26562309265137,-81.92610168457031,31.48857307434082,-0.07319658249617,0.62192475795746,0.52692353725433,9.81928348541260,-22.75757217407227,-4.10422658920288
526,2188121623,15.77178668975830,-82.18415832519531,31.05713653564453,0.33779036998749,0.24405294656754,0.59139710664749,5.31601762771606,-16.99290657043457,1.33946239948273
527,2188138290,15.71981716156006,-82.36177825927734,31.05216407775879,0.14214959740639,-0.14657890796661,2.12578940391541,-2.82313561439514,-11.38228797912598,3.49635291099548
528,2188154957,16.15276908874512,-82.69284820556641,30.73163986206055,-0.79073983430862,-0.89686661958694,3.31282806396484,7.49345779418945,-20.91110992431641,3.69563746452332
529,2188171624,16.95465660095215,-83.12280273437500,30.17361450195312,-0.00747542735189,-0.05305281654000,2.21421957015991,15.46341037750244,-27.04007530212402,4.03437185287476
530,2188188291,17.40848541259766,-83.44228363037109,29.94067001342773,-0.10044582188129,0.08046399056911,3.52014660835266,13.93223667144775,-19.92804145812988,4.74611997604370
531,2188204958,16.71241760253906,-83.69367218017578,31.13200187683105,5.52079486846924,-1.60371875762939,4.35784673690796,29.84713745117188,-13.21042060852051,12.71896839141846
532,2188221625,11.78299331665039,-83.71736907958984,35.86513137817383,18.63835906982422,2.39901328086853,6.66171312332153,-12.89052772521973,5.14007329940796,31.13191986083984
533,2188238292,17.21168708801270,-85.35144042968750,30.98072433471680,65.21208190917969,-5.01621484756470,20.34575462341309,34.44248962402344,-103.06798553466797,-1.79604995250702
534,2188254959,18.06614112854004,-80.89596557617188,30.53998184204102,72.79183959960938,11.18514537811279,6.81409549713135,25.74869728088379,252.83836364746094,-83.42941284179688
535,2188271626,31.64027786254883,-85.92191314697266,19.14145088195801,-15.46638298034668,-0.92664921283722,-16.92829322814941,134.62930297851562,-306.63458251953125,55.80126571655273
536,2188288293,52.77032470703125,-88.46456146240234,-3.19434332847595,50.28981018066406,6.99704647064209,-22.53958702087402,-71.09501647949219,-156.19256591796875,53.69997787475586
537,2188304960,77.21504211425781,-89.08957672119141,-28.57391548156738,31.32592010498047,-1.85940730571747,-7.45484590530396,-55.38285446166992,-45.42861557006836,21.39007949829102
538,2188321627,156.00350952148438,-87.90239715576172,-107.65325164794922,29.13398933410645,-5.56088304519653,1.40083706378937,-14.19330024719238,-126.95827484130859,1.09569120407104
539,2188338294,144.34674072265625,-87.46967315673828,-96.26136016845703,25.27908706665039,-2.65954661369324,-6.52597475051880,-16.06574630737305,-10.03107643127441,-36.03345108032227
540,2188354961,93.53267669677734,-87.83147430419922,-46.07370758056641,11.01973819732666,-2.51431632041931,-2.79604244232178,-39.78062820434570,112.46935272216797,-39.49348068237305
541,2188371628,98.38159942626953,-87.35129547119141,-50.84543228149414,7.67418003082275,1.12970376014709,-2.59278082847595,5.56278467178345,-15.94861125946045,-26.93300437927246
542,2188388295,89.77165985107422,-87.18103027343750,-42.81954193115234,6.85540914535522,0.41076517105103,2.13032841682434,-35.06131744384766,21.00476837158203,-11.19855880737305
543,2188404962,91.68579864501953,-87.13461303710938,-44.73915481567383,7.30964517593384,-0.03083503432572,2.99955296516418,0.42096400260925,-6.77322864532471,-2.09493994712830
544,2188421629,77.90766143798828,-86.99000549316406,-31.13757896423340,2.29229331016541,0.40160825848579,2.20695734024048,-11.15751361846924,41.10747146606445,-4.18867635726929
545,2188438296,80.29423522949219,-86.92222595214844,-33.69776916503906,-4.05035114288330,-1.25517106056213,4.13906478881836,-9.58404827117920,-8.26501846313477,-4.92305850982666
546,2188454963,84.87616729736328,-87.00650787353516,-38.04758453369141,-0.04903307184577,-0.73420190811157,2.09700608253479,14.90938758850098,-15.37246131896973,3.88315415382385
547,2188471630,79.47220611572266,-87.04434967041016,-32.48618698120117,3.42244315147400,0.31391486525536,0.75763791799545,9.54606342315674,15.69657707214355,5.23245668411255
548,2188488297,67.95721435546875,-86.99925994873047,-21.21145057678223,3.71542835235596,0.92702990770340,2.43090677261353,-14.81381511688232,33.22914505004883,7.85189771652222
549,2188504964,64.86640167236328,-87.16786193847656,-18.47263526916504,6.63533926010132,1.10519874095917,2.00417780876160,-20.77867126464844,2.48687744140625,13.27436923980713
550,2188521631,67.55294036865234,-87.35018920898438,-21.53492164611816,11.69279098510742,0.47989949584007,0.92570018768311,-21.75724601745605,-13.51493263244629,7.16479253768921
551,2188538298,71.59255981445312,-87.28264617919922,-25.87899208068848,15.59237861633301,0.47429114580154,-0.18371868133545,-17.34243774414062,-11.03209972381592,-7.42545318603516
552,2188554965,73.18755340576172,-86.89865112304688,-27.80445671081543,13.64391708374023,-0.30007049441338,-0.04156830161810,-19.01879501342773,0.36123627424240,-23.19550895690918
553,2188571632,80.80134582519531,-86.65560913085938,-35.56080627441406,10.03167819976807,-0.15880022943020,-0.07668399810791,-7.16497802734375,-23.17715644836426,-19.45537567138672
554,2188588299,93.83348083496094,-86.59331512451172,-48.59946823120117,8.98418998718262,-0.25254228711128,-0.91309463977814,1.62791740894318,-46.67082977294922,-5.21903181076050
555,2188604966,105.81220245361328,-86.58895111083984,-60.55759811401367,8.93609619140625,-0.04403500631452,-1.46675002574921,3.17914009094238,-42.95276260375977,7.59998655319214
556,2188621633,112.25916290283203,-86.67822265625000,-66.94274139404297,9.65375328063965,-0.27710989117622,-0.44584468007088,5.00097322463989,-20.51000213623047,13.00731468200684
557,2188638300,116.45700836181641,-86.78984069824219,-71.11437225341797,10.05636692047119,0.04980451241136,0.18207727372646,2.59886550903320,-11.24889087677002,12.59462833404541
558,2188654967,120.62611389160156,-86.82806396484375,-75.32342529296875,10.73259449005127,0.38542953133583,-0.50235885381699,-1.38133239746094,-12.27141284942627,9.34376907348633
559,2188671634,121.37081146240234,-86.91390228271484,-76.10779571533203,10.35165596008301,0.22108432650566,-0.28199565410614,-1.71975839138031,-0.60997289419174,6.36081171035767
560,2188688301,121.82859802246094,-86.97845458984375,-76.57073211669922,9.40045356750488,-0.06096691265702,-0.28701904416084,0.32561430335045,-0.27608573436737,4.72491645812988
561,2188704968,122.83878326416016,-86.95445251464844,-77.54119110107422,9.71123790740967,0.01124605815858,-0.49150919914246,3.05846381187439,-4.44031381607056,1.03677654266357
562,2188721635,122.81950378417969,-86.94482421875000,-77.42683410644531,10.07572460174561,-0.15845525264740,-0.46030429005623,6.27803277969360,-1.06491875648499,-0.04592998325825
563,2188738302,122.33916473388672,-86.96268463134766,-76.76923370361328,10.08751296997070,-0.01431378535926,-0.39476162195206,11.16195487976074,1.27129960060120,0.40113347768784
564,2188754969,122.16707611083984,-86.95213317871094,-76.40105438232422,10.45933914184570,0.16813381016254,-0.34907290339470,12.32221221923828,-0.41579040884972,-0.53654152154922
565,2188771636,121.47193908691406,-86.94303131103516,-75.50172424316406,10.56121635437012,0.43673044443130,-0.59638059139252,12.75114822387695,1.07518315315247,-1.35873520374298
566,2188788303,119.04505920410156,-87.00284576416016,-72.88712310791016,10.03157711029053,0.80319690704346,-0.08256921172142,11.61498451232910,7.88577175140381,-0.41358777880669
567,2188804970,117.05859375000000,-87.02843475341797,-70.79283905029297,9.33562564849854,0.86615568399429,0.08833463490009,6.86836719512939,5.41562700271606,-1.07176995277405
568,2188821637,115.54453277587891,-87.04011535644531,-69.22655487060547,9.16179561614990,0.56484812498093,-0.37482035160065,3.57239556312561,3.58079695701599,-0.90504413843155
569,2188838304,112.86224365234375,-87.09444427490234,-66.46360015869141,9.27807044982910,0.55892801284790,0.00151155330241,5.18597078323364,7.99177885055542,0.16613681614399
570,2188854971,110.99729156494141,-87.13385772705078,-64.48249053955078,9.52562713623047,0.57126122713089,0.29247391223907,7.38926506042480,5.34941768646240,0.59868413209915
571,2188871638,110.28251647949219,-87.14672851562500,-63.63841629028320,9.75331497192383,0.36304536461830,0.11560022085905,8.27803802490234,1.56995630264282,0.47973871231079
572,2188888305,109.30396270751953,-87.14920043945312,-62.52127075195312,9.78810596466064,0.11079377681017,-0.06270283460617,8.80591011047363,2.10557579994202,-0.37320274114609
573,2188904972,107.70537567138672,-87.14083099365234,-60.74259567260742,9.54760932922363,-0.13207826018333,0.06952980905771,11.24462604522705,3.80314755439758,-1.50943374633789
574,2188921639,106.77851104736328,-87.11622619628906,-59.61246490478516,9.39355754852295,0.00904694665223,-0.05636337399483,12.68827056884766,1.72860205173492,-1.79000210762024
575,2188938306,107.74324798583984,-87.08100891113281,-60.33449172973633,9.29894638061523,0.35272321105003,-0.56564778089523,15.21646595001221,-3.77630758285522,-0.74881988763809
576,2188954973,108.42836761474609,-87.06468963623047,-60.79465484619141,9.82609272003174,0.37720844149590,-0.65120267868042,14.12322330474854,-2.69952297210693,0.13471010327339
577,2188971640,108.39813232421875,-87.06355285644531,-60.53620529174805,10.05403232574463,0.33346703648567,-0.36689054965973,14.25690174102783,-0.32821413874626,0.32222718000412
578,2188988307,109.15530395507812,-87.04939270019531,-61.04519271850586,9.86655235290527,0.20461158454418,-0.46046575903893,15.52464103698730,-2.81530570983887,0.31887844204903
579,2189004974,110.15679931640625,-87.02849578857422,-61.78729248046875,9.82524681091309,0.25558343529701,-0.70276242494583,16.21574783325195,-3.63806271553040,0.21906563639641
580,2189021641,110.06007385253906,-87.01915740966797,-61.43975067138672,9.95197868347168,0.37472024559975,-0.44542732834816,15.61087036132812,-0.23958140611649,-0.27344146370888
581,2189038308,109.79480743408203,-86.99814605712891,-60.91518020629883,9.81086730957031,0.38834625482559,-0.39887419342995,16.09131431579590,0.04945176839828,-1.11780321598053
582,2189054975,109.58933258056641,-86.98020935058594,-60.41335678100586,9.86073780059814,0.61765241622925,-0.64261621236801,18.32508659362793,0.06614486873150,-0.91201156377792
583,2189071642,109.00284576416016,-86.96752929687500,-59.59707641601562,9.97828769683838,0.66644769906998,-0.30555883049965,14.30298614501953,1.12154245376587,-0.94488519430161
584,2189088309,108.28318023681641,-86.94226074218750,-58.70174026489258,10.01470947265625,0.44182896614075,-0.27078887820244,11.04069137573242,1.16078078746796,-1.69824421405792
585,2189104976,106.55489349365234,-86.93624877929688,-56.82193756103516,9.72904777526855,0.37701702117920,-0.18396189808846,9.49440097808838,4.56546545028687,-1.50041174888611
586,2189121643,104.40123748779297,-86.94995880126953,-54.51208114624023,9.61161327362061,0.50817507505417,-0.01232863124460,9.74331951141357,6.26171922683716,-0.53928214311600
587,2189138310,103.22537994384766,-86.95959472656250,-53.18978500366211,9.63323688507080,0.71628999710083,0.14579716324806,9.25258445739746,3.16149854660034,0.19091072678566
588,2189154977,102.71501922607422,-86.98403167724609,-52.57007217407227,9.73033332824707,0.77307844161987,-0.07622925192118,7.08843660354614,1.18743681907654,1.63937282562256
589,2189171644,102.07601165771484,-87.04541015625000,-51.87446975708008,9.81036186218262,0.67953789234161,-0.05686417222023,3.92144560813904,1.85784280300140,3.78797769546509
590,2189188311,101.36578369140625,-87.11323547363281,-51.14833831787109,9.88560009002686,0.48829796910286,-0.02120417170227,1.47503530979156,1.94061005115509,4.18033838272095
591,2189204978,100.52922821044922,-87.16420745849609,-50.31575775146484,9.91755294799805,0.31032568216324,-0.05672342702746,0.27478584647179,1.96970641613007,3.18125081062317
592,2189221645,98.23326110839844,-87.20110321044922,-48.05138778686523,9.92382049560547,0.46850559115410,0.05143646895885,-1.49906671047211,5.87417078018188,1.76559889316559
593,2189238312,94.42300415039062,-87.22491455078125,-44.29204177856445,9.83048725128174,0.51658219099045,0.20153197646141,-2.77513694763184,9.95671653747559,0.86919921636581
594,2189254979,92.06402587890625,-87.22089385986328,-41.96852111816406,9.74482536315918,0.60124522447586,0.17346560955048,-1.72806334495544,5.64814472198486,0.01351710315794
595,2189271646,90.35891723632812,-87.21898651123047,-40.32888031005859,9.73589897155762,0.63607668876648,0.03810915350914,-3.46769738197327,3.69730854034424,0.43285465240479
596,2189288313,88.60967254638672,-87.23742675781250,-38.68618392944336,9.80423164367676,0.45882546901703,0.05992622673512,-5.93685722351074,3.68412470817566,1.77538919448853
597,2189304980,86.90859985351562,-87.26570129394531,-37.09243011474609,9.87943077087402,0.35979399085045,0.15729226171970,-5.96936035156250,3.44505572319031,2.50865507125854
598,2189321647,84.79369354248047,-87.28170776367188,-35.08266067504883,9.90192699432373,0.29513689875603,0.28014621138573,-5.87993383407593,4.57543420791626,2.02854537963867
599,2189338314,82.62084197998047,-87.27883148193359,-33.00559234619141,9.78914165496826,0.22845719754696,0.40433409810066,-5.31350803375244,4.82003498077393,1.10959970951080
600,2189354981,80.31003570556641,-87.25691223144531,-30.79011154174805,9.82504940032959,0.33966812491417,0.54650944471359,-5.30993604660034,5.38187599182129,0.28789320588112
601,2189371648,78.16369628906250,-87.23529815673828,-28.76704978942871,9.89428138732910,0.14014895260334,0.63297623395920,-6.96889019012451,4.89590692520142,0.44732588529587
602,2189388315,76.49024200439453,-87.21976470947266,-27.21413612365723,9.95390796661377,0.18110977113247,0.36954528093338,-6.75067663192749,3.53708243370056,0.68810445070267
603,2189404982,74.40697479248047,-87.19914245605469,-25.23909568786621,9.73672294616699,0.24029265344143,0.40222340822220,-6.06948089599609,4.81539964675903,0.90075391530991
604,2189421649,72.69664001464844,-87.17562103271484,-23.62176513671875,9.62072372436523,0.22630287706852,0.48757123947144,-5.10529041290283,3.90102577209473,0.61212432384491
605,2189438316,71.62677001953125,-87.15229034423828,-22.63483810424805,9.60873794555664,0.40010407567024,0.46133980154991,-4.48042964935303,2.15267705917358,0.21434625983238
606,2189454983,70.88536071777344,-87.12880706787109,-21.98364067077637,9.64902114868164,0.47355133295059,0.48333284258842,-4.86253309249878,1.24959886074066,-0.10150312632322
607,2189471650,70.45731353759766,-87.11425781250000,-21.65086746215820,9.63120079040527,0.43212184309959,0.50905066728592,-5.15756607055664,0.18202307820320,0.14343753457069
608,2189488317,70.01354217529297,-87.11263275146484,-21.29803276062012,9.66574764251709,0.36981424689293,0.47370260953903,-4.89484262466431,-0.01525236293674,0.89911460876465
609,2189504984,69.25399017333984,-87.10984802246094,-20.63623809814453,9.83642864227295,0.35298478603363,0.43712654709816,-5.33544492721558,0.87227249145508,1.18482422828674
610,2189521651,68.84488677978516,-87.10281372070312,-20.31872558593750,9.74471473693848,0.41606819629669,0.50765728950500,-4.92356777191162,0.00178648589645,0.57078540325165
611,2189538318,68.56942749023438,-87.08698272705078,-20.12259292602539,9.81426525115967,0.25595816969872,0.28280428051949,-4.18730449676514,-0.14987270534039,-0.03097856044769
612,2189554985,68.37991333007812,-87.06235504150391,-20.00971603393555,9.79830074310303,0.25799247622490,0.32621693611145,-4.02631616592407,-0.19046884775162,-0.60092514753342
613,2189571652,68.00089263916016,-87.02744293212891,-19.69257926940918,9.84846878051758,0.27912563085556,0.21037128567696,-3.13868212699890,0.64352542161942,-0.96379303932190
614,2189588319,67.17030334472656,-86.99319458007812,-18.91307830810547,9.76462554931641,0.40750440955162,0.37848803400993,-2.54019689559937,1.98684096336365,-0.34732741117477
615,2189604986,67.03144836425781,-86.99365234375000,-18.83332443237305,9.66728782653809,0.43819674849510,0.40019005537033,-2.95343923568726,-0.82390946149826,0.74823027849197
616,2189621653,67.01457977294922,-87.00539398193359,-18.87792968750000,9.82869720458984,0.39985886216164,0.41321635246277,-3.09761238098145,-1.45102345943451,1.23100399971008
617,2189638320,66.74004364013672,-87.00932312011719,-18.66356468200684,9.92654895782471,0.28398954868317,0.35289734601974,-3.04814171791077,-0.52740389108658,1.12241888046265
618,2189654987,66.24008178710938,-87.00546264648438,-18.21797943115234,9.83389949798584,0.32655328512192,0.43180021643639,-2.71686720848083,0.31812891364098,0.98385417461395
619,2189671654,65.72288513183594,-87.00016784667969,-17.74029350280762,9.78118801116943,0.24970132112503,0.41799646615982,-1.82789504528046,0.44630128145218,0.95021837949753
620,2189688321,65.32878112792969,-86.99391174316406,-17.38223457336426,9.73026371002197,0.37420400977135,0.48683345317841,-1.60488545894623,0.12668041884899,0.76617830991745
621,2189704988,64.93653869628906,-86.98221588134766,-17.02907943725586,9.76159191131592,0.33201614022255,0.55036228895187,-1.78662657737732,0.25457102060318,0.46682342886925
622,2189721655,64.57280731201172,-86.98001098632812,-16.69246864318848,9.83357715606689,0.37976175546646,0.54385626316071,-1.06596207618713,-0.02568953484297,0.95354157686234
623,2189738322,64.28865814208984,-86.99417114257812,-16.42880630493164,9.81029796600342,0.32641434669495,0.54963076114655,-0.66140311956406,-0.66717875003815,1.76100111007690
624,2189754989,64.03495025634766,-87.01450347900391,-16.17731094360352,9.79312324523926,0.20634856820107,0.48322921991348,0.43096569180489,-0.87413591146469,2.08043646812439
625,2189771656,63.89521789550781,-87.03562164306641,-16.02647972106934,9.80236530303955,0.25978198647499,0.47630268335342,1.23407745361328,-1.18472802639008,1.98331284523010
626,2189788323,63.75807571411133,-87.04799652099609,-15.87435340881348,9.81677627563477,0.37890392541885,0.39889895915985,1.47313356399536,-0.95276689529419,1.50791573524475
627,2189804990,63.57011413574219,-87.05709075927734,-15.67647266387939,9.74178314208984,0.47975993156433,0.43636885285378,1.16323268413544,-0.74809569120407,1.40153324604034
628,2189821657,63.55409240722656,-87.07209777832031,-15.65856933593750,9.73639678955078,0.47875273227692,0.37565058469772,0.69293248653412,-1.39842772483826,1.46766543388367
629,2189838324,63.42571640014648,-87.08765411376953,-15.53010368347168,9.81146144866943,0.44711959362030,0.39279761910439,0.57922482490540,-1.11703383922577,1.65371596813202
630,2189854991,63.29858016967773,-87.10288238525391,-15.40331268310547,9.78411865234375,0.44026839733124,0.43317279219627,0.56566280126572,-1.10750591754913,1.61487424373627
631,2189871658,63.16641616821289,-87.12043762207031,-15.26849555969238,9.78675937652588,0.42823666334152,0.41576215624809,0.73943221569061,-1.15957665443420,1.76186561584473
632,2189888325,63.06929016113281,-87.13774871826172,-15.15921211242676,9.81401062011719,0.40215814113617,0.44184920191765,1.29622030258179,-1.22702121734619,1.71644783020020
633,2189904992,62.97922897338867,-87.14892578125000,-15.05206203460693,9.85380744934082,0.30789956450462,0.47605630755424,1.60818302631378,-1.06736433506012,1.38071668148041
634,2189921659,62.84855270385742,-87.14858245849609,-14.90074062347412,9.82647037506104,0.27139756083488,0.52189594507217,1.80760335922241,-0.63850533962250,0.83051735162735
635,2189938326,62.77297592163086,-87.14165496826172,-14.79020977020264,9.79136466979980,0.28355237841606,0.49492478370667,2.68221950531006,-0.56066197156906,0.41056519746780
636,2189954993,62.84896850585938,-87.14234161376953,-14.82619094848633,9.82294845581055,0.30506411194801,0.57715165615082,2.97991561889648,-1.16098523139954,0.62626242637634
637,2189971660,62.99575042724609,-87.15249633789062,-14.93848609924316,9.82479763031006,0.34131291508675,0.45595166087151,2.67246747016907,-1.62009918689728,1.02564764022827
638,2189988327,62.89876937866211,-87.15566253662109,-14.80732440948486,9.84711170196533,0.32499289512634,0.39837810397148,2.62616610527039,-0.78499084711075,0.98197174072266
639,2190004994,62.92735290527344,-87.15599822998047,-14.79033756256104,9.80227088928223,0.31429201364517,0.48998039960861,3.32196044921875,-1.00905060768127,0.67616885900497
640,2190021661,62.89004135131836,-87.15744781494141,-14.69094944000244,9.85188579559326,0.32766973972321,0.45304748415947,4.30920171737671,-0.81819772720337,0.83719593286514
641,2190038328,62.75362014770508,-87.15167236328125,-14.50350189208984,9.85660362243652,0.38955748081207,0.42193689942360,3.62252616882324,-0.40169680118561,0.60137981176376
642,2190054995,62.77995681762695,-87.14768981933594,-14.47731399536133,9.78155708312988,0.34465786814690,0.39939653873444,3.74050498008728,-0.86271911859512,0.45307591557503
643,2190071662,62.67044830322266,-87.14241027832031,-14.30759429931641,9.76853084564209,0.30847576260567,0.44950664043427,4.18656873703003,-0.44954133033752,0.58324605226517
644,2190088329,62.61889648437500,-87.14103698730469,-14.18986797332764,9.74671363830566,0.27343443036079,0.50714564323425,4.55078220367432,-0.69662714004517,0.72649794816971
645,2190104996,62.60580825805664,-87.14062500000000,-14.10646057128906,9.78707695007324,0.28453475236893,0.46373626589775,4.79284048080444,-0.81769192218781,0.73672366142273
646,2190121663,62.55327224731445,-87.13781738281250,-13.97819614410400,9.83157634735107,0.29445874691010,0.40747675299644,5.12924480438232,-0.62144100666046,0.65059465169907
647,2190138330,62.44888305664062,-87.13064575195312,-13.79919910430908,9.86968326568604,0.28624594211578,0.40982466936111,5.05740022659302,-0.36941197514534,0.49657264351845
648,2190154997,62.05448150634766,-87.11697387695312,-13.32586193084717,9.83898067474365,0.36935317516327,0.42854481935501,5.27726078033447,0.58849668502808,0.57966029644012
649,2190171664,61.62500000000000,-87.10389709472656,-12.81980228424072,9.78392505645752,0.41980302333832,0.43813413381577,5.13244009017944,0.66696763038635,0.67002832889557
650,2190188331,61.24964141845703,-87.08234405517578,-12.37805461883545,9.83054161071777,0.33169910311699,0.43860495090485,4.54286050796509,0.75435811281204,0.13056075572968
651,2190204998,60.83515548706055,-87.05244445800781,-11.89496994018555,9.89511299133301,0.23500862717628,0.48655796051025,4.67431831359863,1.12236142158508,-0.22886870801449
652,2190221665,60.43854904174805,-87.01587677001953,-11.42255020141602,9.91417407989502,0.25726389884949,0.44598954916000,5.10008478164673,1.30709946155548,-0.56232690811157
653,2190238332,59.79168319702148,-86.97321319580078,-10.69996929168701,9.87354660034180,0.32368028163910,0.43739095330238,5.06814575195312,2.19309425354004,-0.45322957634926
654,2190254999,58.87784194946289,-86.92642211914062,-9.71152210235596,9.88111591339111,0.32371988892555,0.46627485752106,4.97949886322021,3.09275269508362,-0.17754723131657
655,2190271666,57.96364212036133,-86.88027191162109,-8.72389411926270,9.85697650909424,0.32988241314888,0.55201160907745,4.91984748840332,3.13387370109558,-0.06912867724895
656,2190288333,57.17635345458984,-86.84172821044922,-7.87369346618652,9.81893062591553,0.34565401077271,0.59642481803894,4.28567743301392,2.54580640792847,0.17851413786411
657,2190305000,56.49853897094727,-86.80929565429688,-7.13431978225708,9.76905059814453,0.33959850668907,0.59198766946793,4.20929431915283,2.07113289833069,0.34447804093361
658,2190321667,55.62487792968750,-86.77626800537109,-6.19814443588257,9.81007194519043,0.24603345990181,0.54256844520569,4.26235675811768,2.67036080360413,0.72657465934753
659,2190338334,54.49751281738281,-86.74111175537109,-5.00550413131714,9.82792949676514,0.22163338959217,0.59728813171387,4.38915205001831,3.46902871131897,1.21836400032043
660,2190355001,53.52476501464844,-86.70931243896484,-3.96938753128052,9.79820346832275,0.26397517323494,0.59366643428802,4.28008127212524,2.93850040435791,1.17635941505432
661,2190371668,52.72125244140625,-86.67951965332031,-3.10516715049744,9.82183456420898,0.29371312260628,0.57713651657104,4.14291191101074,2.41303014755249,0.99529039859772
662,2190388335,51.85281753540039,-86.64852905273438,-2.17293477058411,9.84381675720215,0.30722892284393,0.56965059041977,4.32167577743530,2.66596865653992,1.14366483688354
663,2190405002,50.55473709106445,-86.60086059570312,-0.82790410518646,9.80010890960693,0.27220106124878,0.61411088705063,3.27422571182251,4.44754314422607,1.36560523509979
664,2190421669,49.59411239624023,-86.56271362304688,0.17878982424736,9.73059654235840,0.31363031268120,0.55586475133896,3.24173617362976,3.17372131347656,1.19255304336548
665,2190438336,48.89590072631836,-86.53530883789062,0.92626756429672,9.72999572753906,0.36795106530190,0.56809151172638,3.47041797637939,2.07546091079712,1.14044380187988
666,2190455003,48.29677200317383,-86.52126312255859,1.56964933872223,9.74143886566162,0.36160650849342,0.61232966184616,3.16862416267395,1.26193785667419,1.54691743850708
667,2190471670,47.69454956054688,-86.51631164550781,2.20562505722046,9.75346469879150,0.35637813806534,0.58904176950455,2.53898692131042,0.86880832910538,1.96691453456879
668,2190488337,47.23605728149414,-86.51575469970703,2.69282531738281,9.77348995208740,0.31713771820068,0.66699993610382,2.26731944084167,0.29185032844543,1.80100178718567
669,2190505004,47.04061508178711,-86.52357482910156,2.92128014564514,9.74920177459717,0.30875116586685,0.72778260707855,2.53364038467407,-0.76369392871857,1.55645179748535
670,2190521671,47.00898361206055,-86.53632354736328,2.98379325866699,9.78691482543945,0.37630596756935,0.57521861791611,2.43215656280518,-1.39918982982635,1.35208177566528
671,2190538338,47.07197189331055,-86.54509735107422,2.92998266220093,9.79173564910889,0.35660430788994,0.59672641754150,1.14943397045135,-1.54929316043854,0.89618837833405
672,2190555005,47.19312286376953,-86.55849456787109,2.82214808464050,9.75351810455322,0.28959828615189,0.52483940124512,1.39067983627319,-1.88223242759705,0.97070842981339
673,2190571672,47.29421615600586,-86.57560729980469,2.73215293884277,9.74366950988770,0.27444028854370,0.57808512449265,1.26861631870270,-1.97564828395844,1.17163372039795
674,2190588339,47.53250885009766,-86.60333251953125,2.50412511825562,9.80120086669922,0.35618165135384,0.54072767496109,1.22307670116425,-2.76624822616577,1.31270837783813
675,2190605006,47.70669937133789,-86.62606048583984,2.33734345436096,9.83525848388672,0.38156753778458,0.51701712608337,1.05135011672974,-2.40179896354675,1.25452280044556
676,2190621673,47.86882781982422,-86.64666748046875,2.18070268630981,9.79590415954590,0.34824591875076,0.52599900960922,0.92129522562027,-2.28914785385132,1.19423699378967
677,2190638340,48.06892776489258,-86.66704559326172,1.98163723945618,9.82186412811279,0.31779322028160,0.52682781219482,0.67639303207397,-2.37603259086609,1.07933211326599
678,2190655007,48.15353775024414,-86.67893218994141,1.90034842491150,9.81307983398438,0.27892941236496,0.54719734191895,0.79192548990250,-1.73264801502228,0.98576247692108
679,2190671674,48.22808837890625,-86.68542480468750,1.82998490333557,9.81585597991943,0.27821472287178,0.59528249502182,0.83757996559143,-1.49342501163483,0.77812016010284
680,2190688341,48.46709060668945,-86.69334411621094,1.59340345859528,9.81802845001221,0.23181986808777,0.57057410478592,0.75941020250320,-1.96681213378906,0.44984230399132
681,2190705008,48.69128799438477,-86.70212554931641,1.38469719886780,9.80197429656982,0.21344204246998,0.63895148038864,1.53815782070160,-1.92855298519135,0.55587238073349
682,2190721675,48.85573959350586,-86.71580505371094,1.23855495452881,9.81752204895020,0.29124054312706,0.64861357212067,1.69951164722443,-1.96286773681641,0.92772400379181
683,2190738342,48.97729492187500,-86.72762298583984,1.13531410694122,9.84433746337891,0.29200446605682,0.60968405008316,1.69240403175354,-1.78156805038452,0.94864958524704
684,2190755009,49.10810470581055,-86.73253631591797,1.02389526367188,9.79669094085693,0.30367743968964,0.56959062814713,1.76248681545258,-1.52169537544250,0.61074763536453
