sep=,
DeviceTag:,Xsens_DOT_3
FirmwareVersion:,3.0.0
AppVersion:,2023.6.0
StartTime: ,2025-04-09_10:58:45_000 CEST
© Movella Technologies B. V. 2005-2025

PacketCounter,SampleTimeFine,Euler_X,Euler_Y,Euler_Z,Acc_X,Acc_Y,Acc_Z,Gyr_X,Gyr_Y,Gyr_Z
0,2179371448,140.81401062011719,-86.01277923583984,-150.84991455078125,0.00000000000000,0.00000000000000,0.00000000000000,0.00000000000000,0.00000000000000,0.00000000000000
1,2179388115,142.07351684570312,-85.94947814941406,-151.81925964355469,9.90293025970459,0.47496801614761,-1.33487868309021,18.67118835449219,-4.92311286926270,1.16479659080505
2,2179404782,143.67068481445312,-85.89067840576172,-153.06013488769531,9.68474960327148,0.61975884437561,-1.41237962245941,22.68132209777832,-5.41943931579590,2.43951797485352
3,2179421449,145.42160034179688,-85.79769897460938,-154.49592590332031,9.62714576721191,-0.33190861344337,-1.66361844539642,20.25942993164062,-7.56672096252441,2.19738745689392
4,2179438116,147.13803100585938,-85.71636962890625,-155.58967590332031,9.64161205291748,-0.26029181480408,-1.15777897834778,38.66016769409180,-6.15180587768555,1.66736364364624
5,2179454783,147.64233398437500,-85.68212127685547,-155.72732543945312,9.33988666534424,0.98347967863083,-0.51373147964478,23.13993072509766,-1.45506012439728,-0.25749775767326
6,2179471450,146.72734069824219,-85.69948577880859,-154.90243530273438,9.60280609130859,0.66205650568008,-0.21929709613323,-4.42032957077026,3.50314521789551,-2.23336338996887
7,2179488117,145.07580566406250,-85.75937652587891,-153.42631530761719,9.76711654663086,-0.04505180940032,-0.78168040513992,-9.64604187011719,7.26373195648193,-3.13327980041504
8,2179504784,143.58001708984375,-85.83914947509766,-151.93428039550781,9.93268966674805,0.46552479267120,-0.82949423789978,0.65716439485550,8.31074047088623,-2.22174882888794
9,2179521451,140.89268493652344,-86.00605010986328,-149.44412231445312,10.15628433227539,0.91805100440979,-0.29422196745872,-11.08344745635986,15.02278137207031,-1.95756793022156
10,2179538118,137.27821350097656,-86.22815704345703,-145.99285888671875,9.97522640228271,-0.15301972627640,-1.11806797981262,-9.14207077026367,19.83292388916016,-1.58266234397888
11,2179554785,133.27645874023438,-86.46083068847656,-142.04255676269531,10.39855670928955,1.47776138782501,0.53186297416687,-2.44848847389221,21.14364433288574,-0.63360798358917
12,2179571452,127.48487091064453,-86.70663452148438,-136.78157043457031,9.74897861480713,1.33860409259796,-0.52446269989014,-31.27213668823242,24.47406768798828,-0.67502653598785
13,2179588119,123.10221862792969,-86.86881256103516,-132.78599548339844,9.82175636291504,0.85857391357422,-0.65697252750397,-22.47812652587891,17.17877197265625,0.46695283055305
14,2179604786,120.41889953613281,-86.96371459960938,-130.20686340332031,9.82289791107178,0.36633464694023,-0.19443729519844,-5.35860204696655,10.68222332000732,0.78228265047073
15,2179621453,119.78743743896484,-87.01613616943359,-129.40870666503906,9.82458591461182,0.21204797923565,-0.09217811375856,11.05418395996094,4.33703279495239,1.77480089664459
16,2179638120,120.86469268798828,-87.04627227783203,-130.16294860839844,9.81378459930420,0.66745918989182,0.01641738042235,20.56317901611328,-0.51868355274200,3.09948062896729
17,2179654787,122.87792968750000,-87.05390167236328,-131.89646911621094,9.67502117156982,1.00596404075623,-0.40121069550514,18.04727363586426,-3.72907280921936,3.56385135650635
18,2179671454,125.89350128173828,-87.03403472900391,-134.60276794433594,9.68057727813721,0.28065738081932,-0.46253564953804,19.89968299865723,-7.01443338394165,4.10507583618164
19,2179688121,129.39872741699219,-86.98351287841797,-137.63713073730469,9.70641803741455,-0.02658990211785,-0.33298438787460,29.62448501586914,-8.80185985565186,3.76661038398743
20,2179704788,132.85462951660156,-86.89405059814453,-140.60328674316406,9.90484333038330,1.16467535495758,0.00118874944746,30.76619148254395,-10.10925483703613,2.57416892051697
21,2179721455,136.49945068359375,-86.74610900878906,-144.14091491699219,9.68829727172852,0.70872426033020,-0.33912387490273,7.88038825988770,-14.02169704437256,2.35713243484497
22,2179738122,140.57353210449219,-86.58097839355469,-147.84690856933594,9.81716346740723,0.41444212198257,0.47603565454483,23.58865356445312,-15.40367507934570,3.52260804176331
23,2179754789,143.80519104003906,-86.41417694091797,-150.93704223632812,10.22061061859131,1.18245005607605,0.90041708946228,9.96700763702393,-14.27193832397461,3.18548703193665
24,2179771456,147.09474182128906,-86.20832061767578,-154.22486877441406,9.69229030609131,0.04952162504196,-0.73684954643250,1.63528919219971,-16.77943420410156,3.83789396286011
25,2179788123,150.56318664550781,-85.95465087890625,-157.39636230468750,9.89100360870361,-0.04592355340719,-0.90565377473831,19.38739967346191,-19.17690658569336,3.62247157096863
26,2179804790,153.07276916503906,-85.70618438720703,-159.68112182617188,9.97202396392822,0.55038869380951,-0.54987961053848,14.97963428497314,-17.25743293762207,2.11318612098694
27,2179821457,155.01815795898438,-85.47013092041016,-161.49545288085938,10.20141696929932,-0.25412613153458,-1.01218473911285,9.31394863128662,-15.81645107269287,1.69298231601715
28,2179838124,156.73658752441406,-85.26203155517578,-162.90806579589844,10.06607913970947,-0.01368901692331,-1.45947992801666,19.74811172485352,-13.60842418670654,1.50111830234528
29,2179854791,158.45057678222656,-85.07371520996094,-164.16845703125000,10.11275482177734,0.09226074069738,-1.37236714363098,28.60937881469727,-12.28554344177246,1.93076193332672
30,2179871458,160.11840820312500,-84.93453979492188,-165.39283752441406,9.84358406066895,0.49402561783791,-0.92991453409195,28.01201820373535,-9.49686050415039,3.37014865875244
31,2179888125,161.29795837402344,-84.81912231445312,-166.24557495117188,9.89243125915527,0.45203539729118,-0.95264393091202,20.94104003906250,-7.46142768859863,2.36498451232910
32,2179904792,162.25480651855469,-84.69493103027344,-166.96379089355469,9.97719192504883,0.29609245061874,-0.80715292692184,15.62328243255615,-7.73255968093872,1.74806225299835
33,2179921459,163.14773559570312,-84.55820465087891,-167.72753906250000,9.84807205200195,0.22003033757210,-0.64003330469131,9.07812500000000,-8.51922321319580,2.00020551681519
34,2179938126,163.83905029296875,-84.43503570556641,-168.49369812011719,10.20472335815430,-0.02117163129151,-0.35607305169106,-3.15488386154175,-7.76172637939453,2.46589541435242
35,2179954793,163.07073974609375,-84.54612731933594,-168.39312744140625,10.08632278442383,0.16500446200371,-0.35615235567093,-38.95813369750977,7.11718702316284,1.67193567752838
36,2179971460,162.27207946777344,-84.58988952636719,-168.22274780273438,9.79675388336182,-0.00667242845520,-0.55061447620392,-36.61574554443359,3.36106109619141,0.18998949229717
37,2179988127,160.56773376464844,-84.75701141357422,-167.44044494628906,9.69962310791016,0.85301035642624,-0.47508150339127,-54.39052581787109,11.44386005401611,-0.61140739917755
38,2180004794,157.97297668457031,-84.86683654785156,-165.89521789550781,8.92767429351807,0.96042662858963,-1.97903680801392,-62.21659088134766,9.67987346649170,-5.18464660644531
39,2180021461,157.29835510253906,-84.67675018310547,-165.83033752441406,9.01285457611084,0.04217375442386,-2.54151320457458,-35.47616195678711,-9.83364486694336,-4.32131814956665
40,2180038128,158.57420349121094,-84.29841613769531,-167.39614868164062,9.06098270416260,-0.58053851127625,-2.10681772232056,-15.83618640899658,-23.83250999450684,0.19270412623882
41,2180054795,160.54617309570312,-83.90757751464844,-169.57765197753906,9.22170448303223,-0.05769746378064,-1.22807610034943,-10.75253582000732,-26.06887817382812,4.76212549209595
42,2180071462,162.26605224609375,-83.54251098632812,-171.80990600585938,9.33479976654053,0.40169605612755,-1.32944595813751,-28.80927467346191,-24.82378959655762,7.23842287063599
43,2180088129,163.78096008300781,-83.22277832031250,-173.92906188964844,9.54850769042969,0.29415306448936,-1.29801797866821,-34.28012084960938,-22.02973365783691,8.75745201110840
44,2180104796,164.85212707519531,-82.98205566406250,-175.67013549804688,9.47698116302490,0.49094232916832,-0.81558108329773,-38.30855941772461,-16.70445251464844,8.51650047302246
45,2180121463,165.87327575683594,-82.85716247558594,-177.27816772460938,9.56405448913574,-0.50524842739105,-0.93632137775421,-33.34896087646484,-9.66622543334961,9.95656681060791
46,2180138130,167.47375488281250,-82.83516693115234,-178.99014282226562,9.49294090270996,-0.69137644767761,-0.90183556079865,-4.76155710220337,-3.65447354316711,12.47918701171875
47,2180154797,169.49713134765625,-82.87456512451172,179.39939880371094,9.19251441955566,1.95807075500488,-1.24168908596039,26.65027999877930,0.49183568358421,12.57833862304688
48,2180171464,170.42808532714844,-82.93359375000000,178.50451660156250,9.61633872985840,2.58098983764648,-1.37343919277191,3.70401382446289,2.90113186836243,7.48560142517090
49,2180188131,171.23689270019531,-83.02031707763672,177.91891479492188,9.96772575378418,0.03559122607112,-1.63570535182953,14.78244209289551,5.03308629989624,5.42198991775513
50,2180204798,172.95852661132812,-83.09181213378906,177.06459045410156,9.89038848876953,-0.21814212203026,-1.82511806488037,53.54970169067383,3.96631383895874,7.07607316970825
51,2180221465,174.45785522460938,-83.22291564941406,176.48220825195312,9.84651184082031,0.20336610078812,-1.88722205162048,56.38958740234375,7.94442605972290,5.34507894515991
52,2180238132,175.65229797363281,-83.34601593017578,176.02366638183594,9.59656810760498,0.14499174058437,-1.87383902072906,45.47034072875977,7.65981149673462,4.18531942367554
53,2180254799,176.41390991210938,-83.45423126220703,175.69503784179688,9.39421081542969,0.27914175391197,-1.24447238445282,27.23298072814941,6.91656875610352,3.05279278755188
54,2180271466,176.51774597167969,-83.57752227783203,175.58460998535156,9.34760284423828,0.28638809919357,-0.93125391006470,0.78360146284103,7.91882658004761,1.54364562034607
55,2180288133,176.17507934570312,-83.73903656005859,175.49884033203125,9.36960315704346,-0.14855039119720,-1.19034636020660,-24.53977966308594,10.22025489807129,1.52770531177521
56,2180304800,175.96447753906250,-83.90027618408203,175.28195190429688,9.71345424652100,-0.40289112925529,-0.80423265695572,-24.44374847412109,10.13971614837646,2.40452003479004
57,2180321467,175.22268676757812,-84.22507476806641,175.48194885253906,9.71324729919434,0.27087220549583,-0.94869309663773,-31.43064308166504,20.10039901733398,0.59706699848175
58,2180338134,174.39787292480469,-84.50870513916016,175.97396850585938,9.69520759582520,0.21840234100819,-1.10579574108124,-18.97864151000977,17.78587722778320,-1.00731134414673
59,2180354801,173.87361145019531,-84.72139739990234,176.45976257324219,9.65695762634277,-0.01623330079019,-1.24546301364899,-1.30243229866028,13.54004096984863,-1.07902526855469
60,2180371468,173.70790100097656,-84.84722137451172,176.79573059082031,9.72946262359619,0.19037912786007,-0.95706272125244,11.26001071929932,8.28160953521729,-0.66616123914719
61,2180388135,173.64601135253906,-84.92329406738281,177.05989074707031,9.79502964019775,-0.05475078523159,-0.57294666767120,13.20060920715332,5.27771186828613,-0.56152045726776
62,2180404802,173.63478088378906,-84.96685791015625,177.19004821777344,9.73799133300781,-0.56248295307159,-0.76646137237549,8.23524665832520,3.25273036956787,-0.05459348484874
63,2180421469,173.78596496582031,-84.96542358398438,177.20368957519531,9.57640171051025,-0.99928581714630,-1.18011617660522,11.01142311096191,0.49639356136322,0.25437900424004
64,2180438136,173.74929809570312,-84.95069122314453,177.39999389648438,9.64999103546143,-0.47874256968498,-1.23631834983826,10.65457439422607,-0.17506287992001,-0.79481375217438
65,2180454803,173.33042907714844,-84.96923828125000,177.87310791015625,9.73871231079102,0.08991848677397,-1.20336914062500,4.27513742446899,1.96908533573151,-2.03002429008484
66,2180471470,172.52316284179688,-85.05173492431641,178.64714050292969,9.86631774902344,0.35060149431229,-0.90528929233551,-1.04402518272400,5.98935842514038,-3.07816052436829
67,2180488137,171.47607421875000,-85.24642944335938,179.50309753417969,9.92555999755859,0.61153322458267,-0.90515607595444,-10.52132225036621,12.74281024932861,-2.35379624366760
68,2180504804,170.66345214843750,-85.46331024169922,-179.77691650390625,10.11608791351318,-0.32036820054054,-1.41452872753143,-4.57010269165039,13.96940135955811,-1.11187374591827
69,2180521471,170.91819763183594,-85.70860290527344,-179.68652343750000,9.97634220123291,0.30526840686798,-0.97543340921402,21.82442283630371,15.15890789031982,2.26598024368286
70,2180538138,171.04574584960938,-85.96652984619141,-179.65773010253906,9.96615123748779,0.37155759334564,-0.69566535949707,10.50312137603760,15.86565876007080,2.62481188774109
71,2180554805,171.36732482910156,-86.19543457031250,-179.77017211914062,9.84995269775391,0.26606804132462,-0.79573827981949,13.69952869415283,14.05037212371826,2.87891626358032
72,2180571472,171.27412414550781,-86.40402984619141,-179.66146850585938,9.90199661254883,0.66715258359909,-0.15123073756695,2.04219746589661,13.02655506134033,1.80189907550812
73,2180588139,169.98120117187500,-86.75206756591797,-178.90057373046875,10.03337383270264,0.66425383090973,0.19217771291733,-30.87144851684570,21.57032394409180,1.02883529663086
74,2180604806,167.65327453613281,-87.17832183837891,-177.12692260742188,9.93773460388184,0.02235208451748,-0.81131881475449,-32.25403976440430,26.68920707702637,-0.26048275828362
75,2180621473,164.24545288085938,-87.61378479003906,-174.01362609863281,9.81546974182129,0.21587349474430,-0.81536024808884,-16.71448516845703,27.88688278198242,-1.60969996452332
76,2180638140,160.72100830078125,-87.91531372070312,-170.72451782226562,9.69927215576172,-0.18046201765537,-0.52429008483887,-13.12554645538330,20.06362342834473,-1.62530815601349
77,2180654807,156.72148132324219,-88.14480590820312,-166.81213378906250,9.78735065460205,-0.16579042375088,-0.30904027819633,-4.22389650344849,16.26259994506836,-2.27163100242615
78,2180671474,152.29438781738281,-88.31646728515625,-162.49468994140625,9.79250526428223,0.35648843646049,-0.09508449584246,-5.56447839736938,13.23366165161133,-2.56510090827942
79,2180688141,147.27932739257812,-88.44028472900391,-157.68263244628906,9.77062225341797,0.42826774716377,0.12402081489563,-11.16048526763916,11.11093139648438,-3.07663798332214
80,2180704808,142.02027893066406,-88.52993774414062,-152.73960876464844,9.54211044311523,0.72494655847549,0.18378749489784,-17.93684387207031,9.50099945068359,-3.04732680320740
81,2180721475,136.67015075683594,-88.57357788085938,-148.00044250488281,9.79533195495605,1.64010798931122,0.42469543218613,-35.62475585937500,7.25327491760254,-3.50531911849976
82,2180738142,131.95227050781250,-88.59430694580078,-144.23574829101562,9.86025714874268,0.61086356639862,0.43466159701347,-56.12474060058594,5.45443153381348,-2.73530030250549
83,2180754809,128.86834716796875,-88.61506652832031,-141.78915405273438,9.80565261840820,-1.12297999858856,-0.25334671139717,-37.14522933959961,4.11772966384888,-1.05932092666626
84,2180771476,128.25270080566406,-88.60534667968750,-141.26962280273438,9.59879779815674,-0.12077596038580,-0.12395948916674,-4.65776014328003,0.81852436065674,-0.56032907962799
85,2180788143,128.45617675781250,-88.55260467529297,-141.75860595703125,9.74872493743896,1.38439261913300,0.80126416683197,-15.98721885681152,-1.96893978118896,-1.66189444065094
86,2180804810,128.95034790039062,-88.46647644042969,-142.99089050292969,9.65215492248535,0.48211222887039,0.23644170165062,-43.14063262939453,-4.14121675491333,-2.39788937568665
87,2180821477,130.25553894042969,-88.36362457275391,-145.01145935058594,9.75468540191650,-0.07803565263748,-0.28694579005241,-41.74563980102539,-5.95016145706177,-2.18948960304260
88,2180838144,132.40003967285156,-88.25987243652344,-147.57948303222656,9.94478034973145,-0.75712174177170,-0.86854875087738,-24.21625900268555,-6.96570968627930,-1.25998115539551
89,2180854811,136.24047851562500,-88.16239929199219,-151.23291015625000,10.08687114715576,-0.91944724321365,-0.75273591279984,12.46230983734131,-8.44525527954102,1.00495982170105
90,2180871478,139.89186096191406,-88.05973052978516,-154.49113464355469,9.86921501159668,0.09648183733225,-0.39170905947685,24.82065582275391,-8.32597923278809,1.08518064022064
91,2180888145,143.46597290039062,-87.94481658935547,-157.68251037597656,9.72349262237549,-0.08023736625910,-1.15421915054321,24.19542884826660,-8.97273826599121,1.37023770809174
92,2180904812,147.27729797363281,-87.81968688964844,-160.99806213378906,10.04390335083008,0.19286671280861,-0.99891954660416,30.99105453491211,-9.76222705841064,2.19228243827820
93,2180921479,151.46974182128906,-87.70169067382812,-164.61412048339844,9.91246604919434,0.11619298160076,-0.50165641307831,35.86780166625977,-9.84293079376221,4.07404613494873
94,2180938146,155.06687927246094,-87.60501861572266,-167.58238220214844,9.68192577362061,0.18274842202663,-0.57987856864929,38.99578475952148,-7.87972736358643,4.28376770019531
95,2180954813,158.94717407226562,-87.51541137695312,-170.59848022460938,9.64269733428955,0.26579910516739,-0.56958800554276,53.13124847412109,-7.37077045440674,5.36858510971069
96,2180971480,162.65583801269531,-87.43654632568359,-173.46382141113281,9.81770515441895,0.87914508581161,-0.12730923295021,51.88648223876953,-6.39656543731689,5.95611858367920
97,2180988147,165.71473693847656,-87.38820648193359,-175.85690307617188,9.82735538482666,0.50073802471161,-0.30547544360161,41.21381378173828,-3.99095726013184,5.80795288085938
98,2181004814,168.35572814941406,-87.33986663818359,-177.83889770507812,9.79792785644531,0.16592772305012,-0.79918104410172,40.78448867797852,-3.46467685699463,5.04153871536255
99,2181021481,170.60197448730469,-87.27559661865234,-179.49749755859375,9.66525363922119,0.20248514413834,-0.57248353958130,36.49117279052734,-4.07644701004028,4.24442195892334
100,2181038148,172.31497192382812,-87.24381256103516,179.36279296875000,9.71067619323730,-0.20225562155247,-0.61110454797745,35.59858322143555,-1.79443371295929,3.29787397384644
101,2181054815,173.72546386718750,-87.25868988037109,178.50949096679688,10.09185886383057,0.29285106062889,-0.61587715148926,34.61716461181641,1.14278566837311,2.88498139381409
102,2181071482,174.90615844726562,-87.34398651123047,177.67921447753906,10.03234195709229,0.02439126372337,-0.72393339872360,22.20615768432617,5.41098070144653,3.18149375915527
103,2181088149,176.10646057128906,-87.47640228271484,176.78388977050781,9.89557075500488,-0.28817144036293,-0.58715045452118,19.48445129394531,8.26664733886719,3.38120841979980
104,2181104816,176.96571350097656,-87.62183380126953,176.23960876464844,9.93836307525635,0.14566662907600,-0.37099194526672,20.05026245117188,9.16411781311035,2.25613069534302
105,2181121483,177.61352539062500,-87.77288055419922,175.83459472656250,9.91100406646729,0.36307817697525,-0.37869974970818,15.71860504150391,9.52471542358398,1.73672890663147
106,2181138150,178.36277770996094,-87.94633483886719,175.15077209472656,9.62566566467285,0.25710740685463,-0.27694961428642,5.08802366256714,10.85644149780273,2.23540711402893
107,2181154817,179.68496704101562,-88.09484863281250,173.85830688476562,9.54359436035156,-0.15201890468597,-0.28863579034805,2.96109175682068,9.37498760223389,3.17940139770508
108,2181171484,-178.55931091308594,-88.21019744873047,172.19888305664062,9.63444995880127,-0.20289662480354,-0.14473932981491,6.96654844284058,7.43130302429199,3.49877977371216
109,2181188151,-176.79508972167969,-88.28229522705078,170.55941772460938,9.71807765960693,-0.01792961731553,-0.16955123841763,8.66324806213379,4.98491764068604,3.18921065330505
110,2181204818,-175.56182861328125,-88.31634521484375,169.38865661621094,9.62001609802246,0.07976489514112,-0.07315079122782,4.90181636810303,2.73685145378113,2.29327797889709
111,2181221485,-174.96766662597656,-88.31159210205078,168.83229064941406,9.66602420806885,-0.02405261993408,-0.24047888815403,3.40445947647095,0.33575049042702,1.34393048286438
112,2181238152,-174.72355651855469,-88.28320312500000,168.68130493164062,9.72260379791260,0.19022917747498,-0.10234966129065,6.72383975982666,-1.10158944129944,0.75308388471603
113,2181254819,-174.85906982421875,-88.23331451416016,168.83343505859375,9.63478565216064,0.43942883610725,-0.04839463904500,2.12040495872498,-2.45340204238892,0.32472416758537
114,2181271486,-175.05055236816406,-88.16229248046875,168.92614746093750,9.65311813354492,0.17399492859840,-0.10667777806520,-4.80072927474976,-3.65691757202148,0.52983075380325
115,2181288153,-175.77000427246094,-88.08133697509766,169.46704101562500,9.71271514892578,-0.12809044122696,-0.29211279749870,-9.60392093658447,-4.32450103759766,-0.34837123751640
116,2181304820,-176.86634826660156,-87.99729156494141,170.34223937988281,9.77620315551758,-0.10207969695330,-0.39765754342079,-12.17200469970703,-4.54606389999390,-1.14938318729401
117,2181321487,-178.23912048339844,-87.92651367187500,171.40061950683594,9.66333961486816,0.10256180167198,-0.47040686011314,-17.76828002929688,-3.75839924812317,-1.75512492656708
118,2181338154,-179.39279174804688,-87.85844421386719,172.21310424804688,9.70749282836914,0.01329338923097,-0.53306388854980,-19.37702941894531,-3.54628729820251,-1.38298499584198
119,2181354821,179.78396606445312,-87.79948425292969,172.72827148437500,9.90918922424316,0.14533567428589,-0.30361235141754,-17.37508392333984,-2.99329519271851,-0.82945537567139
120,2181371488,179.28262329101562,-87.74945068359375,173.00408935546875,9.98732852935791,-0.13032880425453,-0.42834162712097,-12.41221523284912,-2.41851878166199,-0.33350315690041
121,2181388155,179.24736022949219,-87.70152282714844,172.90815734863281,9.82302761077881,-0.07403463125229,-0.70256602764130,-6.74491262435913,-2.29943156242371,0.52860134840012
122,2181404822,179.59397888183594,-87.64765167236328,172.49473571777344,9.72930431365967,-0.00182045635302,-0.52478742599487,-2.87195158004761,-2.66888117790222,1.31515443325043
123,2181421489,-179.92474365234375,-87.62075805664062,171.83511352539062,9.81737327575684,0.12053759396076,-0.24916431307793,-9.51343059539795,-1.06684625148773,1.97022545337677
124,2181438156,-179.30595397949219,-87.60461425781250,170.96580505371094,9.75946807861328,-0.05832605436444,-0.46642601490021,-13.84217548370361,-0.40675559639931,2.52428054809570
125,2181454823,-178.60404968261719,-87.57602691650391,170.06036376953125,9.74372005462646,-0.00485372776166,-0.38732320070267,-11.02442741394043,-1.13906121253967,2.66101336479187
126,2181471490,-177.94525146484375,-87.53963470458984,169.18354797363281,9.77955532073975,0.08541490882635,-0.25720182061195,-11.93536949157715,-1.51989674568176,2.65203642845154
127,2181488157,-177.40321350097656,-87.50534820556641,168.37869262695312,9.84460353851318,-0.02724547684193,-0.33379390835762,-14.60578060150146,-1.41777908802032,2.51440668106079
128,2181504824,-176.88038635253906,-87.45447540283203,167.65618896484375,9.70926189422607,-0.05884988978505,-0.56500583887100,-10.82220268249512,-2.40477752685547,2.40108275413513
129,2181521491,-176.46568298339844,-87.36255645751953,167.13209533691406,9.62086772918701,-0.07042647898197,-0.57994437217712,-5.40594530105591,-4.84273481369019,2.07855415344238
130,2181538158,-176.20747375488281,-87.24259948730469,166.81648254394531,9.61921787261963,-0.04545797035098,-0.40760028362274,-2.30149340629578,-6.54444217681885,1.68717908859253
131,2181554825,-176.06462097167969,-87.11534118652344,166.63041687011719,9.70437717437744,-0.06120033189654,-0.42338076233864,-1.46207535266876,-7.02069759368896,1.39980447292328
132,2181571492,-176.00312805175781,-86.97734832763672,166.56405639648438,9.81004905700684,-0.10616447776556,-0.65915060043335,0.82980674505234,-7.66840553283691,1.11145675182343
133,2181588159,-175.88739013671875,-86.83591461181641,166.52185058593750,9.77711200714111,-0.08453163504601,-0.71208709478378,5.53568077087402,-7.88462781906128,1.07069432735443
134,2181604826,-175.69522094726562,-86.68979644775391,166.47778320312500,9.67258262634277,-0.00304634310305,-0.75567859411240,10.01413059234619,-8.17150592803955,1.12632560729980
135,2181621493,-175.53694152832031,-86.54622650146484,166.46151733398438,9.75554943084717,0.11862909048796,-0.59766769409180,9.65027332305908,-8.01795768737793,1.04823231697083
136,2181638160,-175.46676635742188,-86.41564941406250,166.47157287597656,9.82025623321533,0.08210111409426,-0.66848349571228,5.94097614288330,-7.24760198593140,0.91162675619125
137,2181654827,-175.40281677246094,-86.29361724853516,166.47122192382812,9.82690429687500,0.01633300445974,-0.57808470726013,4.94209289550781,-6.73256731033325,0.91808086633682
138,2181671494,-175.26974487304688,-86.17854309082031,166.40162658691406,9.77874755859375,-0.16547742486000,-0.72023379802704,4.93364095687866,-6.31705236434937,1.17121124267578
139,2181688161,-175.04289245605469,-86.06806945800781,166.28163146972656,9.81709957122803,-0.18373101949692,-0.90264862775803,7.54193782806396,-5.99669075012207,1.37971186637878
140,2181704828,-174.71102905273438,-85.96988677978516,166.09031677246094,9.84178924560547,-0.04613375291228,-0.94710677862167,9.59168434143066,-5.22960281372070,1.65296089649200
141,2181721495,-174.29232788085938,-85.89072418212891,165.80792236328125,9.80402946472168,-0.05042383819818,-0.93823719024658,9.38559150695801,-4.05318546295166,1.98336505889893
142,2181738162,-173.79510498046875,-85.83440399169922,165.45413208007812,9.86376762390137,-0.03394059091806,-0.83534818887711,9.81524372100830,-2.64962172508240,2.20714306831360
143,2181754829,-173.34167480468750,-85.80460357666016,165.11413574218750,9.89876079559326,-0.07263708859682,-0.90918260812759,7.99282312393188,-1.06803715229034,2.01394629478455
144,2181771496,-172.83691406250000,-85.79048156738281,164.71903991699219,9.76047611236572,-0.13770748674870,-0.92625546455383,7.76645708084106,-0.08187101036310,2.16262817382812
145,2181788163,-172.25123596191406,-85.78899383544922,164.24917602539062,9.72157573699951,-0.17973370850086,-0.86489439010620,8.16458129882812,0.72590893507004,2.39861059188843
146,2181804830,-171.68666076660156,-85.79397583007812,163.79026794433594,9.70897102355957,-0.08657272160053,-0.76008129119873,7.54023265838623,1.13208782672882,2.29321408271790
147,2181821497,-171.21504211425781,-85.80059051513672,163.38870239257812,9.75304412841797,-0.06588023155928,-0.71196949481964,5.39327383041382,1.20375239849091,2.02169394493103
148,2181838164,-170.81578063964844,-85.81282806396484,163.03039550781250,9.75676918029785,-0.11320132762194,-0.73266458511353,3.64947032928467,1.52754795551300,1.77018988132477
149,2181854831,-170.42243957519531,-85.82833862304688,162.68296813964844,9.77717113494873,-0.11909033358097,-0.75205200910568,3.93630766868591,1.70609426498413,1.68231284618378
150,2181871498,-170.11251831054688,-85.84654235839844,162.40072631835938,9.76295185089111,-0.13049559295177,-0.84341132640839,2.82319188117981,1.82964980602264,1.36139822006226
151,2181888165,-169.79307556152344,-85.85650634765625,162.13235473632812,9.63499450683594,-0.15686108171940,-0.77397567033768,4.24116230010986,1.33492767810822,1.37598478794098
152,2181904832,-169.51635742187500,-85.86871337890625,161.88476562500000,9.72808933258057,-0.11117444932461,-0.70606243610382,2.91090250015259,1.47031617164612,1.25378644466400
153,2181921499,-169.28276062011719,-85.88991546630859,161.66667175292969,9.83220386505127,-0.15530474483967,-0.80407959222794,2.11059546470642,1.97392594814301,1.02081346511841
154,2181938166,-169.02828979492188,-85.91486358642578,161.43530273437500,9.83010005950928,-0.09741379320621,-0.78522038459778,2.57882118225098,2.19574522972107,1.02450156211853
155,2181954833,-168.79617309570312,-85.94440460205078,161.21684265136719,9.76209831237793,-0.11863745003939,-0.70903837680817,1.98849952220917,2.46435785293579,0.90444201231003
156,2181971500,-168.52326965332031,-85.97571563720703,160.96533203125000,9.72949886322021,-0.17023403942585,-0.73639655113220,2.45500898361206,2.58936071395874,1.00684165954590
157,2181988167,-168.28024291992188,-85.99625396728516,160.74653625488281,9.68568992614746,-0.09183818101883,-0.64740753173828,2.61284756660461,1.96333491802216,0.97965371608734
158,2182004834,-168.19677734375000,-86.00825500488281,160.66329956054688,9.75818920135498,-0.09423375129700,-0.54867011308670,1.15543377399445,1.30392348766327,0.52893435955048
159,2182021501,-168.12155151367188,-86.01612091064453,160.57569885253906,9.73119258880615,-0.18729008734226,-0.60677796602249,0.38846138119698,1.08035004138947,0.59324771165848
160,2182038168,-168.01747131347656,-86.01222991943359,160.43458557128906,9.68973064422607,-0.13164544105530,-0.60024386644363,-1.06995773315430,0.44553932547569,0.95438683032990
161,2182054835,-167.95031738281250,-85.99571990966797,160.33100891113281,9.75249576568604,-0.07545247673988,-0.58640223741531,-1.06472003459930,-0.34104591608047,0.96337693929672
162,2182071502,-167.92016601562500,-85.98770141601562,160.19421386718750,9.79396152496338,-0.11205593496561,-0.63890969753265,-5.26964664459229,0.20194976031780,0.99226814508438
163,2182088169,-167.80285644531250,-85.98590087890625,159.94676208496094,9.76683139801025,-0.13266578316689,-0.68492269515991,-6.63147449493408,0.64804613590240,1.37209165096283
164,2182104836,-167.73257446289062,-85.98414611816406,159.71368408203125,9.67302322387695,-0.11533316969872,-0.72774058580399,-8.58292102813721,0.65884202718735,1.30766308307648
165,2182121503,-167.59208679199219,-86.00198364257812,159.31161499023438,9.75431251525879,-0.12159813940525,-0.63581472635269,-14.54070949554443,1.94599664211273,1.75415730476379
166,2182138170,-167.52284240722656,-86.01052093505859,159.02604675292969,9.83805751800537,-0.21394729614258,-0.65941870212555,-11.82990741729736,1.30414152145386,1.38894510269165
167,2182154837,-167.55453491210938,-86.01449584960938,158.86315917968750,9.82382869720459,-0.12270296365023,-0.66963046789169,-10.57653903961182,0.91682612895966,0.94829142093658
168,2182171504,-167.66610717773438,-86.01149749755859,158.76162719726562,9.67479801177979,-0.15004715323448,-0.76593250036240,-11.63255119323730,0.45017537474632,0.78465181589127
169,2182188171,-167.82890319824219,-85.98848724365234,158.76371765136719,9.69303894042969,-0.14927612245083,-0.70220643281937,-8.49257087707520,-0.80658257007599,0.61309772729874
170,2182204838,-168.06782531738281,-85.95441436767578,158.87817382812500,9.70131301879883,-0.17695647478104,-0.71557366847992,-6.32773303985596,-1.55802059173584,0.28361585736275
171,2182221505,-168.33139038085938,-85.90375518798828,159.09361267089844,9.74573326110840,-0.17189393937588,-0.80039733648300,-1.81372475624084,-2.60461926460266,0.05068112909794
172,2182238172,-168.61070251464844,-85.84131622314453,159.37477111816406,9.77374744415283,-0.10542916506529,-0.69311285018921,1.18779551982880,-3.37907099723816,-0.10994251817465
173,2182254839,-168.93238830566406,-85.78582763671875,159.66093444824219,9.75280857086182,-0.15246149897575,-0.78117549419403,-1.06194102764130,-2.95973968505859,-0.25287419557571
174,2182271506,-169.20521545410156,-85.72323608398438,159.94912719726562,9.73357677459717,-0.16707469522953,-0.81309443712234,2.20852589607239,-3.40173864364624,-0.22946420311928
175,2182288173,-169.44577026367188,-85.65647888183594,160.24366760253906,9.76574039459229,-0.14776149392128,-0.76971709728241,4.44169616699219,-3.61774301528931,-0.24894262850285
176,2182304840,-169.62750244140625,-85.59870147705078,160.48277282714844,9.78451442718506,-0.17496120929718,-0.88051688671112,4.55580186843872,-3.06335592269897,-0.11993148177862
177,2182321507,-169.74278259277344,-85.53827667236328,160.70935058593750,9.80159568786621,-0.17559711635113,-0.94229000806808,7.80024003982544,-3.20542979240417,-0.05990811809897
178,2182338174,-169.81309509277344,-85.47398376464844,160.94581604003906,9.77175521850586,-0.17763058841228,-0.97568851709366,11.00280475616455,-3.46192932128906,-0.07598010450602
179,2182354841,-169.86106872558594,-85.40386199951172,161.20831298828125,9.73767566680908,-0.10220208764076,-0.81647306680679,13.91478157043457,-3.80996870994568,-0.16278162598610
180,2182371508,-169.94393920898438,-85.33573913574219,161.50849914550781,9.78540515899658,-0.07085146754980,-0.83622795343399,14.24843788146973,-3.74714040756226,-0.39768868684769
181,2182388175,-170.03887939453125,-85.27267456054688,161.79417419433594,9.77779674530029,-0.07945322990417,-0.86783015727997,12.61718750000000,-3.41325259208679,-0.40893256664276
182,2182404842,-170.07682800292969,-85.21778869628906,162.00091552734375,9.72193336486816,-0.19528736174107,-0.90687787532806,11.25009632110596,-2.88228821754456,-0.11967541277409
183,2182421509,-170.07148742675781,-85.16795349121094,162.15263366699219,9.71392822265625,-0.22038388252258,-0.82560372352600,10.56214904785156,-2.52435016632080,0.08611632883549
184,2182438176,-170.09364318847656,-85.13655090332031,162.27308654785156,9.78636264801025,-0.13319770991802,-0.77885907888412,7.01159858703613,-1.42980337142944,0.05046342685819
185,2182454843,-170.15655517578125,-85.11629486083984,162.39744567871094,9.75966548919678,-0.13894446194172,-0.91654264926910,4.90040826797485,-0.76879084110260,-0.09876257926226
186,2182471510,-170.22370910644531,-85.10451507568359,162.51167297363281,9.75435161590576,-0.11751671135426,-0.87704759836197,3.95081710815430,-0.24700888991356,-0.13135474920273
187,2182488177,-170.26387023925781,-85.09507751464844,162.60263061523438,9.76841449737549,-0.10875887423754,-0.85094302892685,4.15293884277344,-0.09406263381243,-0.03597303479910
188,2182504844,-170.35342407226562,-85.08693695068359,162.73568725585938,9.78564739227295,-0.04610746726394,-0.79197216033936,3.73693752288818,-0.04986792057753,-0.26776793599129
189,2182521511,-170.46424865722656,-85.08303070068359,162.86476135253906,9.76143455505371,-0.10277206450701,-0.81043475866318,2.19753766059875,0.19027034938335,-0.28705433011055
190,2182538178,-170.57640075683594,-85.07721710205078,162.98492431640625,9.73526859283447,-0.19341482222080,-0.86241900920868,1.55576026439667,0.09431236982346,-0.22274085879326
191,2182554845,-170.72685241699219,-85.06426239013672,163.15011596679688,9.75324440002441,-0.13060280680656,-0.83034873008728,1.94499647617340,-0.37053894996643,-0.38416486978531
192,2182571512,-170.95594787597656,-85.04658508300781,163.36537170410156,9.73132801055908,-0.06744060665369,-0.77268815040588,0.24560658633709,-0.67556059360504,-0.60501044988632
193,2182588179,-171.18763732910156,-85.02480316162109,163.57627868652344,9.71122455596924,-0.13277964293957,-0.86018961668015,-0.16676428914070,-0.93182843923569,-0.55103158950806
194,2182604846,-171.41856384277344,-84.99868774414062,163.80072021484375,9.75511646270752,-0.07798552513123,-0.87865626811981,0.69879770278931,-1.19097769260406,-0.59543120861053
195,2182621513,-171.69403076171875,-84.96755981445312,164.05909729003906,9.72336006164551,-0.08814560621977,-0.86709254980087,0.07072306424379,-1.50706422328949,-0.74294757843018
196,2182638180,-171.97418212890625,-84.93302917480469,164.31452941894531,9.70940017700195,-0.16613347828388,-0.80430787801743,-0.31299999356270,-1.69951772689819,-0.72439116239548
197,2182654847,-172.27934265136719,-84.89443206787109,164.59234619140625,9.70099449157715,-0.16695129871368,-0.79450500011444,-0.81289589405060,-1.96349525451660,-0.79865527153015
198,2182671514,-172.60789489746094,-84.85383605957031,164.87901306152344,9.78595924377441,-0.14250092208385,-0.91624093055725,-1.48059320449829,-2.06781578063965,-0.87597990036011
199,2182688181,-172.92120361328125,-84.81507110595703,165.15742492675781,9.80987358093262,-0.06965691596270,-0.96895015239716,-1.00858962535858,-1.96544182300568,-0.87507069110870
200,2182704848,-173.23742675781250,-84.77918243408203,165.44216918945312,9.75738716125488,-0.07604862749577,-1.00261259078979,-0.67092466354370,-1.78620421886444,-0.96787834167480
201,2182721515,-173.48855590820312,-84.74800872802734,165.69013977050781,9.69002628326416,-0.10497443377972,-0.99554991722107,0.98201012611389,-1.47813451290131,-0.81653285026550
202,2182738182,-173.74806213378906,-84.72077178955078,165.92893981933594,9.75570869445801,-0.04885463416576,-0.92576700448990,0.28055512905121,-1.23912954330444,-0.84023737907410
203,2182754849,-173.99085998535156,-84.69440460205078,166.16415405273438,9.76727771759033,-0.11521552503109,-0.96255403757095,0.70918375253677,-1.16833615303040,-0.80817037820816
204,2182771516,-174.24584960937500,-84.67328643798828,166.40966796875000,9.73102664947510,-0.13239589333534,-1.00608718395233,0.51758784055710,-0.86479991674423,-0.90375685691833
205,2182788183,-174.49334716796875,-84.65503692626953,166.64349365234375,9.67448997497559,-0.11847209185362,-0.99100768566132,0.19051365554333,-0.68745762109756,-0.85969018936157
206,2182804850,-174.73866271972656,-84.63874816894531,166.86911010742188,9.79910278320312,-0.04094939306378,-0.94625079631805,-0.15516172349453,-0.55699938535690,-0.83565270900726
207,2182821517,-175.04559326171875,-84.62786865234375,167.14741516113281,9.80965518951416,-0.07447131723166,-0.97588610649109,-0.59732657670975,-0.24923717975616,-1.17832517623901
208,2182838184,-175.38468933105469,-84.62385559082031,167.45594787597656,9.79781341552734,-0.01877950876951,-0.94432580471039,-0.79586344957352,0.15728119015694,-1.38190770149231
209,2182854851,-175.69285583496094,-84.62677764892578,167.72814941406250,9.72064495086670,-0.06148485466838,-1.05168521404266,-1.34323227405548,0.58008271455765,-1.18941509723663
210,2182871518,-175.94656372070312,-84.62786865234375,167.96250915527344,9.73438739776611,-0.06411605328321,-0.99880212545395,-0.12237748503685,0.51292634010315,-0.98973882198334
211,2182888185,-176.18708801269531,-84.63249969482422,168.18960571289062,9.73467159271240,-0.08451719582081,-0.98057121038437,0.32177874445915,0.72243821620941,-0.97093904018402
212,2182904852,-176.41400146484375,-84.63937377929688,168.42433166503906,9.73227787017822,-0.08910634368658,-0.96237075328827,0.50817513465881,0.86968564987183,-0.91895800828934
213,2182921519,-176.64573669433594,-84.64881134033203,168.61505126953125,9.72991847991943,-0.04919562861323,-0.95977878570557,0.60912764072418,1.02101826667786,-0.96005356311798
214,2182938186,-176.92875671386719,-84.66189575195312,168.89271545410156,9.77568721771240,0.01213527470827,-0.91966354846954,-0.33245280385017,1.23902070522308,-1.16793906688690
215,2182954853,-177.22731018066406,-84.67961883544922,169.17707824707031,9.82280063629150,-0.06631534546614,-1.00937819480896,-0.39321896433830,1.51750755310059,-1.25605952739716
216,2182971520,-177.47325134277344,-84.70117950439453,169.41471862792969,9.73085594177246,0.00127753289416,-0.99760288000107,0.74095624685287,1.77328872680664,-1.06831848621368
217,2182988187,-177.71327209472656,-84.72608184814453,169.63194274902344,9.70359134674072,-0.02640782482922,-0.99425393342972,-0.22650590538979,1.96788144111633,-0.94230413436890
218,2183004854,-177.91682434082031,-84.75204467773438,169.82315063476562,9.79011631011963,-0.03357100859284,-0.91238367557526,0.47274002432823,2.04224801063538,-0.79650372266769
219,2183021521,-178.13716125488281,-84.77674865722656,170.03372192382812,9.83072280883789,0.01961985044181,-0.89524483680725,0.66317045688629,1.97495055198669,-0.89329421520233
220,2183038188,-178.43395996093750,-84.80269622802734,170.30702209472656,9.71776390075684,0.06566301733255,-0.80835705995560,-0.31232124567032,2.04710149765015,-1.21264612674713
221,2183054855,-178.75628662109375,-84.82259368896484,170.59179687500000,9.65751743316650,-0.09024254232645,-0.88498973846436,-0.67598325014114,1.68760168552399,-1.29469656944275
222,2183071522,-179.02653503417969,-84.83517456054688,170.85494995117188,9.69383144378662,-0.03497000783682,-0.93937247991562,0.61659371852875,1.25687289237976,-1.10992646217346
223,2183088189,-179.28341674804688,-84.84220123291016,171.07556152343750,9.74101638793945,-0.00052746036090,-0.92919033765793,0.51436060667038,0.93422943353653,-1.01664471626282
224,2183104856,-179.54919433593750,-84.84926605224609,171.33457946777344,9.72009277343750,-0.03220013156533,-0.91012930870056,-0.42221251130104,0.94287389516830,-0.97704768180847
225,2183121523,-179.79246520996094,-84.85623931884766,171.56936645507812,9.73836612701416,-0.03177638351917,-0.93033707141876,0.57189953327179,0.94199025630951,-0.94177895784378
226,2183138190,179.95286560058594,-84.86504364013672,171.80734252929688,9.73173141479492,0.10415167361498,-0.91934281587601,0.13390959799290,1.05828475952148,-0.96054029464722
227,2183154857,179.70851135253906,-84.87031555175781,172.04554748535156,9.73102092742920,0.06555171310902,-0.89802968502045,-0.15543067455292,0.84979742765427,-0.87518590688705
228,2183171524,179.47854614257812,-84.87860107421875,172.22882080078125,9.74964809417725,0.00406878953800,-0.92390960454941,-0.16123196482658,1.03752565383911,-0.79232889413834
229,2183188191,179.28614807128906,-84.88955688476562,172.40188598632812,9.78296661376953,0.02867212146521,-0.88350337743759,0.28011968731880,1.19759225845337,-0.62419426441193
230,2183204858,179.12286376953125,-84.90072631835938,172.53495788574219,9.77425384521484,0.01621250249445,-0.94040536880493,0.04984872043133,1.21057784557343,-0.44290763139725
231,2183221525,178.93766784667969,-84.91647338867188,172.69607543945312,9.77695941925049,0.06098105758429,-0.91678965091705,-0.17522928118706,1.49154913425446,-0.53143787384033
232,2183238192,178.75674438476562,-84.93891143798828,172.84249877929688,9.75872802734375,0.10744147747755,-0.91810506582260,-0.45618775486946,1.89729273319244,-0.46950635313988
233,2183254859,178.57861328125000,-84.96872711181641,172.98880004882812,9.77520656585693,0.07361782342196,-0.92635035514832,-0.72883504629135,2.33767747879028,-0.41096860170364
234,2183271526,178.44924926757812,-85.00327301025391,173.08583068847656,9.73509883880615,0.03867354616523,-0.96033453941345,0.06981381028891,2.61584377288818,-0.20733478665352
235,2183288193,178.30268859863281,-85.04362487792969,173.23085021972656,9.84076499938965,-0.00740099186078,-0.86504596471786,0.29891940951347,2.96392107009888,-0.29793974757195
236,2183304860,178.13052368164062,-85.08422851562500,173.39770507812500,9.81167602539062,-0.02200806327164,-0.88125628232956,1.07079660892487,2.98970007896423,-0.48443859815598
237,2183321527,177.93205261230469,-85.12339782714844,173.61308288574219,9.74109840393066,0.11373386532068,-0.86342948675156,0.50610059499741,2.91696000099182,-0.55997037887573
238,2183338194,177.75816345214844,-85.15693664550781,173.74983215332031,9.68416881561279,0.05267565324903,-0.87944984436035,0.62600642442703,2.56055927276611,-0.44183185696602
239,2183354861,177.60202026367188,-85.18911743164062,173.92089843750000,9.73202514648438,0.00150671554729,-0.86890769004822,1.87646985054016,2.49419736862183,-0.44886264204979
240,2183371528,177.49279785156250,-85.21820068359375,174.08618164062500,9.71982383728027,0.04283742234111,-0.81255996227264,2.32752203941345,2.30284452438354,-0.24922437965870
241,2183388195,177.35408020019531,-85.24642944335938,174.21492004394531,9.71892356872559,0.05413015186787,-0.80177503824234,0.68408328294754,2.24419140815735,-0.25480794906616
242,2183404862,177.19692993164062,-85.27209472656250,174.39057922363281,9.78741264343262,-0.01260182447731,-0.78977197408676,1.27422547340393,2.10262989997864,-0.39359036087990
243,2183421529,176.95062255859375,-85.30368041992188,174.57723999023438,9.80934429168701,0.03781288489699,-0.79589259624481,0.52597594261169,2.48279929161072,-0.74319088459015
244,2183438196,176.71815490722656,-85.33032989501953,174.83009338378906,9.71610355377197,0.12419147044420,-0.84306573867798,0.36610153317451,2.18273353576660,-0.66545629501343
245,2183454863,176.51544189453125,-85.35269927978516,175.01919555664062,9.69467258453369,0.06761632114649,-0.85070925951004,0.08055833727121,1.91899955272675,-0.49935796856880
246,2183471530,176.35174560546875,-85.37381744384766,175.16767883300781,9.74793148040771,-0.03001474030316,-0.78717201948166,1.03961312770844,1.83458006381989,-0.38357579708099
247,2183488197,176.18171691894531,-85.39653015136719,175.36596679687500,9.78224563598633,0.03302816674113,-0.81511902809143,1.93161380290985,1.95097696781158,-0.47202926874161
248,2183504864,175.99906921386719,-85.41580963134766,175.51847839355469,9.79488754272461,0.12443801015615,-0.81270354986191,1.36188483238220,1.74763786792755,-0.49207121133804
249,2183521531,175.80055236816406,-85.43283843994141,175.66728210449219,9.72957992553711,0.09433206170797,-0.81479120254517,0.76610779762268,1.60538470745087,-0.52252471446991
250,2183538198,175.60411071777344,-85.44847869873047,175.84959411621094,9.72211933135986,0.06862816214561,-0.78781765699387,1.38621699810028,1.53698611259460,-0.56182742118835
251,2183554865,175.41513061523438,-85.46080017089844,176.06155395507812,9.77047061920166,0.08506475389004,-0.75620746612549,1.96172153949738,1.34378957748413,-0.58111375570297
252,2183571532,175.25161743164062,-85.47368621826172,176.19728088378906,9.80262756347656,0.05972899869084,-0.78968322277069,1.54314601421356,1.35507190227509,-0.41885730624199
253,2183588199,175.09584045410156,-85.48677062988281,176.36791992187500,9.79269981384277,0.05048346146941,-0.84052509069443,1.84873116016388,1.37643289566040,-0.40191447734833
254,2183604866,174.90225219726562,-85.50255584716797,176.56120300292969,9.76449108123779,0.08091420680285,-0.83267170190811,1.63481390476227,1.55252027511597,-0.54269468784332
255,2183621533,174.69873046875000,-85.52092742919922,176.77980041503906,9.73082637786865,0.09706483781338,-0.80751740932465,1.86170387268066,1.71276605129242,-0.58755534887314
256,2183638200,174.51187133789062,-85.54482269287109,176.99821472167969,9.75708866119385,0.06811144202948,-0.85284614562988,1.77204668521881,2.03688168525696,-0.46309044957161
257,2183654867,174.33573913574219,-85.57459259033203,177.19689941406250,9.79781818389893,0.09610427916050,-0.85343378782272,2.49458074569702,2.40101742744446,-0.42290407419205
258,2183671534,174.16915893554688,-85.61251831054688,177.34275817871094,9.76925945281982,0.07338762283325,-0.82083129882812,2.54467988014221,2.86066389083862,-0.32283532619476
259,2183688201,174.00685119628906,-85.65485382080078,177.53149414062500,9.74310207366943,0.02737002074718,-0.79024183750153,2.66043567657471,3.15185379981995,-0.26822897791862
260,2183704868,173.84275817871094,-85.69598388671875,177.74418640136719,9.79633903503418,0.09528949111700,-0.73630070686340,3.31855463981628,3.07350492477417,-0.31968495249748
261,2183721535,173.60032653808594,-85.73460388183594,178.01228332519531,9.78734302520752,0.16840064525604,-0.70355957746506,2.54261779785156,2.94834876060486,-0.61193871498108
262,2183738202,173.36569213867188,-85.77149200439453,178.28016662597656,9.72807216644287,0.11685711890459,-0.70847791433334,2.35659265518188,2.85943365097046,-0.55337518453598
263,2183754869,173.16795349121094,-85.79826354980469,178.49812316894531,9.67495727539062,0.07109199464321,-0.71773773431778,2.59454703330994,2.23481678962708,-0.46251410245895
264,2183771536,173.00427246093750,-85.81549835205078,178.66531372070312,9.72820472717285,0.11711983382702,-0.63266903162003,3.23568439483643,1.65340852737427,-0.41840904951096
265,2183788203,172.82695007324219,-85.82463073730469,178.85974121093750,9.78272438049316,0.11337920278311,-0.58310639858246,2.09563755989075,1.17260706424713,-0.44934925436974
266,2183804870,172.61370849609375,-85.82674407958984,179.08221435546875,9.74398708343506,0.12208414822817,-0.61525833606720,1.24583375453949,0.77234452962875,-0.59383040666580
267,2183821537,172.40229797363281,-85.82036590576172,179.28129577636719,9.70729446411133,0.09432781487703,-0.70317924022675,0.73643553256989,0.26297196745872,-0.61420530080795
268,2183838204,172.18746948242188,-85.80782318115234,179.53482055664062,9.75633525848389,0.11043184995651,-0.66995072364807,1.40290367603302,-0.09317900240421,-0.73115295171738
269,2183854871,171.99920654296875,-85.79532623291016,179.76281738281250,9.77633953094482,0.12535142898560,-0.73256438970566,1.48349404335022,-0.09945411980152,-0.62557744979858
270,2183871538,171.82574462890625,-85.78109741210938,179.94070434570312,9.73465728759766,0.12036299705505,-0.76708281040192,1.47673201560974,-0.20230188965797,-0.57824504375458
271,2183888205,171.65582275390625,-85.76732635498047,-179.87825012207031,9.71729755401611,0.09437007457018,-0.78298169374466,1.11826980113983,-0.19910033047199,-0.53981328010559
272,2183904872,171.49325561523438,-85.75504302978516,-179.69955444335938,9.73828029632568,0.13116645812988,-0.71221476793289,1.69976770877838,-0.09333268553019,-0.54031276702881
273,2183921539,171.30981445312500,-85.74264526367188,-179.50860595703125,9.78167819976807,0.11279237270355,-0.72792869806290,1.18890953063965,-0.08044949173927,-0.59808212518692
274,2183938206,171.13375854492188,-85.73088836669922,-179.33753967285156,9.74503612518311,0.15796189010143,-0.73277330398560,0.76557004451752,-0.05853782966733,-0.53440898656845
275,2183954873,170.94204711914062,-85.72258758544922,-179.17906188964844,9.72811317443848,0.12750609219074,-0.79487287998199,0.15752451121807,0.14832955598831,-0.52993959188461
276,2183971540,170.76881408691406,-85.71202850341797,-179.00975036621094,9.76513481140137,0.12099539488554,-0.73352402448654,1.07074534893036,0.02798827551305,-0.53896796703339
277,2183988207,170.60412597656250,-85.70062255859375,-178.84617614746094,9.78102397918701,0.15517580509186,-0.67245644330978,1.13665950298309,-0.03809889033437,-0.51934874057770
278,2184004874,170.43984985351562,-85.68861389160156,-178.73701477050781,9.78493976593018,0.19519296288490,-0.68817317485809,0.42771285772324,-0.06819380819798,-0.47126081585884
279,2184021541,170.26586914062500,-85.67527770996094,-178.57675170898438,9.72818470001221,0.16672636568546,-0.73954892158508,-0.03812450170517,-0.15016724169254,-0.49857676029205
280,2184038208,170.12510681152344,-85.66036224365234,-178.45236206054688,9.76124763488770,0.12454520165920,-0.76871985197067,0.24846237897873,-0.26199230551720,-0.39083698391914
281,2184054875,170.00759887695312,-85.64373779296875,-178.33941650390625,9.76701641082764,0.14736077189445,-0.73343586921692,0.90786129236221,-0.36864355206490,-0.35746362805367
282,2184071542,169.86338806152344,-85.62735748291016,-178.20893859863281,9.76406478881836,0.16351135075092,-0.74001026153564,0.26548200845718,-0.33927860856056,-0.43136906623840
283,2184088209,169.72369384765625,-85.60929870605469,-178.08651733398438,9.74250411987305,0.15270762145519,-0.77154886722565,0.24025350809097,-0.44610917568207,-0.43094646930695
284,2184104876,169.61785888671875,-85.59185028076172,-178.00776672363281,9.75460243225098,0.15016852319241,-0.80730378627777,0.32280325889587,-0.42682284116745,-0.28019011020660
285,2184121543,169.50646972656250,-85.57747650146484,-177.92140197753906,9.77151775360107,0.16631509363651,-0.75784480571747,0.30327355861664,-0.24422989785671,-0.27482426166534
286,2184138210,169.39624023437500,-85.56681823730469,-177.82569885253906,9.76159477233887,0.11528270691633,-0.73345816135406,0.20424206554890,-0.03461556509137,-0.22512282431126
287,2184154877,169.26548767089844,-85.55406188964844,-177.69265747070312,9.73116397857666,0.14035898447037,-0.74393337965012,0.10935982316732,-0.12894712388515,-0.33623069524765
288,2184171544,169.15603637695312,-85.53910827636719,-177.60881042480469,9.76399707794189,0.15647336840630,-0.76888811588287,-0.20742444694042,-0.28688782453537,-0.24246262013912
289,2184188211,169.06579589843750,-85.52210235595703,-177.50857543945312,9.74427795410156,0.19164894521236,-0.77884072065353,0.28319323062897,-0.41099414229393,-0.21701638400555
290,2184204878,168.98023986816406,-85.50350952148438,-177.44223022460938,9.73520469665527,0.14161780476570,-0.77291852235794,0.54613316059113,-0.50912922620773,-0.23780108988285
291,2184221545,168.90032958984375,-85.48555755615234,-177.36007690429688,9.76188373565674,0.19652689993382,-0.77192431688309,0.39647823572159,-0.47492349147797,-0.19473336637020
292,2184238212,168.80522155761719,-85.46741485595703,-177.31332397460938,9.77107429504395,0.18708570301533,-0.77245718240738,-0.16985061764717,-0.47412949800491,-0.22481547296047
293,2184254879,168.66184997558594,-85.45231628417969,-177.18728637695312,9.75059986114502,0.14640869200230,-0.80334424972534,-0.98030048608780,-0.27274963259697,-0.35782220959663
294,2184271546,168.56221008300781,-85.43932342529297,-177.10768127441406,9.71551132202148,0.14215767383575,-0.83485138416290,-0.08193503320217,-0.17306503653526,-0.20067551732063
295,2184288213,168.48999023437500,-85.42552185058594,-177.08807373046875,9.74537563323975,0.17290604114532,-0.77450281381607,0.55404752492905,-0.22727428376675,-0.13158524036407
296,2184304880,168.39602661132812,-85.41140747070312,-177.01463317871094,9.79734516143799,0.15393069386482,-0.75764453411102,-0.00877234805375,-0.23882560431957,-0.19674393534660
297,2184321547,168.29916381835938,-85.39542388916016,-176.92112731933594,9.75158023834229,0.20655457675457,-0.76625961065292,0.03723445534706,-0.33630749583244,-0.23782669007778
298,2184338214,168.20019531250000,-85.37590026855469,-176.86064147949219,9.72843170166016,0.14935672283173,-0.81800019741058,-0.23751935362816,-0.55620539188385,-0.27417117357254
299,2184354881,168.08717346191406,-85.35894775390625,-176.76527404785156,9.73018455505371,0.20342516899109,-0.78758484125137,-0.24621489644051,-0.38835257291794,-0.31244936585426
300,2184371548,168.01139831542969,-85.34204864501953,-176.70991516113281,9.76228046417236,0.15796847641468,-0.77986359596252,0.21415418386459,-0.40332314372063,-0.17104159295559
301,2184388215,167.95046997070312,-85.32471466064453,-176.58079528808594,9.75703525543213,0.16880634427071,-0.77451902627945,0.70297259092331,-0.44476455450058,-0.14988553524017
302,2184404882,167.85346984863281,-85.30648040771484,-176.50115966796875,9.75912284851074,0.19239637255669,-0.80393499135971,0.44251704216003,-0.46260380744934,-0.31458801031113
303,2184421549,167.78730773925781,-85.28557586669922,-176.44549560546875,9.72893238067627,0.17780545353889,-0.78940844535828,0.35849454998970,-0.65069061517715,-0.19550171494484
304,2184438216,167.70172119140625,-85.26182556152344,-176.36819458007812,9.73347568511963,0.17974354326725,-0.79333066940308,-0.22635225951672,-0.80484074354172,-0.28161165118217
305,2184454883,167.61189270019531,-85.23564910888672,-176.29493713378906,9.78187847137451,0.16842555999756,-0.80770045518875,0.23400405049324,-0.94329011440277,-0.37602007389069
306,2184471550,167.51855468750000,-85.21411132812500,-176.14582824707031,9.75581359863281,0.23972384631634,-0.82740551233292,0.03337974846363,-0.65417391061783,-0.31936472654343
307,2184488217,167.45178222656250,-85.19270324707031,-176.05683898925781,9.74712467193604,0.18549786508083,-0.86392229795456,-0.19803740084171,-0.69507741928101,-0.17401269078255
308,2184504884,167.41778564453125,-85.17148590087891,-176.01521301269531,9.75236034393311,0.19984570145607,-0.81897896528244,0.74647575616837,-0.69193989038467,-0.08700634539127
309,2184521551,167.36613464355469,-85.14885711669922,-175.94194030761719,9.75703716278076,0.18917483091354,-0.80399620532990,0.51729321479797,-0.75682961940765,-0.17534454166889
310,2184538218,167.32019042968750,-85.12467956542969,-175.90684509277344,9.78409767150879,0.16551604866982,-0.78503727912903,0.87111997604370,-0.85365849733353,-0.19949732720852
311,2184554885,167.21125793457031,-85.10475158691406,-175.80897521972656,9.73582363128662,0.17187964916229,-0.85317939519882,-0.00653123809025,-0.55173593759537,-0.38876232504845
312,2184571552,167.10096740722656,-85.08953094482422,-175.71517944335938,9.75149917602539,0.18235822021961,-0.90381455421448,0.15374663472176,-0.25510248541832,-0.34732103347778
313,2184588219,166.98262023925781,-85.08199310302734,-175.52317810058594,9.76063728332520,0.17125734686852,-0.91358530521393,0.74020069837570,0.20317916572094,-0.34038001298904
314,2184604886,166.87942504882812,-85.07729339599609,-175.42030334472656,9.75870800018311,0.15614175796509,-0.83546417951584,1.38882946968079,0.36619117856026,-0.28027975559235
315,2184621553,166.76832580566406,-85.07308197021484,-175.28572082519531,9.76340961456299,0.21063208580017,-0.82908707857132,1.46564197540283,0.40925893187523,-0.31956967711449
316,2184638220,166.64627075195312,-85.07121276855469,-175.12609863281250,9.72967147827148,0.12089603394270,-0.86740547418594,0.77471375465393,0.54261142015457,-0.28760498762131
317,2184654887,166.65077209472656,-85.07037353515625,-175.08522033691406,9.74385547637939,0.00997295510024,-0.94182533025742,3.81020307540894,0.51807451248169,0.11181864887476
318,2184671554,166.68589782714844,-85.07033538818359,-175.07669067382812,9.70764160156250,0.16260710358620,-0.87109225988388,6.01724958419800,0.56891578435898,0.09102113544941
319,2184688221,166.67933654785156,-85.07240295410156,-174.99874877929688,9.76396656036377,0.30639371275902,-0.74233752489090,4.90383958816528,0.72038912773132,0.00247802864760
320,2184704888,166.60232543945312,-85.07757568359375,-174.91264343261719,9.85809707641602,0.27290257811546,-0.81367516517639,1.88951909542084,0.92304956912994,-0.05591252446175
321,2184721555,166.51208496093750,-85.08430480957031,-174.79058837890625,9.74965572357178,0.28971025347710,-0.83675056695938,2.36816930770874,1.03750002384186,-0.13956359028816
322,2184738222,166.44853210449219,-85.09048461914062,-174.68707275390625,9.68870067596436,0.30035644769669,-0.83926880359650,2.64063739776611,0.98231738805771,-0.03469239920378
323,2184754889,166.40695190429688,-85.09463500976562,-174.62559509277344,9.70752716064453,0.32928341627121,-0.83246570825577,2.14311051368713,0.83509570360184,0.09194318950176
324,2184771556,166.40541076660156,-85.09436035156250,-174.64439392089844,9.71406555175781,0.23793388903141,-0.80069875717163,1.60578191280365,0.51990580558777,0.27655956149101
325,2184788223,166.40847778320312,-85.09120941162109,-174.60769653320312,9.76633167266846,0.17535410821438,-0.78448152542114,1.59808504581451,0.33034619688988,0.25536501407623
326,2184804890,166.40541076660156,-85.08661651611328,-174.60916137695312,9.77431678771973,0.20162172615528,-0.79284679889679,1.17162096500397,0.24983268976212,0.24181590974331
327,2184821557,166.35783386230469,-85.07940673828125,-174.60772705078125,9.73536586761475,0.21626040339470,-0.81869399547577,0.62448239326477,0.14131166040897,0.02745040878654
328,2184838224,166.31909179687500,-85.07157135009766,-174.54327392578125,9.74186038970947,0.22497563064098,-0.81340479850769,0.34585469961166,0.09089305996895,0.08523266017437
329,2184854891,166.30430603027344,-85.06286621093750,-174.52587890625000,9.76081562042236,0.24289251863956,-0.83440393209457,1.16817593574524,0.02939697355032,0.12479146569967
330,2184871558,166.27914428710938,-85.05708312988281,-174.51608276367188,9.78369235992432,0.27580326795578,-0.83123952150345,0.80200409889221,0.20671369135380,0.14537127315998
331,2184888225,166.25906372070312,-85.04971313476562,-174.48663330078125,9.74248600006104,0.24642191827297,-0.84337377548218,0.90667039155960,0.10051063448191,0.13652209937572
332,2184904892,166.24928283691406,-85.04386138916016,-174.48548889160156,9.74827957153320,0.20410130918026,-0.81272172927856,0.27942812442780,0.17362207174301,0.26571252942085
333,2184921559,166.24844360351562,-85.03659057617188,-174.51582336425781,9.75774955749512,0.22492913901806,-0.82169085741043,0.74519509077072,0.08247929811478,0.25170239806175
334,2184938226,166.24127197265625,-85.02960968017578,-174.50595092773438,9.75930118560791,0.24694068729877,-0.82679051160812,0.30898520350456,0.09362081438303,0.25723475217819
335,2184954893,166.24398803710938,-85.02346801757812,-174.52958679199219,9.75682353973389,0.23691301047802,-0.85027903318405,0.37130084633827,0.13971085846424,0.31770631670952
336,2184971560,166.27319335937500,-85.01760864257812,-174.57189941406250,9.73265933990479,0.19910860061646,-0.86285054683685,1.01597261428833,0.13298754394054,0.40069147944450
337,2184988227,166.30433654785156,-85.01135253906250,-174.58193969726562,9.74780559539795,0.22299812734127,-0.81057226657867,1.20062720775604,0.11089657992125,0.38849982619286
338,2185004894,166.30171203613281,-85.00186157226562,-174.57179260253906,9.71579360961914,0.20821028947830,-0.82468384504318,0.66390037536621,-0.04985512048006,0.21592144668102
339,2185021561,166.29495239257812,-84.99375152587891,-174.56263732910156,9.74036216735840,0.23235334455967,-0.84266173839569,-0.05961356312037,0.02524771913886,0.27719986438751
340,2185038228,166.26953125000000,-84.99042510986328,-174.56877136230469,9.76014900207520,0.17156854271889,-0.89351183176041,-0.03930268809199,0.32901436090469,0.24857766926289
341,2185054895,166.25669860839844,-84.99477386474609,-174.58316040039062,9.77719497680664,0.12506794929504,-0.93062978982925,0.48626348376274,0.76988565921783,0.37866452336311
342,2185071562,166.24479675292969,-85.00432586669922,-174.54855346679688,9.75390911102295,0.18172769248486,-0.92302280664444,1.84449219703674,1.10031521320343,0.33910575509071
343,2185088229,166.21212768554688,-85.01552581787109,-174.51025390625000,9.72597694396973,0.29310423135757,-0.84161651134491,1.32363235950470,1.21025776863098,0.30245399475098
344,2185104896,166.17599487304688,-85.02283477783203,-174.47712707519531,9.69605255126953,0.22460143268108,-0.80921775102615,0.99776184558868,0.98320114612579,0.25837451219559
345,2185121563,166.13389587402344,-85.02787780761719,-174.44528198242188,9.73268222808838,0.19853587448597,-0.80191260576248,0.92498338222504,0.85404902696609,0.20141185820103
346,2185138230,166.10466003417969,-85.03051757812500,-174.40863037109375,9.75736045837402,0.17659287154675,-0.77590566873550,1.18186593055725,0.70184552669525,0.21064524352551
347,2185154897,166.05657958984375,-85.02953338623047,-174.39607238769531,9.79897212982178,0.17991898953915,-0.79319560527802,0.63285773992538,0.51140236854553,0.11189547181129
348,2185171564,166.01634216308594,-85.02732849121094,-174.35575866699219,9.77283668518066,0.23236717283726,-0.83840340375900,1.30517828464508,0.44165897369385,0.07552544772625
349,2185188231,165.96351623535156,-85.02547454833984,-174.30117797851562,9.70736408233643,0.26562914252281,-0.88157713413239,0.89382559061050,0.45716750621796,0.04835037514567
350,2185204898,165.92080688476562,-85.02287292480469,-174.26885986328125,9.70213890075684,0.24962872266769,-0.84832590818405,1.24133872985840,0.42314097285271,0.06330818682909
351,2185221565,165.90995788574219,-85.02039337158203,-174.27485656738281,9.75578975677490,0.22511637210846,-0.81564813852310,1.59958362579346,0.38762900233269,0.19449643790722
352,2185238232,165.91450500488281,-85.01076507568359,-174.27032470703125,9.73237895965576,0.17527338862419,-0.84622251987457,2.14834833145142,-0.03507659211755,0.12060379981995
353,2185254899,165.92356872558594,-84.99468994140625,-174.25617980957031,9.71834754943848,0.19479566812515,-0.77646893262863,2.05846071243286,-0.40653762221336,0.06010660529137
354,2185271566,165.92575073242188,-84.97414398193359,-174.24914550781250,9.75757694244385,0.24975727498531,-0.78526145219803,1.05458366870880,-0.69205510616302,0.04206245765090
355,2185288233,165.90345764160156,-84.94782257080078,-174.22692871093750,9.76799201965332,0.33720839023590,-0.74913603067398,0.32673481106758,-1.00651514530182,-0.10421807318926
356,2185304900,165.87048339843750,-84.91669464111328,-174.22796630859375,9.70462989807129,0.27029192447662,-0.77797883749008,-1.04352545738220,-1.30480062961578,-0.11235010623932
357,2185321567,165.90164184570312,-84.87761688232422,-174.27116394042969,9.70996093750000,0.24607945978642,-0.77286285161972,0.61920619010925,-1.80970370769501,-0.03870078548789
358,2185338234,165.97337341308594,-84.82997894287109,-174.35006713867188,9.74198246002197,0.22405357658863,-0.78652971982956,0.66415649652481,-2.36605000495911,0.04893946647644
359,2185354901,166.04121398925781,-84.77111816406250,-174.42321777343750,9.72161769866943,0.18395645916462,-0.83517551422119,0.28788036108017,-3.01978874206543,-0.09314058721066
360,2185371568,166.13856506347656,-84.70195007324219,-174.49406433105469,9.68295574188232,0.17348560690880,-0.89160370826721,0.52291524410248,-3.66997933387756,-0.09763560444117
361,2185388235,166.26545715332031,-84.62210845947266,-174.63053894042969,9.67380332946777,0.23253937065601,-0.86007845401764,1.17309367656708,-4.30044937133789,-0.12678286433220
362,2185404902,166.40527343750000,-84.53155517578125,-174.76460266113281,9.71376800537109,0.31220659613609,-0.76612657308578,1.40260922908783,-4.94873237609863,-0.20779584348202
363,2185421569,166.44914245605469,-84.44575500488281,-174.85702514648438,9.80627059936523,0.32620513439178,-0.73981279134750,-1.48196363449097,-4.60760927200317,-0.38835254311562
364,2185438236,166.47195434570312,-84.36177825927734,-174.93904113769531,9.77492809295654,0.23690274357796,-0.94230842590332,-1.79078876972198,-4.47968673706055,-0.44240814447403
365,2185454903,166.52876281738281,-84.27245330810547,-175.03518676757812,9.74304103851318,0.20547930896282,-0.97868931293488,-1.01236760616302,-4.83174610137939,-0.38807082176208
366,2185471570,166.60128784179688,-84.17456054687500,-175.18066406250000,9.69739913940430,0.20944771170616,-0.97917306423187,-0.33593618869781,-5.33351230621338,-0.46334663033485
367,2185488237,166.68600463867188,-84.07245635986328,-175.28979492187500,9.72983741760254,0.33357399702072,-0.90675228834152,-0.85364568233490,-5.61795425415039,-0.38110420107841
368,2185504904,166.71864318847656,-83.97016143798828,-175.37779235839844,9.71336746215820,0.30240577459335,-0.98016291856766,-2.93935251235962,-5.60357284545898,-0.46928873658180
369,2185521571,166.79605102539062,-83.85649871826172,-175.49507141113281,9.65135955810547,0.24385121464729,-0.99903494119644,-1.85038959980011,-6.32508277893066,-0.44603243470192
370,2185538238,166.89770507812500,-83.72552490234375,-175.64735412597656,9.63627529144287,0.27059194445610,-0.95735359191895,-1.92104232311249,-7.36016941070557,-0.48947158455849
371,2185554905,167.01385498046875,-83.58027648925781,-175.81317138671875,9.67164802551270,0.20331847667694,-0.99362909793854,-1.54627716541290,-8.21816825866699,-0.59342062473297
372,2185571572,167.08845520019531,-83.43502044677734,-175.97109985351562,9.72721099853516,0.32281810045242,-0.95578551292419,-3.44686794281006,-8.21051120758057,-0.62025004625320
373,2185588239,167.09097290039062,-83.28936767578125,-176.09242248535156,9.75816917419434,0.26495021581650,-1.03974926471710,-5.17133378982544,-8.16945457458496,-0.89235955476761
374,2185604906,167.06069946289062,-83.13744354248047,-176.14729309082031,9.73037910461426,0.15102204680443,-1.05582809448242,-3.83291602134705,-8.45821189880371,-1.34639596939087
375,2185621573,166.95704650878906,-82.98905181884766,-176.08723449707031,9.72482204437256,0.24789002537727,-1.15929841995239,-3.12167692184448,-8.11433601379395,-1.90900456905365
376,2185638240,166.85661315917969,-82.83892059326172,-176.03837585449219,9.71689605712891,0.22195598483086,-1.30620336532593,-2.61946225166321,-8.19498920440674,-1.98905694484711
377,2185654907,166.74272155761719,-82.69029998779297,-175.99278259277344,9.71404647827148,0.22307784855366,-1.25720226764679,-3.03750014305115,-8.09878730773926,-2.03974437713623
378,2185671574,166.72586059570312,-82.53116607666016,-175.98417663574219,9.67269802093506,0.22864453494549,-1.22571969032288,0.41182029247284,-8.77098178863525,-1.90133345127106
379,2185688241,166.61824035644531,-82.37422180175781,-175.91380310058594,9.68006420135498,0.42780029773712,-1.15970087051392,-1.40237247943878,-8.54356670379639,-2.35383343696594
380,2185704908,166.45469665527344,-82.21671295166016,-175.82296752929688,9.73310184478760,0.39048972725868,-1.17800998687744,-2.56639313697815,-8.48393917083740,-2.67776989936829
381,2185721575,166.24198913574219,-82.06195068359375,-175.67852783203125,9.73326015472412,0.33803269267082,-1.20738434791565,-3.69371032714844,-8.25220775604248,-2.92979907989502
382,2185738242,166.02339172363281,-81.89859771728516,-175.54646301269531,9.66884231567383,0.24921448528767,-1.30079436302185,-4.01849317550659,-8.74298763275146,-3.11385202407837
383,2185754909,165.88461303710938,-81.71947479248047,-175.45486450195312,9.63294506072998,0.30248832702637,-1.26608943939209,-2.47822117805481,-9.74966812133789,-2.94111990928650
384,2185771576,165.77272033691406,-81.53826904296875,-175.42073059082031,9.61104393005371,0.37583655118942,-1.34537303447723,-3.88097810745239,-9.97459983825684,-2.57905864715576
385,2185788243,165.68165588378906,-81.35121154785156,-175.40138244628906,9.60149002075195,0.32575064897537,-1.37181603908539,-3.54951190948486,-10.34156703948975,-2.55604624748230
386,2185804910,165.50341796875000,-81.16725158691406,-175.33520507812500,9.64660358428955,0.30720064043999,-1.37226712703705,-4.88375473022461,-9.99582099914551,-3.11544060707092
387,2185821577,165.27694702148438,-80.98352050781250,-175.22911071777344,9.71027278900146,0.50504219532013,-1.41227912902832,-6.11718606948853,-9.91316890716553,-3.41921997070312
388,2185838244,165.00898742675781,-80.80215454101562,-175.10487365722656,9.74995517730713,0.45953288674355,-1.45762550830841,-7.70327949523926,-9.71054744720459,-3.58638167381287
389,2185854911,164.75091552734375,-80.62646484375000,-175.00115966796875,9.69519329071045,0.35159453749657,-1.69300508499146,-6.56764984130859,-9.34259510040283,-3.65374302864075
390,2185871578,164.57217407226562,-80.45970153808594,-174.89456176757812,9.61322212219238,0.37115344405174,-1.81534934043884,-3.01694655418396,-8.84889602661133,-3.37643361091614
391,2185888245,164.41072082519531,-80.29706573486328,-174.78739929199219,9.61675643920898,0.43104237318039,-1.67546534538269,-2.63572669029236,-8.63125133514404,-3.25139212608337
392,2185904912,164.24641418457031,-80.13401031494141,-174.69235229492188,9.66198730468750,0.49129545688629,-1.49939286708832,-2.76485323905945,-8.63050937652588,-3.30661320686340
393,2185921579,164.01933288574219,-79.97885131835938,-174.59719848632812,9.71096324920654,0.40804049372673,-1.53732955455780,-5.39331912994385,-8.11128902435303,-3.41760611534119
394,2185938246,163.74934387207031,-79.82579803466797,-174.43937683105469,9.57994556427002,0.39861083030701,-1.72067999839783,-6.15750122070312,-7.87469244003296,-3.74774146080017
395,2185954913,163.49058532714844,-79.67863464355469,-174.26469421386719,9.56964111328125,0.39679440855980,-1.88795876502991,-5.27080059051514,-7.49797868728638,-3.74795866012573
396,2185971580,163.20352172851562,-79.53602600097656,-174.08415222167969,9.60108089447021,0.44385275244713,-1.80576503276825,-5.66056156158447,-7.14994049072266,-3.96214509010315
397,2185988247,162.89137268066406,-79.40715789794922,-173.88154602050781,9.63657379150391,0.46465033292770,-1.83181607723236,-5.77748394012451,-6.24386596679688,-4.03065872192383
398,2186004914,162.53259277343750,-79.28683471679688,-173.63795471191406,9.58026218414307,0.49429640173912,-1.87774145603180,-6.20743179321289,-5.58807802200317,-4.36896419525146
399,2186021581,162.18177795410156,-79.17735290527344,-173.39050292968750,9.61620330810547,0.62707901000977,-1.87522053718567,-5.94838428497314,-4.95316362380981,-4.20039367675781
400,2186038248,161.75697326660156,-79.07511901855469,-173.15751647949219,9.57425498962402,0.61460953950882,-1.73505616188049,-9.55073738098145,-4.44685363769531,-4.27999925613403
401,2186054915,161.32101440429688,-78.96485137939453,-172.89877319335938,9.40979862213135,0.44559374451637,-1.78401124477386,-9.41381168365479,-4.80882501602173,-4.64344358444214
402,2186071582,160.86563110351562,-78.84922790527344,-172.66970825195312,9.47334861755371,0.93116790056229,-1.66605508327484,-12.77758216857910,-5.20346593856812,-4.41327571868896
403,2186088249,160.35565185546875,-78.74152374267578,-172.46286010742188,9.74248790740967,0.62831604480743,-1.81920886039734,-16.99294471740723,-4.77032041549683,-4.15110683441162
404,2186104916,159.95774841308594,-78.63677215576172,-172.26042175292969,9.72938346862793,0.37478685379028,-1.79863989353180,-11.17991161346436,-4.61580848693848,-3.98300766944885
405,2186121583,159.54035949707031,-78.54216003417969,-172.08305358886719,9.51336860656738,0.75045210123062,-1.82946872711182,-10.73100948333740,-3.90646362304688,-4.13839912414551
406,2186138250,159.02734375000000,-78.44788360595703,-171.84695434570312,9.55205154418945,1.08488345146179,-1.81244814395905,-15.86179447174072,-3.79569077491760,-4.30296373367310
407,2186154917,158.44862365722656,-78.36165618896484,-171.57910156250000,9.53191089630127,0.88839274644852,-1.97375595569611,-19.41588783264160,-3.25389313697815,-4.26081991195679
408,2186171584,158.05830383300781,-78.27126312255859,-171.40830993652344,9.47159194946289,0.53779882192612,-1.98106956481934,-11.91038799285889,-3.74119853973389,-3.67741012573242
409,2186188251,157.70382690429688,-78.17010498046875,-171.27978515625000,9.60352897644043,0.90307772159576,-1.60963010787964,-12.57866001129150,-4.52335882186890,-3.42091083526611
410,2186204918,157.23219299316406,-78.06330871582031,-171.13458251953125,9.78129196166992,1.12362110614777,-1.54619884490967,-18.69810295104980,-4.72901964187622,-3.77544522285461
411,2186221585,156.71286010742188,-77.96909332275391,-170.99176025390625,9.81831264495850,0.86990559101105,-1.86833190917969,-21.23913764953613,-3.97149944305420,-3.60192036628723
412,2186238252,156.26419067382812,-77.87911987304688,-170.89453125000000,9.50814247131348,0.91072428226471,-2.13684272766113,-20.63022804260254,-4.00339889526367,-2.83790445327759
413,2186254919,155.99037170410156,-77.76641082763672,-170.89297485351562,9.32210063934326,0.46307322382927,-2.06752443313599,-15.20384120941162,-5.67084884643555,-2.42795801162720
414,2186271586,155.75019836425781,-77.63857269287109,-170.89566040039062,9.52916336059570,0.89293628931046,-1.42996823787689,-13.65689468383789,-6.53070545196533,-2.73546409606934
415,2186288253,155.45408630371094,-77.50685119628906,-170.91296386718750,9.63960933685303,0.53937119245529,-1.77017533779144,-16.91167449951172,-6.71875667572021,-2.88161158561707
416,2186304920,155.28218078613281,-77.36227416992188,-170.97778320312500,9.66105365753174,0.88026332855225,-1.87927448749542,-12.92337226867676,-7.72579622268677,-2.53051137924194
417,2186321587,155.15530395507812,-77.20919036865234,-171.05310058593750,9.56592464447021,1.14253866672516,-1.93796074390411,-10.91706180572510,-8.25851345062256,-2.61604452133179
418,2186338254,155.09243774414062,-77.04445648193359,-171.15370178222656,9.50872421264648,1.02535951137543,-2.01933717727661,-8.55852699279785,-9.03213024139404,-2.60433888435364
419,2186354921,155.13650512695312,-76.86273956298828,-171.31127929687500,9.49903106689453,0.83118861913681,-1.95608377456665,-5.44055032730103,-10.28488826751709,-2.32391834259033
420,2186371588,155.13760375976562,-76.67610931396484,-171.47724914550781,9.81297111511230,1.45377922058105,-1.36163353919983,-8.49134445190430,-10.62059307098389,-2.31637525558472
421,2186388255,154.94619750976562,-76.50288391113281,-171.63481140136719,9.81228923797607,1.33260202407837,-1.92000770568848,-19.52715492248535,-9.84255504608154,-2.07408142089844
422,2186404922,154.83073425292969,-76.31375885009766,-171.79991149902344,9.41343212127686,0.72446537017822,-2.15840029716492,-15.43492317199707,-10.76408386230469,-2.37631082534790
423,2186421589,154.86795043945312,-76.09495544433594,-171.95416259765625,9.38201522827148,0.58752864599228,-1.98214733600616,-5.62450122833252,-12.31948471069336,-3.25287890434265
424,2186438256,154.87179565429688,-75.85151672363281,-172.07194519042969,9.34572029113770,0.60406237840652,-1.88895905017853,-5.47424459457397,-13.44968795776367,-4.33030414581299
425,2186454923,154.86036682128906,-75.57170104980469,-172.15696716308594,9.42415618896484,0.78220939636230,-2.03594827651978,-4.50173139572144,-15.23749637603760,-5.66599607467651
426,2186471590,154.94758605957031,-75.26977539062500,-172.26791381835938,9.34318065643311,0.62845075130463,-2.38819885253906,-0.07463547587395,-16.61364364624023,-5.84026527404785
427,2186488257,155.09484863281250,-74.95421600341797,-172.42163085937500,9.18214607238770,1.04957878589630,-2.19046449661255,1.03842318058014,-17.66566085815430,-5.52045202255249
428,2186504924,155.13887023925781,-74.61585235595703,-172.55595397949219,9.27312946319580,1.33867967128754,-1.95861864089966,-4.01051902770996,-18.80709648132324,-6.29785060882568
429,2186521591,155.13177490234375,-74.24871063232422,-172.67744445800781,9.39645862579346,1.04589617252350,-2.23061847686768,-6.31998252868652,-20.31273651123047,-7.16210508346558
430,2186538258,155.24012756347656,-73.85388183593750,-172.84480285644531,9.45923519134521,0.86853331327438,-2.28924560546875,-2.02740287780762,-22.16121482849121,-7.11158514022827
431,2186554925,155.46232604980469,-73.43074035644531,-173.06193542480469,9.54916286468506,1.06947159767151,-2.09160971641541,1.95688533782959,-24.10690498352051,-6.92816114425659
432,2186571592,155.66732788085938,-72.97083282470703,-173.29423522949219,9.38564682006836,1.12108314037323,-2.09361076354980,0.08204409480095,-26.29387092590332,-7.42217016220093
433,2186588259,155.93893432617188,-72.44686126708984,-173.55738830566406,9.36765861511230,1.10712814331055,-1.90233910083771,2.34969758987427,-30.10158348083496,-8.28012466430664
434,2186604926,156.23768615722656,-71.86405944824219,-173.85630798339844,9.48665237426758,1.36814427375793,-2.04112744331360,1.99432218074799,-33.69919586181641,-8.82973480224609
435,2186621593,156.59242248535156,-71.24638366699219,-174.18595886230469,9.47238922119141,1.24139654636383,-2.55183124542236,3.64864301681519,-35.97795867919922,-8.76945972442627
436,2186638260,157.10466003417969,-70.59559631347656,-174.53012084960938,9.43625354766846,0.86240446567535,-2.79839015007019,12.26197719573975,-38.07567596435547,-8.79347896575928
437,2186654927,157.73100280761719,-69.89971923828125,-174.91326904296875,9.35738945007324,1.54716849327087,-2.47180914878845,17.05853462219238,-41.04293060302734,-8.53110122680664
438,2186671594,158.22023010253906,-69.19419860839844,-175.28413391113281,9.12021541595459,1.66268861293793,-2.89894628524780,9.64484024047852,-41.66736984252930,-8.34714412689209
439,2186688261,158.66139221191406,-68.50408935546875,-175.62818908691406,8.89601230621338,1.08122086524963,-3.76730775833130,8.34917163848877,-40.75605010986328,-7.96470308303833
440,2186704928,159.18005371093750,-67.80636596679688,-175.98756408691406,8.87128829956055,1.36235344409943,-3.63044977188110,12.21365737915039,-41.46188354492188,-7.23851776123047
441,2186721595,159.73611450195312,-67.07311248779297,-176.39828491210938,8.93774604797363,2.00873804092407,-2.78240728378296,11.74806404113770,-44.02271270751953,-6.26454210281372
442,2186738262,160.18927001953125,-66.34288787841797,-176.78549194335938,9.00997829437256,1.16457223892212,-3.60301685333252,6.97364997863770,-43.82304000854492,-6.05307865142822
443,2186754929,160.69604492187500,-65.62640380859375,-177.14605712890625,9.01782894134521,1.24691736698151,-4.11056518554688,11.76364135742188,-42.96514892578125,-5.76439571380615
444,2186771596,161.14028930664062,-64.92880249023438,-177.44474792480469,8.80149078369141,0.87737894058228,-4.44144725799561,11.50345134735107,-41.51668167114258,-6.27475690841675
445,2186788263,161.55903625488281,-64.21813964843750,-177.71180725097656,9.13911437988281,0.94107395410538,-4.03770637512207,11.77784442901611,-42.11054611206055,-6.79217624664307
446,2186804930,161.92700195312500,-63.48250579833984,-177.96459960937500,9.49761009216309,1.50135564804077,-3.70734381675720,9.59161949157715,-43.51751708984375,-7.15826177597046
447,2186821597,162.31892395019531,-62.72746276855469,-178.20372009277344,9.57649803161621,1.27219069004059,-3.94466209411621,11.85017204284668,-44.61811065673828,-7.40792846679688
448,2186838264,162.82550048828125,-61.92277526855469,-178.46226501464844,9.77578163146973,0.74919760227203,-4.07584571838379,17.78641128540039,-47.73574829101562,-7.26624965667725
449,2186854931,163.37115478515625,-61.01221466064453,-178.74453735351562,10.18584060668945,0.98137789964676,-3.71449136734009,18.98785781860352,-54.14050674438477,-7.82360601425171
450,2186871598,163.99058532714844,-59.93878173828125,-179.03800964355469,10.87245082855225,1.05535197257996,-3.25980806350708,22.96968841552734,-63.76455688476562,-9.45060157775879
451,2186888265,164.68333435058594,-58.63072204589844,-179.31294250488281,11.95715713500977,0.52455562353134,-2.95733737945557,28.50827407836914,-77.36746978759766,-12.75903606414795
452,2186904932,165.88543701171875,-56.95521163940430,-179.61103820800781,13.24151229858398,-0.94312787055969,-2.26011610031128,58.11230850219727,-99.18537902832031,-16.00165176391602
453,2186921599,167.30120849609375,-54.76359176635742,-179.83007812500000,15.97324943542480,-0.77685618400574,-0.45884627103806,75.17681884765625,-129.16633605957031,-23.00305747985840
454,2186938266,169.37034606933594,-51.97000503540039,-179.96394348144531,20.25516128540039,-4.23950147628784,-0.31197500228882,118.79987335205078,-164.69320678710938,-28.89161872863770
455,2186954933,171.91229248046875,-48.90388870239258,-179.86526489257812,26.40913200378418,-1.96789228916168,8.67351913452148,158.15888977050781,-180.51322937011719,-33.34912490844727
456,2186971600,172.12794494628906,-46.28093338012695,-178.88391113281250,24.86144447326660,4.02402305603027,3.18324232101440,57.52633285522461,-149.99024963378906,-60.88406753540039
457,2186988267,172.24455261230469,-42.00616073608398,-177.99737548828125,17.63701820373535,9.10580158233643,-13.01523971557617,45.17099761962891,-248.60740661621094,-72.40024566650391
458,2187004934,170.48654174804688,-37.72044372558594,-176.96493530273438,11.72923564910889,1.94326663017273,-10.52554321289062,-64.57270812988281,-246.79049682617188,-85.31887817382812
459,2187021601,171.67625427246094,-34.13201141357422,-175.80024719238281,6.73131752014160,-4.67263460159302,-3.80082917213440,113.50974273681641,-203.64031982421875,-88.99040222167969
460,2187038268,176.74571228027344,-31.37192726135254,-174.80792236328125,1.58530414104462,-7.27778720855713,0.52182209491730,337.44723510742188,-159.48902893066406,-66.24481964111328
461,2187054935,-179.98306274414062,-29.56111717224121,-173.78526306152344,-4.10413980484009,1.48790800571442,9.54962921142578,228.48672485351562,-106.85463714599609,-55.63180541992188
462,2187071602,-178.71549987792969,-28.83943939208984,-172.61691284179688,-7.36117315292358,0.26521852612495,16.10500907897949,111.38206481933594,-43.72257232666016,-60.36692810058594
463,2187088269,-178.21650695800781,-29.39273643493652,-171.36633300781250,-10.80085182189941,0.56990921497345,21.65812873840332,67.58715057373047,31.69536590576172,-66.08438110351562
464,2187104936,-178.66925048828125,-31.33133125305176,-170.07308959960938,-11.80381679534912,0.53078991174698,24.32009506225586,13.20417404174805,114.71035003662109,-69.75501251220703
465,2187121603,-179.72943115234375,-34.50043869018555,-168.95367431640625,-13.46311759948730,-1.43804883956909,22.76651191711426,-25.94237518310547,189.58999633789062,-58.70347595214844
466,2187138270,179.19001770019531,-38.70967483520508,-168.04048156738281,-12.47288036346436,-3.74889063835144,19.76511383056641,-30.98111343383789,253.00564575195312,-42.46820449829102
467,2187154937,178.10896301269531,-43.66199111938477,-167.34471130371094,-11.39304924011230,-3.06369233131409,13.97649860382080,-36.18546295166016,298.04089355468750,-24.08741569519043
468,2187171604,176.85729980468750,-49.16273880004883,-166.88633728027344,-9.47548198699951,-2.25676417350769,6.46428823471069,-53.97961425781250,330.80548095703125,-4.13710403442383
469,2187188271,175.97348022460938,-54.92795944213867,-166.76417541503906,-5.88809871673584,-0.38259938359261,-0.72513163089752,-46.07181167602539,345.77142333984375,17.44022560119629
470,2187204938,174.11782836914062,-60.65859603881836,-166.70498657226562,-0.45830637216568,2.15655040740967,-7.37405872344971,-107.11217498779297,342.98873901367188,28.11843109130859
471,2187221605,172.34078979492188,-65.84629821777344,-167.13139343261719,9.27831077575684,1.76519060134888,-15.88469314575195,-128.27018737792969,308.02029418945312,48.44278717041016
472,2187238272,172.23605346679688,-69.79826354980469,-168.65350341796875,19.15619087219238,12.17548561096191,-18.44258117675781,-89.73764801025391,230.63626098632812,66.28767395019531
473,2187254939,169.71170043945312,-72.55660247802734,-171.07566833496094,17.90844726562500,12.90725612640381,-14.24419021606445,-287.85119628906250,156.43118286132812,72.61004638671875
474,2187271606,167.82676696777344,-74.25042724609375,-173.80929565429688,12.78022670745850,0.41793394088745,-9.59655380249023,-269.12500000000000,90.90547943115234,66.09492492675781
475,2187288273,171.92219543457031,-75.60471343994141,-177.66969299316406,9.30324649810791,7.67022466659546,-29.09852600097656,23.18503379821777,69.72171020507812,73.89852142333984
476,2187304940,-177.70747375488281,-68.09757232666016,177.21633911132812,48.05538177490234,39.17414855957031,-94.85706329345703,330.63244628906250,-453.86056518554688,73.17038726806641
477,2187321607,171.62464904785156,-65.41463470458984,176.03863525390625,37.64645004272461,19.98376846313477,47.25402069091797,-703.66900634765625,-161.88882446289062,19.78677177429199
478,2187338274,175.19427490234375,-62.77288055419922,172.37187194824219,98.14872741699219,-62.62954711914062,-35.24203491210938,17.42122268676758,-167.88098144531250,77.78107452392578
479,2187354941,-177.71438598632812,-59.75001907348633,169.56039428710938,7.43787956237793,3.43628334999084,13.01473426818848,278.56021118164062,-182.61212158203125,77.45845794677734
480,2187371608,178.63188171386719,-57.46258544921875,169.55387878417969,-3.68460154533386,4.31859111785889,-11.77020740509033,-218.38121032714844,-136.76864624023438,1.64393258094788
481,2187388275,-178.10548400878906,-55.88325500488281,169.63822937011719,-2.19329738616943,-4.42682075500488,-10.62470245361328,201.11480712890625,-94.28018188476562,-1.99789464473724
482,2187404942,-177.54185485839844,-54.94867706298828,169.39147949218750,-4.59121704101562,-5.69752264022827,-11.20472717285156,22.76821136474609,-55.20409393310547,10.86358070373535
483,2187421609,-176.93782043457031,-54.15481567382812,168.81968688964844,6.92082595825195,-0.11459596455097,-7.60584354400635,9.42521095275879,-46.10101318359375,22.49165534973145
484,2187438276,-175.92127990722656,-53.52732849121094,168.61743164062500,12.20065879821777,-1.18885958194733,-5.85800552368164,52.32447433471680,-36.61361694335938,9.81544876098633
485,2187454943,-176.13336181640625,-53.13632965087891,168.64033508300781,14.34581089019775,-4.06947898864746,-8.39270305633545,-10.48911571502686,-22.94780158996582,1.12760806083679
486,2187471610,-176.06182861328125,-52.94032287597656,168.57058715820312,10.22401142120361,-3.28137326240540,-7.43776893615723,2.07651829719543,-11.05626392364502,3.62604880332947
487,2187488277,-176.29963684082031,-52.88288879394531,168.56576538085938,7.85179090499878,-1.96352422237396,-8.46896839141846,-13.37624073028564,-2.91949105262756,0.71631717681885
488,2187504944,-176.77142333984375,-53.05874252319336,168.65058898925781,8.88028240203857,0.31792694330215,-8.09685420989990,-23.12180137634277,10.85100460052490,-3.38654422760010
489,2187521611,-177.79057312011719,-53.69050216674805,168.87802124023438,10.67130374908447,-1.48029184341431,-9.00204944610596,-49.07452774047852,37.97875595092773,-9.61835575103760
490,2187538278,-178.95889282226562,-54.74999618530273,169.14146423339844,11.67200946807861,-3.59273099899292,-9.73665904998779,-56.15103912353516,63.78166580200195,-10.73128128051758
491,2187554945,-179.38316345214844,-56.28864669799805,169.51527404785156,13.37069416046143,0.20077574253082,-9.56531143188477,-5.84777832031250,92.61826324462891,-13.72870635986328
492,2187571612,179.66836547851562,-58.57182312011719,170.07223510742188,14.36146259307861,-1.31120157241821,-11.57271289825439,-27.61909484863281,137.43504333496094,-18.02710342407227
493,2187588279,178.69824218750000,-62.00110626220703,170.84303283691406,17.19541740417480,-0.19170099496841,-11.31010150909424,-16.89646339416504,206.54133605957031,-19.69095420837402
494,2187604946,177.03157043457031,-67.01792144775391,171.95054626464844,22.68367958068848,-4.38689088821411,-14.12187385559082,-38.81343460083008,302.32226562500000,-17.07511520385742
495,2187621613,177.27740478515625,-73.63774108886719,172.65447998046875,35.07424545288086,-6.86737108230591,-12.14832496643066,55.64605331420898,397.84249877929688,5.79456520080566
496,2187638280,-176.87316894531250,-82.92415618896484,168.33644104003906,51.68516540527344,-6.49628973007202,-4.39080476760864,97.36312103271484,557.32507324218750,50.98498916625977
497,2187654947,-36.08209609985352,-85.38726043701172,30.63804244995117,50.23360824584961,-15.91271781921387,-2.56121349334717,197.58280944824219,643.24182128906250,134.76875305175781
498,2187671614,-13.76108360290527,-79.23979949951172,16.41195487976074,16.26363945007324,41.58051300048828,-40.46715545654297,492.73788452148438,380.53546142578125,51.04857635498047
499,2187688281,-13.91328048706055,-78.42046356201172,17.44189071655273,-28.51817321777344,-11.22348117828369,-3.43903541564941,52.61839675903320,45.29675674438477,23.71365165710449
500,2187704948,-20.66255950927734,-81.82543182373047,28.78591728210449,-5.72027206420898,14.53074359893799,-15.74762725830078,266.98257446289062,-228.32470703125000,51.27445983886719
501,2187721615,-44.34695434570312,-85.43782043457031,51.69519805908203,5.38238334655762,1.41396546363831,3.62317991256714,-52.96367645263672,-260.03054809570312,14.11295413970947
502,2187738282,-100.13366699218750,-87.24594116210938,107.45172119140625,4.68135213851929,5.89298152923584,12.36611652374268,-6.20210838317871,-224.51980590820312,-28.12179183959961
503,2187754949,-140.32575988769531,-86.86924743652344,143.77986145019531,4.84792518615723,2.61439800262451,19.12398719787598,-233.38125610351562,-105.67305755615234,-36.72716903686523
504,2187771616,-138.27532958984375,-87.22646331787109,137.77200317382812,3.09971952438354,-5.56623983383179,7.91503667831421,-235.80433654785156,28.78449058532715,0.54045224189758
505,2187788283,-99.54208374023438,-87.85735321044922,98.45194244384766,4.18258905410767,-10.26359367370605,2.61915111541748,-32.09620285034180,104.85737609863281,17.43752098083496
506,2187804950,-48.45383834838867,-86.90914916992188,51.54723358154297,0.34777647256851,-8.04702568054199,1.65751147270203,254.67486572265625,135.41815185546875,15.72579860687256
507,2187821617,-24.71641349792480,-84.97036743164062,33.58435058593750,-0.38692167401314,1.07970571517944,1.73308372497559,350.09158325195312,138.02064514160156,7.52843189239502
508,2187838284,-14.80349445343018,-82.98899078369141,27.76995849609375,-0.79985654354095,4.21497249603271,0.89233934879303,248.88439941406250,124.52444458007812,5.95606088638306
509,2187854951,-10.22101020812988,-81.42343902587891,25.46681404113770,-1.94319975376129,1.15776193141937,-1.08601486682892,139.14129638671875,96.18954467773438,2.33833599090576
510,2187871618,-7.24764871597290,-80.37579345703125,23.57875633239746,-1.40181195735931,-1.23073029518127,-0.55376887321472,67.66284942626953,65.30366516113281,-7.87172126770020
511,2187888285,-6.26034545898438,-79.75756072998047,22.09785079956055,-0.18448108434677,-0.22027672827244,-1.34767270088196,-27.15783500671387,39.11112594604492,-10.56324005126953
512,2187904952,-8.09939670562744,-79.57707977294922,21.80725097656250,-0.37497633695602,-3.70881056785583,-5.45545244216919,-126.37017059326172,11.62437534332275,-1.45027327537537
513,2187921619,-10.77536487579346,-79.79679870605469,23.05201911926270,-0.15903647243977,-4.74211645126343,-5.13011264801025,-85.95114898681641,-14.69945144653320,11.32864475250244
514,2187938286,-13.25876808166504,-80.17909240722656,24.93915176391602,0.12362111359835,-2.38802146911621,-3.42046904563904,-36.36942291259766,-26.02098655700684,14.77594470977783
515,2187954953,-15.97824573516846,-80.57073211669922,27.36675834655762,-0.26640963554382,-0.72979599237442,-2.41618418693542,-18.43087577819824,-28.36660385131836,17.93109893798828
516,2187971620,-18.81316947937012,-80.89735412597656,30.05959892272949,-0.13527388870716,-0.10663544386625,-1.40711927413940,-9.49780368804932,-25.95538330078125,19.26372718811035
517,2187988287,-21.36103820800781,-81.17420959472656,32.69668960571289,-0.10560397058725,-0.37351319193840,-0.82748830318451,4.55311346054077,-23.54886245727539,17.74368286132812
518,2188004954,-23.07006263732910,-81.43583679199219,34.93140792846680,0.11316327005625,-0.36245495080948,-0.49702891707420,31.13244056701660,-21.67593193054199,13.12141513824463
519,2188021621,-24.56726264953613,-81.62942504882812,36.85478210449219,0.66048139333725,0.43209657073021,0.32667571306229,25.44483184814453,-16.96226501464844,11.14537525177002
520,2188038288,-26.24842071533203,-81.68665313720703,38.43268585205078,0.83622074127197,0.03004045411944,0.21112345159054,-6.06355524063110,-8.46277523040771,11.22531700134277
521,2188054955,-28.10814476013184,-81.66532135009766,39.81406021118164,0.26264670491219,-0.48576292395592,-0.60994839668274,-28.44505882263184,-3.82642221450806,11.53896427154541
522,2188071622,-30.46750640869141,-81.69873046875000,41.26947784423828,-0.50726431608200,0.67543303966522,-1.03546082973480,-54.02207946777344,-7.39196872711182,10.32857990264893
523,2188088289,-34.09516525268555,-81.88671875000000,43.45010375976562,-0.67476719617844,-0.21335427463055,-2.30406808853149,-87.03147125244141,-18.97712707519531,10.05766868591309
524,2188104956,-39.21714401245117,-82.28146362304688,47.28273010253906,-0.89068055152893,-1.24930334091187,-1.89969599246979,-78.41930389404297,-37.35005569458008,11.57570934295654
525,2188121623,-46.24418640136719,-82.82419586181641,53.17980194091797,-0.99147349596024,-1.89626932144165,-1.64952123165131,-69.64483642578125,-54.45711135864258,11.91174316406250
526,2188138290,-56.12712860107422,-83.47291564941406,62.32383728027344,0.14429429173470,-1.37868189811707,-2.23391509056091,-47.09791946411133,-74.73454284667969,11.06760215759277
527,2188154957,-70.41474914550781,-84.12049865722656,75.93041992187500,0.41583588719368,-0.58143192529678,-1.09653007984161,-44.46054458618164,-95.45532226562500,5.44798994064331
528,2188171624,-89.95947265625000,-84.35743713378906,94.52507019042969,-0.66345870494843,-0.21188649535179,-0.77160936594009,-61.41749191284180,-111.79583740234375,5.48722696304321
529,2188188291,-113.56575012207031,-83.83674621582031,117.22211456298828,2.53772830963135,-0.05296201258898,-9.78643989562988,-60.44860076904297,-142.00473022460938,1.84103524684906
530,2188204958,-152.31668090820312,-79.37247467041016,155.77491760253906,-0.44501829147339,10.48296928405762,-96.03876495361328,-32.11035919189453,-414.49029541015625,-40.62861633300781
531,2188221625,-169.78047180175781,-73.28987121582031,172.53222656250000,70.01551055908203,28.84087181091309,94.82484436035156,-67.89477539062500,-417.85223388671875,-106.51548767089844
532,2188238292,-176.51205444335938,-68.98992156982422,176.65646362304688,48.00519561767578,-10.00090217590332,-2.84736537933350,-168.31932067871094,-265.00134277343750,-48.31479263305664
533,2188254959,-173.60403442382812,-65.20157623291016,175.90437316894531,57.43197250366211,-11.32605457305908,42.64309692382812,133.97575378417969,-224.41090393066406,37.41835403442383
534,2188271626,177.51673889160156,-62.88019180297852,176.91705322265625,6.89691877365112,35.36981201171875,-27.47447586059570,-476.89495849609375,-139.70698547363281,-21.51832008361816
535,2188288293,177.40660095214844,-63.18309783935547,177.10983276367188,-32.42298126220703,-42.69036865234375,-38.70069503784180,4.86190557479858,18.89226722717285,-4.06002855300903
536,2188304960,-178.19657897949219,-64.29581451416016,179.45268249511719,-13.69750976562500,7.67529964447021,-19.53104400634766,390.96716308593750,67.72934722900391,-61.45874023437500
537,2188321627,-179.44319152832031,-66.19774627685547,-179.09510803222656,19.32322502136230,-0.51515746116638,-7.29216051101685,5.46759700775146,113.85199737548828,-38.51339340209961
538,2188338294,178.95381164550781,-68.15039825439453,-179.69009399414062,29.47050666809082,5.20876932144165,0.62843638658524,-127.94653320312500,117.61801910400391,14.66461944580078
539,2188354961,177.13984680175781,-70.30241394042969,179.55137634277344,12.17607879638672,2.16839170455933,-7.48847007751465,-150.24427795410156,129.00602722167969,20.85843467712402
540,2188371628,179.15736389160156,-72.47706604003906,177.72560119628906,2.66052937507629,-5.58570432662964,-9.30252170562744,18.34084510803223,129.76396179199219,39.48370742797852
541,2188388295,-177.97427368164062,-74.64059448242188,175.86500549316406,3.50947904586792,1.92726433277130,-5.47161054611206,66.12934875488281,130.61834716796875,30.57311630249023
542,2188404962,-176.86174011230469,-76.80332183837891,173.95643615722656,9.36379051208496,0.87744790315628,-2.73379039764404,-43.10997390747070,131.38583374023438,22.69009971618652
543,2188421629,-175.86026000976562,-78.81276702880859,171.91178894042969,10.81357955932617,-1.19918954372406,0.37752515077591,-58.70051956176758,122.43531036376953,18.52960014343262
544,2188438296,-173.63575744628906,-80.51585388183594,169.50944519042969,8.33723735809326,-2.11688828468323,0.89237171411514,-7.21926403045654,104.59248352050781,16.72527503967285
545,2188454963,-170.41275024414062,-81.90342712402344,166.64422607421875,7.85559129714966,1.20347023010254,3.08089542388916,24.60110855102539,86.55293273925781,14.79483413696289
546,2188471630,-167.23211669921875,-83.09959411621094,163.22534179687500,8.61974620819092,1.08186149597168,1.60520672798157,-11.41847515106201,76.04222869873047,12.68879699707031
547,2188488297,-163.70755004882812,-84.14445495605469,159.24914550781250,9.44577503204346,-0.37850880622864,-0.27544736862183,-24.49650573730469,67.76752471923828,10.27839469909668
548,2188504964,-158.92553710937500,-85.04038238525391,154.26081848144531,9.68785762786865,-2.05493640899658,0.44342330098152,-9.92374801635742,60.38128280639648,9.86661243438721
549,2188521631,-153.19003295898438,-85.75910186767578,148.53820800781250,9.57738399505615,-1.55653941631317,1.74885892868042,3.00404572486877,51.00852966308594,8.05048656463623
550,2188538298,-148.37457275390625,-86.25393676757812,143.49273681640625,9.42505741119385,-0.08035156875849,1.70435976982117,-11.93417358398438,36.65175628662109,4.29045104980469
551,2188554965,-144.25588989257812,-86.59291076660156,138.99734497070312,9.43862247467041,-1.32194900512695,1.47958564758301,-20.94192504882812,26.72503852844238,3.10097432136536
552,2188571632,-140.48031616210938,-86.80328369140625,135.19174194335938,9.45544528961182,-1.54976952075958,2.54535603523254,-0.29148566722870,18.52096748352051,3.07441759109497
553,2188588299,-138.56947326660156,-86.88347625732422,133.35231018066406,8.33575344085693,1.34830164909363,-0.80931806564331,5.57623910903931,8.12398624420166,1.82740926742554
554,2188604966,-138.42129516601562,-86.89745330810547,132.95384216308594,10.57656860351562,-0.16760990023613,1.14601135253906,-13.85116481781006,1.99152290821075,0.74207079410553
555,2188621633,-137.58872985839844,-86.91085815429688,131.97065734863281,9.85024547576904,-0.55380630493164,0.42108976840973,-7.82386302947998,3.24070549011230,2.15748000144958
556,2188638300,-135.22964477539062,-86.96817016601562,129.61614990234375,8.99265575408936,-0.16905961930752,-2.75503182411194,1.60056996345520,8.20691871643066,3.42980408668518
557,2188654967,-133.58786010742188,-87.00284576416016,127.97001647949219,10.97350025177002,-0.63007462024689,-0.19448104500771,1.00257730484009,5.67827892303467,2.48246669769287
558,2188671634,-130.92512512207031,-87.08409118652344,125.20675659179688,9.39874744415283,0.28770157694817,-1.08604872226715,-4.68179845809937,10.11885833740234,2.49041986465454
559,2188688301,-128.07781982421875,-87.15840911865234,122.20478820800781,10.01837539672852,-0.39507311582565,-1.02011919021606,-7.92676258087158,10.33467197418213,2.66125702857971
560,2188704968,-124.34510803222656,-87.20971679687500,118.58699035644531,9.56815624237061,-0.92288702726364,-1.06318676471710,8.28290176391602,10.94156646728516,4.17307329177856
561,2188721635,-121.08701324462891,-87.22293853759766,115.64533233642578,9.95773410797119,-0.25123572349548,0.23627501726151,20.31906890869141,8.16974163055420,4.29977130889893
562,2188738302,-117.95465087890625,-87.23742675781250,112.65657043457031,9.79783344268799,-0.19824527204037,0.33311709761620,9.94989299774170,8.49482154846191,3.85310649871826
563,2188754969,-115.39275360107422,-87.25120544433594,110.13710784912109,9.67012310028076,-0.51877176761627,-0.53770250082016,3.84462738037109,7.40488290786743,2.82996678352356
564,2188771636,-112.63101196289062,-87.26519775390625,107.48011779785156,9.91254901885986,-0.97717243432999,-0.01632715389132,7.59220266342163,7.82762145996094,2.68141388893127
565,2188788303,-108.94051361083984,-87.29810333251953,103.89741516113281,9.75301074981689,-0.37222713232040,0.32292175292969,7.83477020263672,10.76375102996826,2.11420798301697
566,2188804970,-105.35630035400391,-87.33317565917969,100.24201202392578,9.47660350799561,0.04264746978879,-0.69583618640900,-2.90350794792175,10.96470451354980,1.37369275093079
567,2188821637,-101.98543548583984,-87.35855102539062,96.81381988525391,10.03937053680420,-1.22287857532501,-0.02943622134626,-2.09408211708069,10.15752124786377,1.08202815055847
568,2188838304,-98.61145782470703,-87.37669372558594,93.53233337402344,9.65913486480713,-0.51806062459946,-0.01917234249413,6.88154077529907,9.62617206573486,0.87567943334579
569,2188854971,-95.60018157958984,-87.38356018066406,90.57613372802734,9.60051822662354,-0.38205188512802,0.60477590560913,4.61460924148560,8.62617397308350,0.93932670354843
570,2188871638,-93.69432830810547,-87.37975311279297,88.74366760253906,9.49125194549561,-0.45368489623070,0.70856040716171,5.64377832412720,5.51226997375488,0.95204341411591
571,2188888305,-92.39730834960938,-87.37377929687500,87.53325653076172,9.62499523162842,-0.52003139257431,0.42790773510933,6.40434837341309,3.81611990928650,0.84148621559143
572,2188904972,-91.39467620849609,-87.35891723632812,86.66117858886719,9.73640346527100,-0.57889556884766,0.22248235344887,9.01106929779053,2.88497066497803,1.29221880435944
573,2188921639,-90.47154235839844,-87.33979797363281,85.88913726806641,9.68996238708496,-0.24815589189529,0.08108218759298,10.23831653594971,2.63277530670166,1.49143457412720
574,2188938306,-90.17369079589844,-87.32475280761719,85.73125457763672,9.79606723785400,-0.33167505264282,-0.23398464918137,9.54018878936768,0.93887853622437,1.23336064815521
575,2188954973,-89.88293457031250,-87.30485534667969,85.56359100341797,9.89397811889648,-0.53426575660706,0.29254382848740,8.52155876159668,0.97413450479507,1.49510967731476
576,2188971640,-89.40879058837891,-87.28235626220703,85.25508880615234,9.56088352203369,-0.69212120771408,0.08324393630028,11.08869743347168,1.38766467571259,1.64536702632904
577,2188988307,-89.56666564941406,-87.26176452636719,85.58327484130859,9.82286643981934,-0.37106624245644,0.35030302405357,11.32146263122559,-0.42947393655777,1.56772196292877
578,2189004974,-89.48913574218750,-87.24508666992188,85.62137603759766,9.81349277496338,-0.40135255455971,0.04079134017229,8.06305217742920,0.39877057075500,1.32064867019653
579,2189021641,-88.34872436523438,-87.22441864013672,84.56684112548828,9.72426509857178,-0.45280233025551,-0.51955240964890,6.34878158569336,3.58706593513489,1.50060367584229
580,2189038308,-87.93957519531250,-87.20992279052734,84.31541442871094,9.99156761169434,-0.49739536643028,-0.29602929949760,10.61025047302246,1.26341736316681,1.15166914463043
581,2189054975,-87.46690368652344,-87.19921112060547,83.99453735351562,9.80649662017822,-0.41169309616089,0.31812304258347,10.26394176483154,1.46844708919525,0.90197086334229
582,2189071642,-86.72620391845703,-87.19335174560547,83.32978057861328,9.73706817626953,-0.70176643133163,0.18514336645603,5.72593116760254,2.47288751602173,0.57464021444321
583,2189088309,-86.15697479248047,-87.17381286621094,82.94474792480469,9.63697624206543,-0.75165414810181,0.24338580667973,12.20708942413330,1.70889949798584,1.41245782375336
584,2189104976,-86.50691223144531,-87.15146636962891,83.50446319580078,9.71453475952148,0.04603527113795,0.26161742210388,13.67138290405273,-1.07961452007294,1.74401462078094
585,2189121643,-86.72347259521484,-87.12397766113281,83.84672546386719,9.81742000579834,-0.26978325843811,0.47130686044693,8.64116859436035,-0.43039590120316,2.03330945968628
586,2189138310,-86.71424865722656,-87.09545898437500,83.90538787841797,9.77962875366211,-0.69965207576752,0.29284030199051,5.19545364379883,0.41932475566864,2.04404115676880
587,2189154977,-85.31485748291016,-87.07638549804688,82.74970245361328,9.95918655395508,-0.82246661186218,0.88909840583801,15.84224319458008,4.10586643218994,1.18359589576721
588,2189171644,-83.94829559326172,-87.06355285644531,81.62973022460938,9.37587738037109,-0.02985394001007,-0.81830239295959,16.00679206848145,4.00089359283447,0.76674890518188
589,2189188311,-82.97586059570312,-87.04051208496094,80.93712615966797,10.14250659942627,-0.76410377025604,-0.26900321245193,17.96847343444824,2.78553128242493,1.45023751258850
590,2189204978,-83.05333709716797,-87.02843475341797,81.15379333496094,9.65683364868164,-0.07741838693619,-0.41601580381393,9.46720600128174,-0.08413774520159,1.11638748645782
591,2189221645,-83.36541748046875,-87.00500488281250,81.64910888671875,9.92459774017334,-0.66461521387100,0.15502753853798,12.08021545410156,-0.87691515684128,1.87654733657837
592,2189238312,-83.72315216064453,-86.97153472900391,82.12122344970703,9.73634243011475,-0.39734569191933,0.97048985958099,7.95204544067383,-0.75974965095520,2.48150587081909
593,2189254979,-83.67657470703125,-86.91142272949219,82.30023193359375,9.75987815856934,-0.18357978761196,0.70045679807663,14.64097881317139,0.32168930768967,3.95738863945007
594,2189271646,-83.22589874267578,-86.87344360351562,81.87875366210938,9.67688751220703,0.00026960021933,-1.01582181453705,2.91859889030457,2.12268424034119,2.42458128929138
595,2189288313,-82.29917907714844,-86.82707214355469,81.08696746826172,10.00061893463135,-0.82207632064819,-1.14532995223999,9.29553699493408,3.44314837455750,2.73829960823059
596,2189304980,-81.10990142822266,-86.76972198486328,80.13105010986328,9.95831966400146,-0.97895526885986,-0.46940055489540,15.21470451354980,4.17042303085327,3.23180675506592
597,2189321647,-79.90171813964844,-86.71968078613281,79.14430236816406,9.79044342041016,-0.54941427707672,0.06709304451942,14.51459407806396,4.31801605224609,2.73946595191956
598,2189338314,-79.51338958740234,-86.68471527099609,78.82539367675781,9.63736724853516,-0.27347600460052,0.08186683803797,5.31870079040527,1.95750808715820,2.17437100410461
599,2189354981,-80.38496398925781,-86.63669586181641,79.76845550537109,9.61543655395508,-0.53101551532745,0.03361836075783,5.31847143173218,-2.25385379791260,3.72163486480713
600,2189371648,-82.85601806640625,-86.57686614990234,82.51829528808594,9.52831840515137,-0.64336884021759,0.13820542395115,17.56752395629883,-8.66516017913818,5.26557540893555
601,2189388315,-85.27778625488281,-86.52790832519531,85.26107788085938,9.86824131011963,-0.29934570193291,0.93788480758667,20.08494377136230,-9.06304264068604,4.27225017547607
602,2189404982,-86.55352020263672,-86.51283264160156,86.51972961425781,9.75376224517822,-0.41277450323105,0.11955517530441,-0.03067120909691,-4.02127075195312,1.54659104347229
603,2189421649,-88.27279663085938,-86.49625396728516,88.21590423583984,9.72568035125732,-0.75305324792862,-0.11468624323606,-0.45121896266937,-5.67003774642944,1.58164203166962
604,2189438316,-90.56595611572266,-86.47913360595703,90.53099060058594,9.64393424987793,-0.74032461643219,-0.04612215980887,2.18374586105347,-8.01895332336426,1.42453372478485
605,2189454983,-93.46025085449219,-86.44901275634766,93.50958251953125,9.68153858184814,-0.59976559877396,-0.07238528132439,5.84010124206543,-10.60580158233643,1.74578154087067
606,2189471650,-96.94419860839844,-86.39456939697266,97.14756011962891,9.70534229278564,-0.48590704798698,-0.14965872466564,9.93986892700195,-13.38869190216064,2.30881404876709
607,2189488317,-100.75972747802734,-86.31921386718750,101.12014770507812,9.74601459503174,-0.44968834519386,-0.02029337733984,10.07141685485840,-15.19007587432861,2.43911910057068
608,2189504984,-104.38449859619141,-86.23438262939453,104.88192749023438,9.80274772644043,-0.72956085205078,-0.16005796194077,8.86860370635986,-14.93936538696289,2.08052802085876
609,2189521651,-107.47538757324219,-86.14811706542969,108.11875152587891,9.88062858581543,-0.67967182397842,-0.22067390382290,9.45238113403320,-13.34562301635742,1.73328340053558
610,2189538318,-110.01291656494141,-86.06528472900391,110.74702453613281,9.78635025024414,-0.52078163623810,-0.29769349098206,6.20846462249756,-11.25213909149170,1.56338095664978
611,2189554985,-112.08229827880859,-85.99049377441406,112.82238006591797,9.79562759399414,-0.64076864719391,-0.33676400780678,1.17989420890808,-9.17913341522217,1.40446639060974
612,2189571652,-113.71840667724609,-85.91966247558594,114.47182464599609,9.76899528503418,-0.76465457677841,-0.35458108782768,1.68098092079163,-7.58878755569458,1.49226653575897
613,2189588319,-115.05609893798828,-85.84635162353516,115.89578247070312,9.76295852661133,-0.64954638481140,-0.18910938501358,6.08395910263062,-6.91362524032593,1.78367531299591
614,2189604986,-116.19454956054688,-85.79322814941406,117.02470397949219,9.78037738800049,-0.38870039582253,-0.24256043136120,0.37233820557594,-5.34116983413696,1.05282926559448
615,2189621653,-117.18534088134766,-85.74646759033203,117.92776489257812,9.81093883514404,-0.66379541158676,-0.45712071657181,-4.28026676177979,-4.33535909652710,1.01797032356262
616,2189638320,-117.85289001464844,-85.70878601074219,118.54961395263672,9.84236240386963,-0.74025732278824,-0.46981486678123,-1.71748530864716,-3.01772713661194,1.03606569766998
617,2189654987,-118.28046417236328,-85.67926788330078,118.97886657714844,9.83160877227783,-0.79199659824371,-0.44636982679367,1.15151500701904,-2.04418802261353,0.96709078550339
618,2189671654,-118.55355072021484,-85.65589141845703,119.25446319580078,9.77294635772705,-0.53880703449249,-0.40185099840164,1.23183631896973,-1.27104282379150,0.95410507917404
619,2189688321,-118.80812072753906,-85.63300323486328,119.48264312744141,9.77335357666016,-0.66364806890488,-0.45687806606293,-0.49670711159706,-1.07817935943604,1.02579498291016
620,2189704988,-119.07828521728516,-85.60595703125000,119.75096130371094,9.69148540496826,-0.65710610151291,-0.36862933635712,0.97013860940933,-1.36126363277435,1.13294565677643
621,2189721655,-119.42049407958984,-85.57680511474609,120.09362030029297,9.70920944213867,-0.64190047979355,-0.32016113400459,1.09352779388428,-1.74097216129303,1.07331943511963
622,2189738322,-119.93768310546875,-85.53990173339844,120.60710144042969,9.72849273681641,-0.58359271287918,-0.21279664337635,0.81263333559036,-2.66833114624023,1.04514527320862
623,2189754989,-120.62272644042969,-85.50215911865234,121.25308227539062,9.74573707580566,-0.60111141204834,-0.27614963054657,-1.33726477622986,-3.26616978645325,0.75045853853226
624,2189771656,-121.37989044189453,-85.46460723876953,121.94747161865234,9.77914714813232,-0.63193261623383,-0.32158336043358,-2.76834869384766,-3.47587418556213,0.54968053102493
625,2189788323,-122.02755737304688,-85.43601989746094,122.51589202880859,9.79986667633057,-0.63835132122040,-0.47665777802467,-3.73600935935974,-2.70832562446594,0.35028570890427
626,2189804990,-122.56198120117188,-85.40918731689453,122.97530364990234,9.78987026214600,-0.70532840490341,-0.62207967042923,-3.46325993537903,-2.22448849678040,0.50014555454254
627,2189821657,-122.87056732177734,-85.38896179199219,123.25217437744141,9.81101036071777,-0.69562131166458,-0.62729310989380,-0.82836598157883,-1.28197968006134,0.61614549160004
628,2189838324,-122.98648071289062,-85.37284851074219,123.36009979248047,9.76776218414307,-0.71540468931198,-0.60879057645798,0.62581431865692,-0.47049245238304,0.84767144918442
629,2189854991,-122.96619415283203,-85.36579132080078,123.32966613769531,9.75145435333252,-0.62695884704590,-0.57038539648056,0.52657788991928,0.38842296600342,0.75462061166763
630,2189871658,-122.87451934814453,-85.36130523681641,123.24649047851562,9.75999832153320,-0.70854920148849,-0.51768410205841,1.64938724040985,0.68877029418945,0.76241958141327
631,2189888325,-122.76232147216797,-85.35792541503906,123.15092468261719,9.76945877075195,-0.62859052419662,-0.46947112679482,2.14496755599976,0.77827394008636,0.73674291372299
632,2189904992,-122.65820312500000,-85.35598754882812,123.04312896728516,9.76305198669434,-0.59788376092911,-0.38055023550987,0.92868441343307,0.87578135728836,0.69708162546158
633,2189921659,-122.58699035644531,-85.35852050781250,122.93994903564453,9.76159000396729,-0.67332494258881,-0.43624266982079,-0.77049398422241,0.99955487251282,0.46027946472168
634,2189938326,-122.49978637695312,-85.36611938476562,122.82779693603516,9.78950023651123,-0.71437418460846,-0.51721715927124,-0.34853765368462,1.19674706459045,0.23191659152508
635,2189954993,-122.36943817138672,-85.37572479248047,122.67981719970703,9.79270362854004,-0.65562629699707,-0.48054379224777,0.09884580969810,1.41135573387146,0.21429504454136
636,2189971660,-122.18978881835938,-85.38777160644531,122.47888183593750,9.75790786743164,-0.66410785913467,-0.45751988887787,-0.10986566543579,1.70853984355927,0.21749663352966
637,2189988327,-121.92129516601562,-85.40445709228516,122.19906616210938,9.80805206298828,-0.67292994260788,-0.43426641821861,0.50406432151794,2.16577792167664,0.19164063036442
638,2190004994,-121.61620330810547,-85.42333221435547,121.89028930664062,9.77821731567383,-0.71975404024124,-0.55369174480438,0.96093076467514,2.34746122360229,0.14329664409161
639,2190021661,-121.25005340576172,-85.43833923339844,121.55155181884766,9.72216415405273,-0.64473628997803,-0.45587021112442,2.83841848373413,2.34538698196411,0.39795088768005
640,2190038328,-120.82295989990234,-85.45601654052734,121.15519714355469,9.78111934661865,-0.70384997129440,-0.42084497213364,3.04584360122681,2.66578936576843,0.37819078564644
641,2190054995,-120.31716156005859,-85.47702026367188,120.68925476074219,9.81842231750488,-0.71145975589752,-0.51148360967636,3.60335469245911,3.03965806961060,0.36110711097717
642,2190071662,-119.70860290527344,-85.49858856201172,120.13314056396484,9.75598621368408,-0.58432525396347,-0.47988381981850,4.37744760513306,3.40721273422241,0.52893435955048
643,2190088329,-118.99858856201172,-85.52836608886719,119.44662475585938,9.77838706970215,-0.63421362638474,-0.40035122632980,2.66316390037537,4.18604373931885,0.33750492334366
644,2190104996,-118.16592407226562,-85.56491851806641,118.62029266357422,9.82424545288086,-0.67840087413788,-0.48451742529869,1.65790390968323,4.93598413467407,0.22565431892872
645,2190121663,-117.12197875976562,-85.60649108886719,117.60010528564453,9.82264709472656,-0.68019652366638,-0.52901542186737,2.73420071601868,5.82292652130127,0.30999693274498
646,2190138330,-115.90515899658203,-85.65260314941406,116.41224670410156,9.78959178924561,-0.69183278083801,-0.53106033802032,3.07222437858582,6.60443353652954,0.25820806622505
647,2190154997,-114.50134277343750,-85.69561767578125,115.06789398193359,9.79372406005859,-0.66416966915131,-0.40221959352493,4.92848014831543,7.09806871414185,0.59377300739288
648,2190171664,-112.95919036865234,-85.74200439453125,113.57906341552734,9.78261280059814,-0.61251151561737,-0.37879976630211,4.57676696777344,7.72645092010498,0.46444159746170
649,2190188331,-111.28179931640625,-85.78960418701172,111.94728088378906,9.80996417999268,-0.65400475263596,-0.39196616411209,4.12844228744507,8.27571582794189,0.40053793787956
650,2190204998,-109.42826843261719,-85.83303833007812,110.15149688720703,9.79773426055908,-0.69312936067581,-0.38862776756287,4.87988042831421,8.79094123840332,0.61996197700500
651,2190221665,-107.41104125976562,-85.87522125244141,108.20247650146484,9.79385852813721,-0.67817312479019,-0.27797323465347,5.52853536605835,9.32535076141357,0.59992009401321
652,2190238332,-105.22718048095703,-85.91237640380859,106.09708404541016,9.81476211547852,-0.68287569284439,-0.33020523190498,6.15844202041626,9.81730747222900,0.72246414422989
653,2190254999,-102.93688964843750,-85.94145965576172,103.90313720703125,9.77661037445068,-0.64159274101257,-0.24299475550652,7.24185991287231,10.00098896026611,0.90996199846268
654,2190271666,-100.57507324218750,-85.96177673339844,101.64369964599609,9.76857185363770,-0.67151862382889,-0.13924418389797,7.60914659500122,10.12718391418457,1.08396208286285
655,2190288333,-98.17972564697266,-85.97406768798828,99.35961151123047,9.75802707672119,-0.65455633401871,-0.10525710880756,8.14249229431152,10.13780021667480,1.16589713096619
656,2190305000,-95.83781433105469,-85.97863769531250,97.12963867187500,9.74578380584717,-0.65718716382980,-0.04573365300894,8.17297077178955,9.86257839202881,1.19294404983521
657,2190321667,-93.60083770751953,-85.97781372070312,94.99269866943359,9.74038028717041,-0.64667075872421,0.00387751869857,7.44474983215332,9.46664333343506,1.12463486194611
658,2190338334,-91.52536010742188,-85.97094726562500,93.01570892333984,9.72955989837646,-0.66601407527924,0.03420739620924,7.33445024490356,8.81093311309814,1.09665310382843
659,2190355001,-89.64070892333984,-85.96027374267578,91.21682739257812,9.72972393035889,-0.60474801063538,0.10047858208418,6.54288911819458,8.09468650817871,1.02313184738159
660,2190371668,-88.00521850585938,-85.94773864746094,89.65359497070312,9.71073532104492,-0.64117813110352,0.15135388076305,5.69792413711548,7.13790941238403,0.94032573699951
661,2190388335,-86.56210327148438,-85.93389129638672,88.26589965820312,9.73735141754150,-0.65479922294617,0.16390828788280,4.65598583221436,6.43221426010132,0.85467660427094
662,2190405002,-85.34329986572266,-85.92138671875000,87.09243774414062,9.72518062591553,-0.63779443502426,0.15094429254532,4.03054952621460,5.54207086563110,0.71877568960190
663,2190421669,-84.30078125000000,-85.90715789794922,86.07873535156250,9.72453975677490,-0.62389123439789,0.14819252490997,3.00821828842163,4.89451646804810,0.77326661348343
664,2190438336,-83.37874603271484,-85.89425659179688,85.18916320800781,9.76139068603516,-0.68231219053268,0.13394621014595,3.21141600608826,4.37707567214966,0.67492657899857
665,2190455003,-82.57539367675781,-85.88068389892578,84.42095947265625,9.71852016448975,-0.63010638952255,0.13737103343010,3.35848522186279,3.88156032562256,0.72968673706055
666,2190471670,-81.95525360107422,-85.86615753173828,83.82736206054688,9.72475242614746,-0.65737622976303,0.17328393459320,2.81006550788879,3.15581178665161,0.83941149711609
667,2190488337,-81.44458007812500,-85.85338592529297,83.33148956298828,9.73986530303955,-0.64814436435699,0.18515303730965,2.09475374221802,2.73309898376465,0.75663107633591
668,2190505004,-81.08699798583984,-85.84376525878906,82.98291015625000,9.74544048309326,-0.68778353929520,0.19891892373562,1.72294700145721,2.08080768585205,0.66095495223999
669,2190521671,-80.87720489501953,-85.83717346191406,82.76486206054688,9.70764064788818,-0.56781578063965,0.21898850798607,0.66744780540466,1.49422574043274,0.56119346618652
670,2190538338,-80.80198669433594,-85.83378601074219,82.64960479736328,9.76328563690186,-0.71792459487915,0.14832213521004,-1.25737869739532,1.02347707748413,0.43520462512970
