sep=,
DeviceTag:,Xsens_DOT_4
FirmwareVersion:,3.0.0
AppVersion:,2023.6.0
StartTime: ,2025-04-09_10:55:28_000 CEST
© Movella Technologies B. V. 2005-2025

PacketCounter,SampleTimeFine,Euler_X,Euler_Y,Euler_Z,Acc_X,Acc_Y,Acc_Z,Gyr_X,Gyr_Y,Gyr_Z
0,1983084189,-20.12222862243652,-85.88434600830078,82.26812744140625,0.00000000000000,0.00000000000000,0.00000000000000,0.00000000000000,0.00000000000000,0.00000000000000
1,1983100856,-20.21971893310547,-85.89001464843750,82.39955139160156,9.76582145690918,-0.31423944234848,0.78387010097504,1.07554137706757,-0.50534492731094,-0.78695660829544
2,1983117523,-20.31166458129883,-85.89726257324219,82.50116729736328,9.78170108795166,-0.30104488134384,0.79534137248993,0.35188007354736,-0.56331932544708,-0.89282667636871
3,1983134190,-20.37934112548828,-85.90705108642578,82.57299804687500,9.75197219848633,-0.33574238419533,0.85500949621201,0.28407680988312,-0.66436773538589,-1.04960834980011
4,1983150857,-20.45803260803223,-85.92182159423828,82.65158081054688,9.75879764556885,-0.36750280857086,0.90411388874054,-0.00684499461204,-0.95140290260315,-1.13057661056519
5,1983167524,-20.52589988708496,-85.93807983398438,82.73989105224609,9.78999042510986,-0.31551265716553,0.87052953243256,1.20126116275787,-1.03741037845612,-1.12281584739685
6,1983184191,-20.61140823364258,-85.95891571044922,82.83330535888672,9.77332496643066,-0.32178583741188,0.81012523174286,0.90293723344803,-1.32267177104950,-1.17625689506531
7,1983200858,-20.67807006835938,-85.98161315917969,82.91657257080078,9.77478408813477,-0.34371224045753,0.81337052583694,0.74086004495621,-1.40039348602295,-1.30612599849701
8,1983217525,-20.72883796691895,-86.00384521484375,82.98353576660156,9.77561187744141,-0.30530354380608,0.83533209562302,0.86342966556549,-1.33716857433319,-1.34939861297607
9,1983234192,-20.76525688171387,-86.02798461914062,83.03232574462891,9.78706169128418,-0.30969163775444,0.79814291000366,0.34278756380081,-1.40555441379547,-1.48035633563995
10,1983250859,-20.79727363586426,-86.05693054199219,83.06999969482422,9.76919555664062,-0.35401538014412,0.80980145931244,-0.12490672618151,-1.67483365535736,-1.63956511020660
11,1983267526,-20.85706520080566,-86.08554077148438,83.13339996337891,9.76458835601807,-0.29667869210243,0.81804347038269,0.31422942876816,-1.69493973255157,-1.49627470970154
12,1983284193,-20.93160820007324,-86.11133575439453,83.23335266113281,9.80142784118652,-0.30591782927513,0.81551760435104,0.86622154712677,-1.57345879077911,-1.34654295444489
13,1983300860,-21.02028656005859,-86.13385772705078,83.32408142089844,9.78021049499512,-0.24647668004036,0.76374006271362,0.16972252726555,-1.39655160903931,-1.27450716495514
14,1983317527,-21.11047363281250,-86.15574645996094,83.42243957519531,9.76502990722656,-0.28635400533676,0.71389168500900,0.41920301318169,-1.36823654174805,-1.24308013916016
15,1983334194,-21.22924232482910,-86.17745971679688,83.56489562988281,9.75829982757568,-0.27881982922554,0.76478624343872,1.08322501182556,-1.40934503078461,-1.09236240386963
16,1983350861,-21.35230064392090,-86.19816589355469,83.70916748046875,9.76616764068604,-0.33827883005142,0.77633529901505,1.01898837089539,-1.34804117679596,-1.06052577495575
17,1983367528,-21.49082946777344,-86.21788787841797,83.87944030761719,9.77898311614990,-0.27795252203941,0.76365983486176,0.99907439947128,-1.32801198959351,-0.99244707822800
18,1983384195,-21.63212203979492,-86.23537445068359,84.03410339355469,9.76214313507080,-0.30526798963547,0.73998802900314,0.91076207160950,-1.20238184928894,-0.94601160287857
19,1983400862,-21.76858139038086,-86.25027465820312,84.18299865722656,9.78825187683105,-0.32352408766747,0.75376945734024,0.68017089366913,-1.04412102699280,-0.92549574375153
20,1983417529,-21.89907264709473,-86.26608276367188,84.33768463134766,9.74229335784912,-0.25489908456802,0.74951881170273,1.20100486278534,-1.11765480041504,-0.94925129413605
21,1983434196,-22.03989410400391,-86.28306579589844,84.50022125244141,9.75921821594238,-0.36638966202736,0.74281239509583,1.40540707111359,-1.18080306053162,-0.92129522562027
22,1983450863,-22.17442131042480,-86.30393218994141,84.64101409912109,9.78071117401123,-0.31547725200653,0.78118318319321,0.40514168143272,-1.35016703605652,-1.09300279617310
23,1983467530,-22.26594161987305,-86.32315826416016,84.75680541992188,9.76194763183594,-0.34668850898743,0.75424510240555,1.32088553905487,-1.23063278198242,-1.16745901107788
24,1983484197,-22.37747764587402,-86.34623718261719,84.87036132812500,9.74398994445801,-0.35233506560326,0.73317140340805,0.12185242027044,-1.44266724586487,-1.25915217399597
25,1983500864,-22.51964378356934,-86.37183380126953,85.01898193359375,9.77628421783447,-0.29277184605598,0.75811892747879,0.17608729004860,-1.63048517704010,-1.21304941177368
26,1983517531,-22.62885475158691,-86.40119934082031,85.14325714111328,9.79236984252930,-0.36069354414940,0.71871465444565,0.77748626470566,-1.78304719924927,-1.37814891338348
27,1983534198,-22.74456024169922,-86.43349456787109,85.27971649169922,9.73283481597900,-0.31823182106018,0.72532922029495,1.30266189575195,-1.98488819599152,-1.41003668308258
28,1983550865,-22.88888740539551,-86.46387481689453,85.44111633300781,9.74882125854492,-0.30209910869598,0.72479283809662,1.07116150856018,-1.89583277702332,-1.28055167198181
29,1983567532,-23.01521301269531,-86.49334716796875,85.58432006835938,9.78928565979004,-0.37778326869011,0.69330084323883,0.79419869184494,-1.82442462444305,-1.35275399684906
30,1983584199,-23.13528060913086,-86.52019500732422,85.72381591796875,9.79181957244873,-0.26073125004768,0.68426692485809,1.44164919853210,-1.68844664096832,-1.28541815280914
31,1983600866,-23.25459098815918,-86.54544067382812,85.85115814208984,9.76526260375977,-0.33522555232048,0.64437550306320,0.58325237035751,-1.55686795711517,-1.29761624336243
32,1983617533,-23.36420440673828,-86.56806945800781,85.96020507812500,9.77317047119141,-0.32766219973564,0.72671437263489,0.03656212612987,-1.39888226985931,-1.31035208702087
33,1983634200,-23.43869972229004,-86.58964538574219,86.04887390136719,9.74521732330322,-0.31112435460091,0.69328880310059,0.81301116943359,-1.30266821384430,-1.36215376853943
34,1983650867,-23.54895210266113,-86.61389923095703,86.16354370117188,9.78136157989502,-0.31433326005936,0.70044100284576,0.13018932938576,-1.47944700717926,-1.34798991680145
35,1983667534,-23.63398170471191,-86.63419342041016,86.26172637939453,9.79015445709229,-0.30864158272743,0.68066209554672,0.80687671899796,-1.25620675086975,-1.31160700321198
36,1983684201,-23.74228858947754,-86.65683746337891,86.36730194091797,9.75709056854248,-0.27165168523788,0.64307135343552,-0.20585565268993,-1.38085079193115,-1.34542846679688
37,1983700868,-23.81530952453613,-86.67810821533203,86.43381500244141,9.76546192169189,-0.33506783843040,0.64151483774185,-0.37450245022774,-1.24702465534210,-1.43827462196350
38,1983717535,-23.88510704040527,-86.69903564453125,86.49993133544922,9.78069591522217,-0.35537722706795,0.67063766717911,0.21437828242779,-1.24624347686768,-1.41670882701874
39,1983734202,-23.92362213134766,-86.71998596191406,86.54404449462891,9.76821899414062,-0.32846266031265,0.70250070095062,0.49723216891289,-1.19673407077789,-1.49882316589355
40,1983750869,-23.96987915039062,-86.74118041992188,86.59181213378906,9.76706123352051,-0.32380443811417,0.64156860113144,0.02594566345215,-1.23314249515533,-1.51782786846161
41,1983767536,-23.99011611938477,-86.76021575927734,86.61734008789062,9.76114177703857,-0.28683200478554,0.60371750593185,0.48719194531441,-1.06868338584900,-1.51604759693146
42,1983784203,-24.00383186340332,-86.77790832519531,86.62459564208984,9.76905727386475,-0.31350153684616,0.60128200054169,-0.56448459625244,-0.96137899160385,-1.55824446678162
43,1983800870,-23.98811340332031,-86.79460144042969,86.60140228271484,9.78681182861328,-0.34147089719772,0.68565589189529,-0.36318165063858,-0.87725412845612,-1.61938202381134
44,1983817537,-23.94900703430176,-86.81150054931641,86.56556701660156,9.78523445129395,-0.31688815355301,0.67928093671799,0.03852149844170,-0.84608346223831,-1.66497266292572
45,1983834204,-23.89715766906738,-86.82701110839844,86.50792694091797,9.77717208862305,-0.32149922847748,0.64386707544327,-0.38896083831787,-0.77376604080200,-1.70595300197601
46,1983850871,-23.81945228576660,-86.84142303466797,86.41854858398438,9.76172542572021,-0.32477793097496,0.63429546356201,-0.25960391759872,-0.67054682970047,-1.74604964256287
47,1983867538,-23.72900009155273,-86.85191345214844,86.32893371582031,9.77255630493164,-0.29342427849770,0.60849046707153,-0.36006975173950,-0.42373013496399,-1.68632102012634
48,1983884205,-23.61865043640137,-86.85845184326172,86.18904876708984,9.79917240142822,-0.31185367703438,0.62194007635117,-1.24186384677887,-0.19723699986935,-1.71192097663879
49,1983900872,-23.46796417236328,-86.86163330078125,86.00665283203125,9.81701278686523,-0.30491438508034,0.62857472896576,-1.77058684825897,0.07700458168983,-1.76851224899292
50,1983917539,-23.28053665161133,-86.86444091796875,85.79946136474609,9.78019428253174,-0.33145233988762,0.61471879482269,-1.60167098045349,0.13865435123444,-1.86253643035889
51,1983934206,-23.10313987731934,-86.86450195312500,85.58911895751953,9.75277137756348,-0.25483012199402,0.65434169769287,-1.97721731662750,0.27787217497826,-1.78914320468903
52,1983950873,-22.93641281127930,-86.86612701416016,85.39065551757812,9.74990367889404,-0.32293877005577,0.62967509031296,-2.20610523223877,0.18405286967754,-1.80476689338684
53,1983967540,-22.81381797790527,-86.86849975585938,85.24028015136719,9.76486492156982,-0.23722185194492,0.66404443979263,-1.66572833061218,0.06065087392926,-1.66495990753174
54,1983984207,-22.71585655212402,-86.87512969970703,85.12998962402344,9.71884441375732,-0.30134955048561,0.63793087005615,-0.76067799329758,-0.21393649280071,-1.63728559017181
55,1984000874,-22.70736312866211,-86.88253784179688,85.12356567382812,9.72835445404053,-0.25249403715134,0.60608237981796,-0.27034845948219,-0.39690077304840,-1.36374187469482
56,1984017541,-22.70117378234863,-86.89121246337891,85.11105346679688,9.76964092254639,-0.29637724161148,0.63355284929276,-0.02034288644791,-0.45610457658768,-1.36589324474335
57,1984034208,-22.70734977722168,-86.90408325195312,85.11064910888672,9.76285839080811,-0.31258055567741,0.66808164119720,-0.30568113923073,-0.70256268978119,-1.44132256507874
58,1984050875,-22.75490951538086,-86.91783905029297,85.16667175292969,9.76422405242920,-0.32350397109985,0.67668455839157,0.17086231708527,-0.79732984304428,-1.30642068386078
59,1984067542,-22.80797958374023,-86.92890930175781,85.23316192626953,9.79416084289551,-0.29754418134689,0.63330912590027,0.80970716476440,-0.69048643112183,-1.20713305473328
60,1984084209,-22.83719635009766,-86.93746185302734,85.28833770751953,9.77537155151367,-0.26989829540253,0.62185257673264,0.62885582447052,-0.50674086809158,-1.22387087345123
61,1984100876,-22.86342239379883,-86.94776916503906,85.30960083007812,9.76094818115234,-0.29232957959175,0.60743099451065,0.03012053482234,-0.58517974615097,-1.30542159080505
62,1984117543,-22.88498497009277,-86.95650482177734,85.32433319091797,9.77039146423340,-0.30557638406754,0.64493012428284,-0.43790674209595,-0.49901863932610,-1.31377148628235
63,1984134210,-22.89874839782715,-86.96430206298828,85.33918762207031,9.75782489776611,-0.27352297306061,0.62229132652283,-0.09677117317915,-0.44443792104721,-1.29749441146851
64,1984150877,-22.91890907287598,-86.97172546386719,85.36199951171875,9.76316452026367,-0.28655683994293,0.62650084495544,0.00203620968387,-0.41434305906296,-1.25753879547119
65,1984167544,-22.96772384643555,-86.98299407958984,85.40419769287109,9.73636722564697,-0.26148214936256,0.62729412317276,-0.53883355855942,-0.65327107906342,-1.29171872138977
66,1984184211,-23.05354881286621,-86.99762725830078,85.47705841064453,9.75390243530273,-0.28287428617477,0.63924014568329,-0.44717848300934,-0.88537347316742,-1.25883221626282
67,1984200878,-23.13593864440918,-87.01082611083984,85.56177520751953,9.76276779174805,-0.33486741781235,0.64542323350906,0.22598083317280,-0.82303202152252,-1.20783734321594
68,1984217545,-23.20011329650879,-87.02270507812500,85.65209197998047,9.79670810699463,-0.31470599770546,0.62413090467453,1.04562580585480,-0.75540173053741,-1.19592750072479
69,1984234212,-23.32162094116211,-87.03773498535156,85.77449035644531,9.79503536224365,-0.28917735815048,0.62737065553665,0.06263585388660,-0.96345371007919,-1.14954268932343
70,1984250879,-23.42666625976562,-87.05403137207031,85.88468170166016,9.74085617065430,-0.32732510566711,0.62402117252350,0.14104914665222,-0.99484205245972,-1.21737802028656
71,1984267546,-23.51318931579590,-87.06842803955078,85.97602844238281,9.76443386077881,-0.27899274230003,0.62915909290314,0.62373328208923,-0.89848715066910,-1.21732676029205
72,1984284213,-23.61784934997559,-87.08456420898438,86.08843231201172,9.77469539642334,-0.29960289597511,0.58810156583786,0.37813308835030,-1.00682890415192,-1.21955513954163
73,1984300880,-23.68816184997559,-87.09828948974609,86.15439605712891,9.78561115264893,-0.30859586596489,0.61693698167801,0.10102929919958,-0.83159959316254,-1.27879738807678
74,1984317547,-23.73194313049316,-87.10984802246094,86.21332550048828,9.75971126556396,-0.25581699609756,0.58987194299698,0.76589655876160,-0.68508213758469,-1.26663124561310
75,1984334214,-23.81746101379395,-87.12064361572266,86.28645324707031,9.75936889648438,-0.29668498039246,0.56795257329941,-0.25891238451004,-0.67705255746841,-1.18359494209290
76,1984350881,-23.92344856262207,-87.13112640380859,86.39306640625000,9.75398349761963,-0.29262852668762,0.59751266241074,-0.00808721035719,-0.69706881046295,-1.11287832260132
77,1984367548,-24.04068374633789,-87.14254760742188,86.52138519287109,9.74519920349121,-0.26854532957077,0.57649993896484,0.69863760471344,-0.76175373792648,-1.06723642349243
78,1984384215,-24.19311523437500,-87.15174102783203,86.67919921875000,9.77603816986084,-0.28655889630318,0.60464161634445,0.36486575007439,-0.68814283609390,-0.94038951396942
79,1984400882,-24.34747886657715,-87.16248321533203,86.84638214111328,9.75593376159668,-0.30625775456429,0.58581012487411,0.48428496718407,-0.76463514566422,-0.96505451202393
80,1984417549,-24.48572731018066,-87.17395782470703,86.99824523925781,9.75612354278564,-0.30874541401863,0.57170993089676,0.68026053905487,-0.79521673917770,-1.02492415904999
81,1984434216,-24.64130592346191,-87.18395233154297,87.16033935546875,9.78406333923340,-0.31054091453552,0.58151847124100,0.71978086233139,-0.74473404884338,-0.94731765985489
82,1984450883,-24.77384567260742,-87.19342041015625,87.29380035400391,9.74867439270020,-0.28166690468788,0.55611515045166,0.20356974005699,-0.66628247499466,-1.01995539665222
83,1984467550,-24.90714836120605,-87.20418548583984,87.43263244628906,9.75256919860840,-0.31330257654190,0.57124245166779,0.12755125761032,-0.72713816165924,-1.05133092403412
84,1984484217,-25.04819679260254,-87.21385955810547,87.56968688964844,9.75281047821045,-0.30859461426735,0.58593773841858,0.11525715142488,-0.69486612081528,-1.01620304584503
85,1984500884,-25.20964050292969,-87.22230529785156,87.74449920654297,9.74392890930176,-0.28332033753395,0.59089016914368,0.99662858247757,-0.66541147232056,-0.89068800210953
86,1984517551,-25.42499923706055,-87.22787475585938,87.98539733886719,9.76558017730713,-0.28110000491142,0.57052677869797,0.95074331760406,-0.57597196102142,-0.67855077981949
87,1984534218,-25.62172698974609,-87.23155212402344,88.20030975341797,9.78450298309326,-0.32899996638298,0.54275679588318,0.94805407524109,-0.44785723090172,-0.68111205101013
88,1984550885,-25.78580856323242,-87.23416900634766,88.37206268310547,9.79113483428955,-0.29714107513428,0.56593412160873,0.73495638370514,-0.34622606635094,-0.75246906280518
89,1984567552,-25.94959068298340,-87.23713684082031,88.54122924804688,9.75378608703613,-0.30068349838257,0.54989439249039,0.08503415435553,-0.36698514223099,-0.80017274618149
90,1984584219,-26.13326263427734,-87.24125671386719,88.72519683837891,9.75085067749023,-0.29632410407066,0.52984225749969,-0.00615345034748,-0.44625645875931,-0.78074550628662
91,1984600886,-26.31154441833496,-87.24793243408203,88.91725158691406,9.72126865386963,-0.33904054760933,0.55591762065887,0.69409132003784,-0.57948088645935,-0.82663065195084
92,1984617553,-26.49133872985840,-87.25634002685547,89.11192321777344,9.73068046569824,-0.30274185538292,0.56575196981430,0.76161932945251,-0.66898459196091,-0.86734211444855
93,1984634220,-26.68500137329102,-87.26377105712891,89.30491638183594,9.73942279815674,-0.31957685947418,0.58150172233582,0.17795702815056,-0.63887673616409,-0.84289473295212
94,1984650887,-26.86957550048828,-87.27136230468750,89.50556945800781,9.80623054504395,-0.32156771421432,0.53264647722244,0.70838326215744,-0.64926266670227,-0.85201281309128
95,1984667554,-27.04368209838867,-87.27710723876953,89.67398834228516,9.74941825866699,-0.25805449485779,0.55631899833679,0.27411988377571,-0.51777988672256,-0.84712076187134
96,1984684221,-27.21381378173828,-87.27990722656250,89.85093688964844,9.77071857452393,-0.32179346680641,0.52773976325989,0.39825186133385,-0.35630467534065,-0.77084624767303
97,1984700888,-27.37741851806641,-87.28185272216797,90.02123260498047,9.71919631958008,-0.31989178061485,0.54343897104263,0.65749722719193,-0.33507812023163,-0.76963597536087
98,1984717555,-27.53077697753906,-87.28271484375000,90.20333862304688,9.75976562500000,-0.30719736218452,0.54798775911331,0.50179117918015,-0.25153595209122,-0.76490408182144
99,1984734222,-27.72484588623047,-87.28459167480469,90.40836334228516,9.77949523925781,-0.31779330968857,0.56443995237350,0.84188938140869,-0.35638150572777,-0.67331308126450
100,1984750889,-27.91819953918457,-87.28516387939453,90.62081909179688,9.76363945007324,-0.36795151233673,0.54496777057648,0.87115192413330,-0.29265710711479,-0.64088732004166
101,1984767556,-28.06163978576660,-87.28329467773438,90.78897857666016,9.73542213439941,-0.31208583712578,0.55265498161316,1.34896969795227,-0.10565878450871,-0.67883259057999
102,1984784223,-28.18270683288574,-87.28314971923828,90.91957855224609,9.77286911010742,-0.38456866145134,0.51564329862595,0.54501259326935,-0.16073888540268,-0.82369798421860
103,1984800890,-28.25911140441895,-87.28279113769531,91.00262451171875,9.78798294067383,-0.30111071467400,0.55643105506897,0.61900132894516,-0.08025740832090,-0.92382448911667
104,1984817557,-28.32929039001465,-87.27911376953125,91.08399963378906,9.75308895111084,-0.33628258109093,0.52691638469696,0.53214222192764,0.11407895386219,-0.84350937604904
105,1984834224,-28.34888458251953,-87.27574157714844,91.10650634765625,9.74562358856201,-0.35837695002556,0.53568035364151,-0.10437814891338,0.14934763312340,-1.02411735057831
106,1984850891,-28.35421180725098,-87.27279663085938,91.09716033935547,9.74462890625000,-0.36636000871658,0.55318999290466,-0.16630326211452,0.16922952234745,-1.06682014465332
107,1984867558,-28.32224082946777,-87.26834869384766,91.06156921386719,9.75645160675049,-0.30920797586441,0.55761963129044,0.14405220746994,0.29243937134743,-1.10608434677124
108,1984884225,-28.27802467346191,-87.26104736328125,91.01832580566406,9.79176712036133,-0.32658872008324,0.54957985877991,0.01290880143642,0.45102685689926,-1.06695461273193
109,1984900892,-28.20452117919922,-87.25305938720703,90.94649505615234,9.75233554840088,-0.29614213109016,0.54745209217072,-0.01532279793173,0.55118530988693,-1.11196899414062
110,1984917559,-28.13810539245605,-87.24295806884766,90.88081359863281,9.73834514617920,-0.37454327940941,0.55681043863297,-0.15153113007545,0.64618283510208,-1.04683589935303
111,1984934226,-28.07152557373047,-87.23515319824219,90.82434844970703,9.75390434265137,-0.35671463608742,0.52909195423126,0.02515167370439,0.50678569078445,-1.11244285106659
112,1984950893,-28.03471565246582,-87.22908020019531,90.79515838623047,9.76680374145508,-0.33791971206665,0.55423444509506,0.07220219820738,0.38638034462929,-1.07804477214813
113,1984967560,-27.97458648681641,-87.22286987304688,90.72242736816406,9.77631282806396,-0.34388691186905,0.56236588954926,-0.07429603487253,0.43560796976089,-1.14082169532776
114,1984984227,-27.90560913085938,-87.21568298339844,90.66423797607422,9.76302623748779,-0.34583812952042,0.55656975507736,0.36683791875839,0.48086565732956,-1.12090790271759
115,1985000894,-27.83740806579590,-87.20950317382812,90.60020446777344,9.73101043701172,-0.34040266275406,0.56264686584473,0.22429041564465,0.42237907648087,-1.15912199020386
116,1985017561,-27.79051780700684,-87.20677185058594,90.56135559082031,9.74782276153564,-0.33696809411049,0.57036346197128,0.10707389563322,0.23672538995743,-1.19094574451447
117,1985034228,-27.76176452636719,-87.20543670654297,90.51969909667969,9.76115894317627,-0.35001504421234,0.57615852355957,0.18857352435589,0.12411914765835,-1.19042074680328
118,1985050895,-27.74668312072754,-87.20571899414062,90.50521850585938,9.76946640014648,-0.34647276997566,0.55370193719864,-0.02812914736569,0.01509868726134,-1.21106433868408
119,1985067562,-27.74387359619141,-87.20600128173828,90.49325561523438,9.78660869598389,-0.32012650370598,0.54504263401031,0.02435767650604,0.01147448923439,-1.17049396038055
120,1985084229,-27.74879074096680,-87.20768737792969,90.49599456787109,9.75029182434082,-0.32617944478989,0.55724793672562,-0.04244664683938,-0.07848371565342,-1.19542789459229
121,1985100896,-27.75387382507324,-87.20866394042969,90.49966430664062,9.75922489166260,-0.34534457325935,0.56202894449234,0.12136577814817,-0.03402006626129,-1.16135036945343
122,1985117563,-27.75933456420898,-87.20915222167969,90.50978851318359,9.77515697479248,-0.34980967640877,0.54614073038101,0.56044429540634,-0.01701323688030,-1.12807953357697
123,1985134230,-27.74183082580566,-87.20711517333984,90.49767303466797,9.76594543457031,-0.31060197949409,0.54607349634171,0.01942723244429,0.13987095654011,-1.15282106399536
124,1985150897,-27.73567771911621,-87.20410919189453,90.48892974853516,9.74825096130371,-0.34849685430527,0.51047194004059,-0.24582427740097,0.18396320939064,-1.10641098022461
125,1985167564,-27.75529098510742,-87.19949340820312,90.50404357910156,9.72881126403809,-0.32289838790894,0.54925161600113,-0.24916674196720,0.24479337036610,-0.98827236890793
126,1985184231,-27.76458549499512,-87.19132995605469,90.52253723144531,9.77887916564941,-0.31583774089813,0.54332476854324,0.38922333717346,0.43106171488762,-0.88837003707886
127,1985200898,-27.75773239135742,-87.18220520019531,90.52177429199219,9.79555511474609,-0.28804534673691,0.54754573106766,0.28582489490509,0.50469821691513,-0.91093486547470
128,1985217565,-27.78361129760742,-87.17049407958984,90.55223846435547,9.75630855560303,-0.31622165441513,0.54715752601624,-0.17842447757721,0.61222034692764,-0.76761895418167
129,1985234232,-27.81227684020996,-87.15800476074219,90.58823394775391,9.73787403106689,-0.36344555020332,0.54089993238449,-0.01173701789230,0.62711411714554,-0.74159651994705
130,1985250899,-27.83416938781738,-87.14693450927734,90.61996459960938,9.74736976623535,-0.35172700881958,0.56460148096085,0.35382664203644,0.56491374969482,-0.77625054121017
131,1985267566,-27.89122009277344,-87.13802337646484,90.67793273925781,9.77189826965332,-0.37571156024933,0.58618855476379,0.00911812111735,0.41388836503029,-0.75555539131165
132,1985284233,-27.92338371276855,-87.12771606445312,90.72132110595703,9.79229545593262,-0.33487263321877,0.59881484508514,0.68740636110306,0.49985742568970,-0.75577300786972
133,1985300900,-27.96134757995605,-87.11608886718750,90.76207733154297,9.76973342895508,-0.32463139295578,0.55729663372040,0.31037470698357,0.56346666812897,-0.72366762161255
134,1985317567,-28.01405525207520,-87.10416412353516,90.81941223144531,9.72915935516357,-0.34693059325218,0.51005464792252,0.33177408576012,0.56157118082047,-0.67022663354874
135,1985334234,-28.05982971191406,-87.09202575683594,90.87937164306641,9.73482418060303,-0.35790184140205,0.57260370254517,0.18104335665703,0.59838944673538,-0.68115049600601
136,1985350901,-28.09999847412109,-87.08046722412109,90.90496063232422,9.74209690093994,-0.33097177743912,0.56437832117081,-0.36035147309303,0.57088142633438,-0.74881923198700
137,1985367568,-28.14526557922363,-87.06775665283203,90.95371246337891,9.77524089813232,-0.35358861088753,0.57700937986374,0.12232624739408,0.62072378396988,-0.67399173974991
138,1985384235,-28.19197845458984,-87.05416870117188,91.00495147705078,9.77299308776855,-0.34512951970100,0.59578663110733,0.26577016711235,0.65380245447159,-0.64134836196899
139,1985400902,-28.22234725952148,-87.03865814208984,91.03633117675781,9.75141334533691,-0.33677655458450,0.56001895666122,-0.15164639055729,0.78511881828308,-0.65103000402451
140,1985417569,-28.25863838195801,-87.02297210693359,91.08242797851562,9.74733066558838,-0.40145963430405,0.57420790195465,0.00257407641038,0.80738914012909,-0.60817998647690
141,1985434236,-28.26268005371094,-87.00617980957031,91.08731842041016,9.74820232391357,-0.36139979958534,0.59114021062851,0.56082844734192,0.87973219156265,-0.65279728174210
142,1985450903,-28.30198860168457,-86.98981475830078,91.12617492675781,9.74937343597412,-0.30960059165955,0.59146696329117,0.09805821627378,0.82247495651245,-0.58307951688766
143,1985467570,-28.33868408203125,-86.97366333007812,91.17109680175781,9.77167415618896,-0.34469565749168,0.57427132129669,-0.06161775067449,0.81995213031769,-0.59957408905029
144,1985484237,-28.36634254455566,-86.95779418945312,91.20030975341797,9.76220798492432,-0.38444021344185,0.56439495086670,0.02461380325258,0.80521202087402,-0.63718634843826
145,1985500904,-28.39668846130371,-86.94084930419922,91.23520660400391,9.76780891418457,-0.39752745628357,0.59180057048798,-0.01151931192726,0.86633682250977,-0.59483581781387
146,1985517571,-28.42273712158203,-86.92197418212891,91.26087951660156,9.73692035675049,-0.34588542580605,0.54908150434494,-0.07585841417313,0.97356438636780,-0.55485433340073
147,1985534238,-28.42202377319336,-86.90332794189453,91.26185607910156,9.77999782562256,-0.40834549069405,0.59414845705032,-0.17194446921349,0.99318367242813,-0.64950603246689
148,1985550905,-28.39659500122070,-86.88203430175781,91.24986267089844,9.76339817047119,-0.31880450248718,0.58414554595947,0.45950466394424,1.17987465858459,-0.60130298137665
149,1985567572,-28.39133453369141,-86.86375427246094,91.23468017578125,9.72839164733887,-0.40092632174492,0.55518954992294,-0.77526438236237,1.00575947761536,-0.69919461011887
150,1985584239,-28.39063453674316,-86.84830474853516,91.22786712646484,9.70090961456299,-0.39762628078461,0.59620726108551,-0.29526954889297,0.84261935949326,-0.74080240726471
151,1985600906,-28.40868568420410,-86.83683776855469,91.25248718261719,9.79701042175293,-0.41999566555023,0.63646286725998,0.43782350420952,0.59173023700714,-0.75928217172623
152,1985617573,-28.44725799560547,-86.82540893554688,91.30461120605469,9.79077911376953,-0.38782322406769,0.64612889289856,0.50140696763992,0.53880149126053,-0.70344644784927
153,1985634240,-28.45370864868164,-86.81334686279297,91.32033538818359,9.75222301483154,-0.39314344525337,0.61382770538330,0.57193154096603,0.62743425369263,-0.77491861581802
154,1985650907,-28.47941207885742,-86.80487823486328,91.35707092285156,9.72004032135010,-0.37139222025871,0.58661913871765,0.71949905157089,0.41032823920250,-0.80908584594727
155,1985667574,-28.48758888244629,-86.79685974121094,91.37833404541016,9.76426315307617,-0.41380092501640,0.60236996412277,0.46425575017929,0.43034455180168,-0.88005870580673
156,1985684241,-28.49641418457031,-86.79246520996094,91.38974761962891,9.73670673370361,-0.39338698983192,0.61783462762833,0.26854914426804,0.22704376280308,-1.00274348258972
157,1985700908,-28.53823471069336,-86.79021453857422,91.44612884521484,9.77122402191162,-0.39977845549583,0.64873450994492,0.93254560232162,0.06298162788153,-0.91982257366180
158,1985717575,-28.58846092224121,-86.78423309326172,91.50963592529297,9.77305412292480,-0.38570371270180,0.58086609840393,1.09357261657715,0.22166509926319,-0.79125952720642
159,1985734242,-28.62192344665527,-86.77475738525391,91.58018493652344,9.76585865020752,-0.38346073031425,0.60180306434631,1.49101758003235,0.43340528011322,-0.71298706531525
160,1985750909,-28.64439773559570,-86.76481628417969,91.60722351074219,9.77489185333252,-0.40502405166626,0.59028464555740,0.78312110900879,0.47647309303284,-0.77956736087799
161,1985767576,-28.65908050537109,-86.75339508056641,91.64929962158203,9.77909755706787,-0.37829637527466,0.62889117002487,1.23821389675140,0.56069397926331,-0.73208779096603
162,1985784243,-28.70388031005859,-86.74111175537109,91.71255493164062,9.76490879058838,-0.37027707695961,0.60440254211426,0.90298861265182,0.56942158937454,-0.63068073987961
163,1985800910,-28.76721382141113,-86.72774505615234,91.81543731689453,9.76576900482178,-0.38902315497398,0.59375303983688,1.12529385089874,0.58589047193527,-0.52976667881012
164,1985817577,-28.83827781677246,-86.71627807617188,91.90876007080078,9.74446868896484,-0.35708716511726,0.58323138952255,1.29468369483948,0.46880209445953,-0.55409878492355
165,1985834244,-28.93683052062988,-86.70426177978516,92.02220153808594,9.73752403259277,-0.38184601068497,0.56896138191223,0.81265252828598,0.47263112664223,-0.47226613759995
166,1985850911,-29.00899505615234,-86.69156646728516,92.10831451416016,9.75093460083008,-0.42697688937187,0.62604379653931,0.35066342353821,0.56285184621811,-0.55349683761597
167,1985867578,-29.07830429077148,-86.67681121826172,92.18213653564453,9.78582000732422,-0.40103605389595,0.59268641471863,0.82680356502533,0.64264827966690,-0.49165499210358
168,1985884245,-29.14965629577637,-86.66211700439453,92.25081634521484,9.75019645690918,-0.40036791563034,0.61108708381653,-0.29138922691345,0.68227100372314,-0.52951055765152
169,1985900912,-29.16973304748535,-86.64701843261719,92.26832580566406,9.73592758178711,-0.43869456648827,0.63188022375107,-0.21118310093880,0.77658981084824,-0.67883259057999
170,1985917579,-29.18415641784668,-86.63570404052734,92.28182983398438,9.74236297607422,-0.46353203058243,0.64585918188095,0.04293968901038,0.60562497377396,-0.77863240242004
171,1985934246,-29.20445442199707,-86.62589263916016,92.28998565673828,9.78943443298340,-0.43038237094879,0.64458215236664,-0.20769977569580,0.49919152259827,-0.83285456895828
172,1985950913,-29.21522521972656,-86.61968231201172,92.29434967041016,9.75476837158203,-0.41878309845924,0.65170383453369,-0.14885462820530,0.34173744916916,-0.95542418956757
173,1985967580,-29.22923851013184,-86.61679077148438,92.30764770507812,9.74316596984863,-0.43353176116943,0.62116241455078,0.00131905393209,0.15334323048592,-1.03607845306396
174,1985984247,-29.25093078613281,-86.61598205566406,92.33616638183594,9.76600074768066,-0.43423020839691,0.63569164276123,0.38641881942749,0.02274407632649,-1.05103623867035
175,1986000914,-29.26602554321289,-86.61309051513672,92.35482025146484,9.76448726654053,-0.41148626804352,0.63852292299271,0.20399233698845,0.14373846352100,-1.02538514137268
176,1986017581,-29.25386047363281,-86.60956573486328,92.35362243652344,9.77783870697021,-0.44374802708626,0.63284695148468,0.50702893733978,0.22166509926319,-1.07071971893311
177,1986034248,-29.24171447753906,-86.60685729980469,92.34963989257812,9.76326465606689,-0.38089373707771,0.60789239406586,0.44015422463417,0.18377110362053,-1.09806120395660
178,1986050915,-29.23176956176758,-86.60471343994141,92.33724975585938,9.74909782409668,-0.41853421926498,0.60555464029312,-0.12060379981995,0.15828648209572,-1.14092409610748
179,1986067582,-29.21166419982910,-86.60235595703125,92.31668090820312,9.73722171783447,-0.42539536952972,0.62445443868637,0.08997742086649,0.18033902347088,-1.15662479400635
180,1986084249,-29.19863128662109,-86.60062408447266,92.31378173828125,9.75464534759521,-0.41273194551468,0.65207725763321,0.54083782434464,0.12340199202299,-1.12918078899384
181,1986100916,-29.18402290344238,-86.60050964355469,92.30554962158203,9.73791599273682,-0.43769168853760,0.62303251028061,0.63117367029190,0.03597303107381,-1.17930448055267
182,1986117583,-29.16528701782227,-86.60304260253906,92.30012512207031,9.74392127990723,-0.46612849831581,0.66135543584824,0.55880510807037,-0.08506617695093,-1.26733565330505
183,1986134250,-29.15789031982422,-86.60707855224609,92.29533386230469,9.79258918762207,-0.38517177104950,0.66048955917358,0.42478659749031,-0.17912881076336,-1.28276717662811
184,1986150917,-29.13637542724609,-86.61239624023438,92.27596282958984,9.79952812194824,-0.45736491680145,0.62597686052322,0.72340506315231,-0.23500290513039,-1.35393214225769
185,1986167584,-29.14333152770996,-86.62095642089844,92.29408264160156,9.73569774627686,-0.46849465370178,0.65856778621674,1.07803857326508,-0.45819205045700,-1.33737361431122
186,1986184251,-29.18311309814453,-86.63227844238281,92.35539245605469,9.71534442901611,-0.43080976605415,0.65252822637558,1.12083709239960,-0.66027611494064,-1.31124830245972
187,1986200918,-29.21780776977539,-86.64550018310547,92.41138458251953,9.78390121459961,-0.41343194246292,0.60271763801575,1.06119811534882,-0.73794668912888,-1.38211882114410
188,1986217585,-29.19624519348145,-86.65467071533203,92.40795135498047,9.77323436737061,-0.35503557324409,0.61509531736374,1.27663922309875,-0.45151978731155,-1.43653285503387
189,1986234252,-29.18083572387695,-86.66012573242188,92.39946746826172,9.78085517883301,-0.37985923886299,0.57735419273376,0.34551528096199,-0.24441558122635,-1.35905456542969
190,1986250919,-29.16293716430664,-86.65953826904297,92.38969421386719,9.75152873992920,-0.41613978147507,0.57648861408234,0.50522333383560,0.07892553508282,-1.17655777931213
191,1986267586,-29.14078712463379,-86.65589904785156,92.38713073730469,9.74395847320557,-0.38464212417603,0.59979307651520,0.92792248725891,0.22756886482239,-1.08402550220490
192,1986284253,-29.14915466308594,-86.65309143066406,92.39896392822266,9.73953628540039,-0.41287836432457,0.62641263008118,-0.32679882645607,0.17379498481750,-1.07338345050812
193,1986300920,-29.13669967651367,-86.65204620361328,92.39247894287109,9.80344200134277,-0.44613084197044,0.63710314035416,-0.03911058977246,0.10734922438860,-1.17562294006348
194,1986317587,-29.11761665344238,-86.65508270263672,92.37522125244141,9.72815608978271,-0.46803483366966,0.64367693662643,0.28122743964195,-0.10049782693386,-1.29908251762390
195,1986334254,-29.11972999572754,-86.66305541992188,92.39524841308594,9.70053577423096,-0.42945796251297,0.63811749219894,1.00094437599182,-0.41463756561279,-1.33818030357361
196,1986350921,-29.17038536071777,-86.67651367187500,92.47280120849609,9.78026962280273,-0.49293076992035,0.61817812919617,1.43484914302826,-0.79859757423401,-1.32942068576813
197,1986367588,-29.18389511108398,-86.69122314453125,92.51679992675781,9.76497936248779,-0.43141952157021,0.60565394163132,1.91462600231171,-0.80790770053864,-1.45330929756165
198,1986384255,-29.16348648071289,-86.70426177978516,92.52116394042969,9.74871444702148,-0.37762415409088,0.55582028627396,1.43749356269836,-0.64806532859802,-1.53258705139160
199,1986400922,-29.13377189636230,-86.71044158935547,92.48832702636719,9.74997043609619,-0.39175847172737,0.53856939077377,0.14403299987316,-0.25145906209946,-1.43507313728333
200,1986417589,-29.03233337402344,-86.71104431152344,92.37731933593750,9.76457118988037,-0.38239306211472,0.54565429687500,-0.11308646947145,0.17645868659019,-1.49911773204803
201,1986434256,-28.88498306274414,-86.70485687255859,92.22048950195312,9.78032112121582,-0.40538197755814,0.54426556825638,-0.75979441404343,0.62538534402847,-1.47495222091675
202,1986450923,-28.72658729553223,-86.69506835937500,92.03755187988281,9.72184181213379,-0.37805715203285,0.54205787181854,-1.33513247966766,0.84904825687408,-1.43809545040131
203,1986467590,-28.52878761291504,-86.68070220947266,91.82090759277344,9.75374984741211,-0.40902429819107,0.60418152809143,-0.82136726379395,1.13374614715576,-1.40984439849854
204,1986484257,-28.35421752929688,-86.66316986083984,91.63081359863281,9.75637531280518,-0.39949652552605,0.60228246450424,-1.01238036155701,1.27090835571289,-1.26280856132507
205,1986500924,-28.15304756164551,-86.64409637451172,91.41259765625000,9.76946926116943,-0.43962532281876,0.63294732570648,-1.04358315467834,1.39836370944977,-1.31067240238190
206,1986517591,-27.96514129638672,-86.62490081787109,91.21356964111328,9.73857498168945,-0.36745944619179,0.64697259664536,-0.80594837665558,1.38518595695496,-1.25802540779114
207,1986534258,-27.85782432556152,-86.61401367187500,91.07309722900391,9.75121402740479,-0.52634644508362,0.67528110742569,-2.02536892890930,0.84095460176468,-1.31040334701538
208,1986550925,-27.70062637329102,-86.59797668457031,90.91605377197266,9.78612804412842,-0.38453635573387,0.64905107021332,0.30358737707138,1.13328516483307,-1.20649266242981
209,1986567592,-27.53464889526367,-86.57892608642578,90.74674987792969,9.77355480194092,-0.36645281314850,0.56876403093338,-0.15674333274364,1.31951522827148,-1.18213498592377
210,1986584259,-27.41308784484863,-86.55724334716797,90.60410308837891,9.77071952819824,-0.38964110612869,0.59897786378860,-1.82485985755920,1.41756045818329,-1.06849133968353
211,1986600926,-27.24521255493164,-86.53118133544922,90.42061614990234,9.76163578033447,-0.41728577017784,0.65911525487900,-0.90054893493652,1.72411894798279,-1.04668223857880
212,1986617593,-27.06012344360352,-86.50312805175781,90.24960327148438,9.78497219085693,-0.41897171735764,0.60528516769409,0.15143509209156,1.83381783962250,-0.99805647134781
213,1986634260,-26.86429595947266,-86.47808074951172,90.02120971679688,9.76299667358398,-0.44568535685539,0.59107697010040,-1.81492233276367,1.74895048141479,-1.23657488822937
214,1986650927,-26.63305664062500,-86.45072174072266,89.76856994628906,9.74418640136719,-0.35683202743530,0.64418619871140,-1.47144329547882,1.92268145084381,-1.28585350513458
215,1986667594,-26.40143394470215,-86.42516326904297,89.51078796386719,9.75061321258545,-0.45248213410378,0.66558969020844,-1.58027160167694,1.82891333103180,-1.35726189613342
216,1986684261,-26.21822547912598,-86.40675354003906,89.29876708984375,9.78202819824219,-0.47082141041756,0.66577535867691,-1.70754098892212,1.36776936054230,-1.40414559841156
217,1986700928,-26.02460098266602,-86.38962554931641,89.09849548339844,9.76138973236084,-0.39246636629105,0.67556917667389,-0.41865873336792,1.28566765785217,-1.40560555458069
218,1986717595,-25.83735847473145,-86.37555694580078,88.88928985595703,9.74433040618896,-0.45129397511482,0.66135531663895,-0.93474191427231,1.13076221942902,-1.49893844127655
219,1986734262,-25.63661575317383,-86.36363983154297,88.67524719238281,9.75989723205566,-0.45998686552048,0.67739135026932,-1.06699943542480,1.04298126697540,-1.61181998252869
220,1986750929,-25.45450401306152,-86.35653686523438,88.46985626220703,9.76957893371582,-0.37566217780113,0.71212881803513,-1.56927740573883,0.76496809720993,-1.70725286006927
221,1986767596,-25.29126548767090,-86.34934234619141,88.29250335693359,9.79309844970703,-0.45712760090828,0.74775397777557,-0.83209896087646,0.70773011445999,-1.60598671436310
222,1986784263,-25.15202140808105,-86.33948516845703,88.16361999511719,9.74684143066406,-0.35494390130043,0.65502953529358,0.81253737211227,0.77285045385361,-1.36068117618561
223,1986800930,-24.99392318725586,-86.33051300048828,88.01482391357422,9.76115322113037,-0.39350229501724,0.59467929601669,0.42269924283028,0.77283769845963,-1.47045719623566
224,1986817597,-24.84720039367676,-86.32250976562500,87.86277770996094,9.76167678833008,-0.39659443497658,0.67371177673340,-0.14575546979904,0.70452845096588,-1.49708139896393
225,1986834264,-24.69091796875000,-86.31437683105469,87.70422363281250,9.76834297180176,-0.44469279050827,0.70851451158524,-0.02131617255509,0.73058956861496,-1.52049160003662
226,1986850931,-24.56286811828613,-86.30970764160156,87.57701110839844,9.76321411132812,-0.43534687161446,0.70521485805511,0.16777598857880,0.49230173230171,-1.49834942817688
227,1986867598,-24.42718696594238,-86.30393218994141,87.45270538330078,9.75413131713867,-0.34175983071327,0.66208058595657,0.41906216740608,0.56194263696671,-1.48203408718109
228,1986884265,-24.30361557006836,-86.29869079589844,87.33484649658203,9.77233028411865,-0.39856895804405,0.70152455568314,0.04922761023045,0.50829684734344,-1.48258483409882
229,1986900932,-24.17364120483398,-86.29398345947266,87.21051025390625,9.77313327789307,-0.41226667165756,0.69826066493988,0.40783101320267,0.49777001142502,-1.49090874195099
230,1986917599,-24.03999137878418,-86.28659057617188,87.10158538818359,9.78645610809326,-0.43368864059448,0.73097431659698,0.73219031095505,0.63370943069458,-1.42234385013580
231,1986934266,-23.92021369934082,-86.27858734130859,86.98927307128906,9.77010822296143,-0.38970756530762,0.67784082889557,0.21474969387054,0.65979593992233,-1.39345252513885
232,1986950933,-23.79288673400879,-86.26818847656250,86.88012695312500,9.78954887390137,-0.35929116606712,0.62761867046356,0.17492192983627,0.79390400648117,-1.36835205554962
233,1986967600,-23.68432044982910,-86.25608062744141,86.77426910400391,9.76764106750488,-0.38689962029457,0.62751644849777,0.63744884729385,0.84662771224976,-1.23985314369202
234,1986984267,-23.60185432434082,-86.24057769775391,86.68810272216797,9.76895427703857,-0.34703019261360,0.69524067640305,-0.19728824496269,1.01854026317596,-1.11271178722382
235,1987000934,-23.51800155639648,-86.22498321533203,86.59163665771484,9.74229049682617,-0.39742290973663,0.66411012411118,-0.50685614347458,1.05172145366669,-1.12887334823608
236,1987017601,-23.44952011108398,-86.21266174316406,86.51117706298828,9.74141502380371,-0.44977521896362,0.68141001462936,-0.39996153116226,0.81474000215530,-1.16215717792511
237,1987034268,-23.37420654296875,-86.20285034179688,86.44459533691406,9.75435352325439,-0.39810603857040,0.77217376232147,0.09612446278334,0.70037925243378,-1.20475089550018
238,1987050935,-23.34627914428711,-86.19686889648438,86.42078399658203,9.74684238433838,-0.37566271424294,0.74808222055435,0.15719793736935,0.40483433008194,-1.12377643585205
239,1987067602,-23.32761001586914,-86.19707489013672,86.40261840820312,9.74212741851807,-0.45999073982239,0.71608585119247,0.06180344894528,0.05828169733286,-1.23995566368103
240,1987084269,-23.30776596069336,-86.19965362548828,86.39740753173828,9.74330902099609,-0.42188620567322,0.74031823873520,0.84537273645401,-0.10247000306845,-1.25798690319061
241,1987100936,-23.28409385681152,-86.20986938476562,86.37089538574219,9.75478363037109,-0.38968467712402,0.74140959978104,-0.04229296743870,-0.48527735471725,-1.50434279441833
242,1987117603,-23.28510093688965,-86.22576141357422,86.36985015869141,9.75985527038574,-0.47420465946198,0.77883827686310,-0.19203762710094,-0.81799924373627,-1.54998469352722
243,1987134270,-23.29221916198730,-86.24308013916016,86.40874481201172,9.77426052093506,-0.41171467304230,0.76571977138519,0.80517357587814,-0.95104432106018,-1.50659668445587
244,1987150937,-23.28164100646973,-86.26100158691406,86.40618133544922,9.79201698303223,-0.37602019309998,0.69316953420639,0.33883038163185,-0.94000524282455,-1.61424672603607
245,1987167604,-23.26254272460938,-86.27900695800781,86.39189910888672,9.75581073760986,-0.39239433407784,0.64314740896225,-0.23429213464260,-0.91510319709778,-1.68006479740143
246,1987184271,-23.22281837463379,-86.29461669921875,86.36076354980469,9.75817775726318,-0.37906819581985,0.63503623008728,0.16849313676357,-0.76074194908142,-1.67347609996796
247,1987200938,-23.18563270568848,-86.30471801757812,86.32418823242188,9.76065635681152,-0.38011479377747,0.67979907989502,0.05294144898653,-0.45099478960037,-1.53647375106812
248,1987217605,-23.15950202941895,-86.31294250488281,86.29881286621094,9.77336215972900,-0.36393085122108,0.64577382802963,-0.25309190154076,-0.37383013963699,-1.47717404365540
249,1987234272,-23.14556503295898,-86.32309722900391,86.28990173339844,9.75007438659668,-0.42428788542747,0.66070073843002,0.03120907582343,-0.49663659930229,-1.45853435993195
250,1987250939,-23.11548042297363,-86.33473205566406,86.25952911376953,9.74940967559814,-0.40089061856270,0.66175556182861,0.09933886677027,-0.55114042758942,-1.54593777656555
251,1987267606,-23.06937026977539,-86.34468078613281,86.21062469482422,9.76753902435303,-0.40571653842926,0.66228461265564,0.02453696727753,-0.43788114190102,-1.56952702999115
252,1987284273,-23.00363349914551,-86.35309600830078,86.14659118652344,9.79259681701660,-0.38716959953308,0.67656731605530,0.01224287040532,-0.32883504033089,-1.60480844974518
253,1987300940,-22.95395469665527,-86.35911560058594,86.07717132568359,9.78089809417725,-0.33829000592232,0.63408887386322,-0.62249749898911,-0.20343527197838,-1.52770149707794
254,1987317607,-22.90076637268066,-86.36369323730469,86.00177764892578,9.74731349945068,-0.41366910934448,0.61314558982849,-1.08707344532013,-0.10745166987181,-1.53359234333038
255,1987334274,-22.83581542968750,-86.36471557617188,85.92333984375000,9.74691200256348,-0.35663640499115,0.66884642839432,-0.81405490636826,0.09809664636850,-1.47670662403107
256,1987350941,-22.78450393676758,-86.36719512939453,85.85670471191406,9.74802589416504,-0.38820430636406,0.70367711782455,-1.15454995632172,0.01868446357548,-1.47455513477325
257,1987367608,-22.74088287353516,-86.37069702148438,85.79288482666016,9.73319339752197,-0.40712860226631,0.65926581621170,-0.77431023120880,-0.07847730070353,-1.46084582805634
258,1987384275,-22.69525337219238,-86.38004302978516,85.75473785400391,9.71585273742676,-0.36386680603027,0.67558574676514,0.36805450916290,-0.41796723008156,-1.52958405017853
259,1987400942,-22.71273612976074,-86.39402770996094,85.75171661376953,9.74543094635010,-0.38676008582115,0.68501663208008,-1.21686565876007,-0.71814805269241,-1.50363826751709
260,1987417609,-22.68530654907227,-86.40784454345703,85.71598815917969,9.78373241424561,-0.41094437241554,0.69952648878098,-0.56388276815414,-0.66774225234985,-1.62219953536987
261,1987434276,-22.62427520751953,-86.41554260253906,85.67332458496094,9.75493240356445,-0.37349757552147,0.66274946928024,1.09801638126373,-0.31792402267456,-1.49928414821625
262,1987450943,-22.53924560546875,-86.41953277587891,85.60202789306641,9.75996398925781,-0.41059616208076,0.59038794040680,0.71590065956116,-0.08165969699621,-1.52448725700378
263,1987467610,-22.45491027832031,-86.42160797119141,85.48991394042969,9.80817794799805,-0.35440319776535,0.61261081695557,-1.39100670814514,0.08205028623343,-1.59805965423584
264,1987484277,-22.32277488708496,-86.41931152343750,85.34451293945312,9.80842018127441,-0.36523401737213,0.61463481187820,-0.91608303785324,0.38958194851875,-1.63359701633453
265,1987500944,-22.19420242309570,-86.40740966796875,85.20684051513672,9.76759147644043,-0.27886155247688,0.58116006851196,-0.26759511232376,0.87476342916489,-1.37913501262665
266,1987517611,-22.10645484924316,-86.39380645751953,85.08881378173828,9.78567409515381,-0.36552706360817,0.57482790946960,-1.78124177455902,0.96504813432693,-1.28041088581085
267,1987534278,-22.00866127014160,-86.37615203857422,84.96410369873047,9.77613353729248,-0.39924338459969,0.69419306516647,-1.66750836372375,1.19843101501465,-1.22302567958832
268,1987550945,-21.91485404968262,-86.35245513916016,84.85393524169922,9.73169422149658,-0.34665000438690,0.68344694375992,-1.02872765064240,1.51287817955017,-1.04044544696808
269,1987567612,-21.76105308532715,-86.29335021972656,84.63864898681641,9.85792350769043,-0.37299889326096,0.80126041173935,-3.53795289993286,3.61995840072632,-0.63121861219406
270,1987584279,-21.61613845825195,-86.20759582519531,84.43981933593750,9.74906063079834,-0.41924113035202,0.71577358245850,-3.28749227523804,5.08132219314575,-0.02136099152267
271,1987600946,-21.56506156921387,-86.14440917968750,84.33480834960938,9.76952171325684,-0.39517983794212,0.73517328500748,-3.14848589897156,3.70076632499695,-0.17756643891335
272,1987617613,-21.51287651062012,-86.10057067871094,84.26598358154297,9.75996112823486,-0.48935806751251,0.73810100555420,-0.93558704853058,2.57127165794373,-0.47563427686691
273,1987634280,-21.45724105834961,-86.07474517822266,84.22149658203125,9.74144744873047,-0.35897022485733,0.67273050546646,0.21348184347153,1.55899381637573,-0.80870169401169
274,1987650947,-21.41911888122559,-86.06448364257812,84.17742919921875,9.73566246032715,-0.37915512919426,0.66993170976639,-0.05381868779659,0.67018193006516,-1.10337603092194
275,1987667614,-21.37040138244629,-86.06378936767578,84.12571716308594,9.74005985260010,-0.38653293251991,0.74362611770630,-0.16237811744213,0.15349690616131,-1.36187195777893
276,1987684281,-21.33256530761719,-86.07404327392578,84.09237670898438,9.74146747589111,-0.41821652650833,0.72733169794083,0.23621310293674,-0.48030856251717,-1.53203010559082
277,1987700948,-21.29888725280762,-86.09254455566406,84.07824707031250,9.75209808349609,-0.39227578043938,0.74831146001816,1.28742241859436,-0.96602779626846,-1.62380027770996
278,1987717615,-21.31714439392090,-86.11596679687500,84.11411285400391,9.77660179138184,-0.37464115023613,0.77794802188873,1.05243861675262,-1.30068349838257,-1.54122507572174
279,1987734282,-21.33431053161621,-86.13578033447266,84.16618347167969,9.76807022094727,-0.42506170272827,0.72271966934204,1.52690112590790,-1.13741517066956,-1.44851994514465
280,1987750949,-21.31059837341309,-86.15499114990234,84.17169952392578,9.76791858673096,-0.34589582681656,0.68264508247375,2.09742379188538,-1.03580939769745,-1.54989480972290
281,1987767616,-21.31891822814941,-86.17116546630859,84.18231964111328,9.77392864227295,-0.34347909688950,0.69165599346161,0.29486623406410,-0.87861168384552,-1.47937047481537
282,1987784283,-21.31499481201172,-86.18402099609375,84.16401672363281,9.78090095520020,-0.38535699248314,0.71118128299713,-0.64457565546036,-0.64822548627853,-1.51029777526855
283,1987800950,-21.31270790100098,-86.19388580322266,84.16033172607422,9.77194118499756,-0.41197973489761,0.72585445642471,-0.20567636191845,-0.51366907358170,-1.41838645935059
284,1987817617,-21.31687355041504,-86.19857025146484,84.17191314697266,9.78533172607422,-0.37612879276276,0.73445999622345,0.53351253271103,-0.22306741774082,-1.22425508499146
285,1987834284,-21.30510902404785,-86.19676971435547,84.16007995605469,9.81019687652588,-0.41442021727562,0.74970728158951,-0.14325824379921,0.15381705760956,-1.19405770301819
286,1987850951,-21.26461791992188,-86.18823242187500,84.11397552490234,9.76619815826416,-0.37845689058304,0.63845705986023,0.05970320478082,0.57415992021561,-1.14165401458740
287,1987867618,-21.23012924194336,-86.18032836914062,84.06784057617188,9.75146007537842,-0.36230236291885,0.64864677190781,-0.89173179864883,0.56272381544113,-1.18818616867065
288,1987884285,-21.19372177124023,-86.16819763183594,84.02182006835938,9.77360153198242,-0.43085661530495,0.71133822202682,-0.65026164054871,0.78478592634201,-1.09469306468964
289,1987900952,-21.14114761352539,-86.16002655029297,83.95883178710938,9.75301742553711,-0.41229543089867,0.71910756826401,-0.36047950387001,0.57898783683777,-1.22590708732605
290,1987917619,-21.09637069702148,-86.15702819824219,83.90660095214844,9.77634334564209,-0.42845934629440,0.81100881099701,-0.41513702273369,0.29504549503326,-1.30485820770264
291,1987934286,-21.06460762023926,-86.15274810791016,83.88552856445312,9.76656913757324,-0.41416671872139,0.76269155740738,0.26048114895821,0.31823781132698,-1.18985712528229
292,1987950953,-21.02885818481445,-86.15167999267578,83.85423278808594,9.76815891265869,-0.37192440032959,0.70399457216263,0.25771495699883,0.14075458049774,-1.27696585655212
293,1987967620,-20.99118995666504,-86.15127563476562,83.82051086425781,9.74338436126709,-0.40688106417656,0.64227980375290,0.25802233815193,0.11223486065865,-1.29671335220337
294,1987984287,-20.93239593505859,-86.15213775634766,83.77111816406250,9.78851318359375,-0.40227675437927,0.67404896020889,0.79527431726456,0.06652899086475,-1.36878752708435
295,1988000954,-20.86794853210449,-86.15101623535156,83.71527099609375,9.78613185882568,-0.38185089826584,0.72010135650635,0.56589967012405,0.18140193820000,-1.36523997783661
296,1988017621,-20.76255607604980,-86.14979553222656,83.62182617187500,9.78456783294678,-0.38431078195572,0.70335674285889,0.61943036317825,0.25693377852440,-1.50901710987091
297,1988034288,-20.65065002441406,-86.14628601074219,83.51864624023438,9.77170658111572,-0.39033108949661,0.69695454835892,0.10703548043966,0.38841658830643,-1.52616465091705
298,1988050955,-20.55949783325195,-86.14481353759766,83.41861724853516,9.74176502227783,-0.35203889012337,0.67414110898972,-0.52445209026337,0.27638664841652,-1.52488410472870
299,1988067622,-20.47415733337402,-86.14349365234375,83.32727050781250,9.72236251831055,-0.31264686584473,0.64085531234741,-0.28589534759521,0.24753393232822,-1.49430239200592
300,1988084289,-20.38220405578613,-86.14207458496094,83.23650360107422,9.75070190429688,-0.39802521467209,0.67094993591309,-0.44591072201729,0.26292720437050,-1.52781677246094
301,1988100956,-20.27828407287598,-86.14318847656250,83.13916015625000,9.75284004211426,-0.38667026162148,0.69582521915436,0.35145744681358,0.12342759221792,-1.57421410083771
302,1988117623,-20.18623924255371,-86.14562225341797,83.02136993408203,9.77489852905273,-0.38903656601906,0.76409441232681,-1.04212307929993,0.05217306688428,-1.65101373195648
303,1988134290,-20.07278823852539,-86.14553070068359,82.91909790039062,9.77951431274414,-0.37298756837845,0.74344825744629,0.67109119892120,0.19837036728859,-1.56559562683105
304,1988150957,-20.01077270507812,-86.14553070068359,82.84915161132812,9.77245903015137,-0.35675954818726,0.66917961835861,-0.31527310609818,0.12691092491150,-1.44175791740417
305,1988167624,-19.88751983642578,-86.13948822021484,82.73498535156250,9.77489185333252,-0.36569395661354,0.64458703994751,0.57997399568558,0.55638468265533,-1.48458254337311
306,1988184291,-19.74680900573730,-86.13274383544922,82.58456420898438,9.75659942626953,-0.35800927877426,0.68113166093826,-0.55654472112656,0.62726777791977,-1.61938190460205
307,1988200958,-19.60064125061035,-86.12824249267578,82.41414642333984,9.75113868713379,-0.43834081292152,0.78520089387894,-1.15943574905396,0.52036684751511,-1.72743570804596
308,1988217625,-19.43165206909180,-86.12637329101562,82.23863220214844,9.75311565399170,-0.36892798542976,0.72657108306885,-0.29728659987450,0.37757599353790,-1.81602990627289
309,1988234292,-19.30532646179199,-86.13193511962891,82.10234069824219,9.77586650848389,-0.39710238575935,0.71259438991547,-0.79208540916443,-0.06930796056986,-1.82291972637177
310,1988250959,-19.16986083984375,-86.13639068603516,81.96327972412109,9.72154903411865,-0.31372088193893,0.73035585880280,-0.06645855307579,-0.01990747451782,-1.79339492321014
311,1988267626,-19.02503967285156,-86.12768554687500,81.79523468017578,9.79173851013184,-0.29103863239288,0.75271034240723,-1.19923150539398,0.75101560354233,-1.64703118801117
312,1988284293,-18.85429763793945,-86.10117340087891,81.59391784667969,9.76324653625488,-0.34668412804604,0.71694207191467,-2.16891551017761,1.82186996936798,-1.46591091156006
313,1988300960,-18.69435882568359,-86.07369995117188,81.40644836425781,9.82512664794922,-0.26801571249962,0.72931092977524,-1.47637367248535,1.85199022293091,-1.36973512172699
314,1988317627,-18.63074111938477,-86.04473114013672,81.25920867919922,9.75907325744629,-0.31088423728943,0.66289126873016,-5.37367916107178,1.88830912113190,-1.22873723506927
315,1988334294,-18.53757095336914,-86.03153228759766,81.07828521728516,9.75871562957764,-0.41864258050919,0.66584783792496,-5.16931533813477,1.02297127246857,-1.64188301563263
316,1988350961,-18.47036552429199,-85.94991302490234,80.85607910156250,9.99786090850830,-0.16310946643353,1.18790996074677,-9.55271339416504,4.98217105865479,-0.53670787811279
317,1988367628,-18.45586395263672,-85.81755828857422,80.63386535644531,9.65493774414062,-0.47762399911880,0.58692252635956,-12.40093040466309,7.83297109603882,0.40692207217216
318,1988384295,-18.33877182006836,-85.73065948486328,80.40264892578125,9.70596313476562,-0.41339978575706,0.66165369749069,-6.66331768035889,5.29438877105713,-0.50562679767609
319,1988400962,-18.22303771972656,-85.67124938964844,80.17409515380859,9.82042217254639,-0.38107901811600,0.83661395311356,-6.06769323348999,3.72361302375793,-1.00244903564453
320,1988417629,-17.95732879638672,-85.61242675781250,79.87847900390625,9.77974319458008,-0.34147137403488,0.58460706472397,-1.17186415195465,3.80208969116211,-1.33372354507446
321,1988434296,-17.79741477966309,-85.57711791992188,79.61339569091797,9.81169223785400,-0.26587882637978,0.69677776098251,-7.36506748199463,2.44334959983826,-1.78288114070892
322,1988450963,-17.61970901489258,-85.54025268554688,79.33271789550781,9.78670978546143,-0.39688301086426,0.81664812564850,-6.06967878341675,2.54892492294312,-1.75208163261414
323,1988467630,-17.36672210693359,-85.44113159179688,78.95829772949219,9.94157600402832,-0.53279709815979,1.07975029945374,-7.15526103973389,6.23246765136719,-1.08667659759521
324,1988484297,-16.95823097229004,-85.28939819335938,78.50538635253906,9.61673069000244,-0.28902840614319,0.81585538387299,-2.41499018669128,9.35424709320068,-0.60180264711380
325,1988500964,-16.74067687988281,-85.20833587646484,78.23342132568359,9.63425731658936,-0.29653033614159,0.79143422842026,-3.62820005416870,5.09236955642700,-1.10602700710297
326,1988517631,-16.58607673645020,-85.18598175048828,78.02008819580078,9.72114658355713,-0.35606804490089,0.96230870485306,-4.07039022445679,1.65017545223236,-1.87408804893494
327,1988534298,-16.46086883544922,-85.19429779052734,77.84622192382812,9.70929336547852,-0.48488864302635,0.82846713066101,-3.48422336578369,-0.15792791545391,-2.20849347114563
328,1988550965,-16.31249046325684,-85.23721313476562,77.63213348388672,9.76821994781494,-0.35151544213295,0.87400037050247,-4.10089445114136,-2.12410593032837,-2.95860624313354
329,1988567632,-16.15407180786133,-85.29981231689453,77.39616394042969,9.75310897827148,-0.32729858160019,0.82062375545502,-4.57734203338623,-3.20392489433289,-3.34710001945496
330,1988584299,-15.94132328033447,-85.37513732910156,77.10380554199219,9.83277988433838,-0.45068782567978,0.88121193647385,-4.44894599914551,-3.89204931259155,-3.78296470642090
331,1988600966,-15.61607646942139,-85.42252349853516,76.71940612792969,9.78048610687256,-0.37819585204124,0.85828989744186,-3.61329269409180,-2.17107987403870,-3.75041031837463
332,1988617633,-15.22398281097412,-85.47286224365234,76.27279663085938,9.74972438812256,-0.34548303484917,0.88414722681046,-3.13913726806641,-2.28289198875427,-4.03669548034668
333,1988634300,-14.82840538024902,-85.51979064941406,75.80335998535156,9.70611381530762,-0.29432001709938,0.87142258882523,-4.62595462799072,-2.08457303047180,-4.07690811157227
334,1988650967,-14.43075180053711,-85.58173370361328,75.31830596923828,9.79289054870605,-0.34829282760620,0.84737080335617,-4.92717313766479,-2.96420288085938,-4.29400110244751
335,1988667634,-13.95886707305908,-85.65485382080078,74.81147003173828,9.79297065734863,-0.24802243709564,0.79267209768295,-1.95524156093597,-3.61578941345215,-4.51238822937012
336,1988684301,-13.47782707214355,-85.74292755126953,74.27373504638672,9.78656578063965,-0.29505389928818,0.73813313245773,-3.51777100563049,-4.49301290512085,-4.80892038345337
337,1988700968,-12.91658401489258,-85.84763336181641,73.62411499023438,9.75841903686523,-0.29568514227867,0.81240057945251,-4.66370868682861,-5.39151954650879,-5.36882638931274
338,1988717635,-12.30101776123047,-85.92527770996094,72.92861175537109,9.79872894287109,-0.32814517617226,0.78237098455429,-4.92389535903931,-3.81158661842346,-5.14484310150146
339,1988734302,-11.64083576202393,-85.99835968017578,72.18870544433594,9.74538516998291,-0.28783699870110,0.68753230571747,-4.71356296539307,-3.56552481651306,-5.16547346115112
340,1988750969,-10.87989234924316,-86.08569335937500,71.38272857666016,9.76570701599121,-0.30864068865776,0.68159002065659,-2.42678475379944,-4.41137266159058,-5.48286676406860
341,1988767636,-9.99026489257812,-86.18069458007812,70.43315887451172,9.78124046325684,-0.24790289998055,0.89088785648346,-3.41667699813843,-4.80529546737671,-6.00284290313721
342,1988784303,-9.00404262542725,-86.27680206298828,69.36656951904297,9.71546363830566,-0.39713037014008,0.94034945964813,-4.53236675262451,-4.91300964355469,-6.29710769653320
343,1988800970,-7.86805677413940,-86.39109802246094,68.21814727783203,9.71177864074707,-0.36471959948540,0.87042331695557,-0.85451036691666,-6.05451774597168,-6.58654499053955
344,1988817637,-6.59121084213257,-86.53836059570312,66.92295074462891,9.66163825988770,-0.14092086255550,0.79534846544266,-0.85120654106140,-8.05073547363281,-7.06798839569092
345,1988834304,-5.10149955749512,-86.72045135498047,65.45634460449219,9.69825363159180,-0.40653732419014,0.72790151834488,1.81349527835846,-10.20165252685547,-7.45705795288086
346,1988850971,-3.17850756645203,-86.93215942382812,63.61998748779297,9.66567993164062,-0.26943022012711,0.75922328233719,5.69957351684570,-12.09446239471436,-8.21340370178223
347,1988867638,-0.71138554811478,-87.17943572998047,61.23843765258789,9.65791034698486,-0.17773522436619,0.80296689271927,5.00462484359741,-14.38101482391357,-9.10373020172119
348,1988884305,2.46329402923584,-87.45593261718750,58.14519500732422,9.64946842193604,-0.31110545992851,0.74113619327545,5.40705299377441,-16.47352790832520,-9.70451831817627
349,1988900972,6.76181840896606,-87.75336456298828,53.97779846191406,9.69807147979736,-0.19225203990936,0.79672080278397,8.08380413055420,-18.34171485900879,-10.33568191528320
350,1988917639,12.53844642639160,-88.05238342285156,48.33865737915039,9.74092483520508,-0.09167048335075,0.70240229368210,8.53675460815430,-19.41282844543457,-10.66292667388916
351,1988934306,20.48966598510742,-88.33857727050781,40.48439788818359,9.74464702606201,-0.06567421555519,0.59834426641464,6.06175756454468,-20.32688713073730,-10.99798107147217
352,1988950973,31.50832939147949,-88.58694458007812,29.54326248168945,9.79422855377197,-0.11641165614128,0.52363449335098,5.24903917312622,-20.81628608703613,-11.23364353179932
353,1988967640,45.98028182983398,-88.76695251464844,15.15491580963135,9.74412918090820,0.08701489865780,0.46283555030823,5.26089763641357,-20.97564697265625,-10.97149658203125
354,1988984307,63.86163330078125,-88.85260772705078,-2.67520737648010,9.69767761230469,-0.09925495088100,0.35337114334106,2.98310470581055,-21.84722518920898,-10.68551921844482
355,1989000974,82.76377868652344,-88.81172180175781,-21.44015121459961,9.67191982269287,-0.00525534246117,0.33932060003281,7.69874668121338,-22.46777343750000,-10.27505111694336
356,1989017641,99.73310852050781,-88.64549255371094,-38.26625823974609,9.73399353027344,0.10831237584352,0.35958853363991,7.60032987594604,-23.58291625976562,-10.04781532287598
357,1989034308,113.16231536865234,-88.37779998779297,-51.60211181640625,9.75249862670898,0.27649348974228,0.28556787967682,4.97191095352173,-24.91434860229492,-9.83174705505371
358,1989050975,123.27704620361328,-88.03755950927734,-61.70935821533203,9.74548721313477,0.25737643241882,0.19310316443443,0.11633319407701,-26.44445037841797,-9.47691154479980
359,1989067642,131.09260559082031,-87.64100646972656,-69.55074310302734,9.74963474273682,0.22593705356121,0.17391827702522,-1.56695139408112,-28.44533348083496,-8.90145206451416
360,1989084309,137.29417419433594,-87.19083404541016,-75.79853057861328,9.70804023742676,0.33085116744041,0.11397017538548,-2.58947896957397,-30.78489875793457,-8.36648273468018
361,1989100976,142.31420898437500,-86.67975616455078,-80.96347808837891,9.95098686218262,0.45191696286201,0.18171384930611,-8.02692222595215,-33.90513610839844,-8.02876663208008
362,1989117643,146.52618408203125,-86.11611938476562,-85.37921142578125,9.92905998229980,0.37631371617317,0.09397081285715,-11.71911048889160,-37.01031875610352,-7.11188602447510
363,1989134310,150.05487060546875,-85.50307464599609,-89.15427398681641,10.05002212524414,0.33318883180618,0.12874296307564,-14.30295848846436,-39.83886718750000,-6.28057479858398
364,1989150977,152.98963928222656,-84.84406280517578,-92.41310119628906,10.37378311157227,0.29639995098114,0.00659216195345,-18.74374198913574,-42.42501831054688,-5.45242881774902
365,1989167644,155.22941589355469,-84.14988708496094,-95.07265472412109,10.64396381378174,0.85612827539444,0.08858422189951,-24.46474838256836,-44.01755905151367,-5.52013063430786
366,1989184311,156.97590637207031,-83.35654449462891,-97.46041107177734,10.74612903594971,0.80175590515137,0.01353727281094,-37.59372329711914,-49.69572448730469,-6.14803600311279
367,1989200978,158.38342285156250,-82.48806762695312,-99.56397247314453,11.09461784362793,0.30235186219215,0.13433015346527,-40.77745819091797,-53.99538421630859,-6.53970098495483
368,1989217645,159.61524963378906,-81.59739685058594,-101.34328460693359,11.54083061218262,0.40232253074646,0.22394725680351,-31.80046272277832,-55.08191299438477,-6.50293445587158
369,1989234312,160.54217529296875,-80.69950866699219,-102.87333679199219,11.81534481048584,1.22342503070831,0.91459536552429,-35.07836151123047,-55.37328338623047,-6.23478317260742
370,1989250979,160.85702514648438,-79.91300964355469,-103.89543914794922,11.66761589050293,1.52864849567413,-0.17809994518757,-41.54124832153320,-47.87611770629883,-7.02207183837891
371,1989267646,160.95452880859375,-79.20391082763672,-104.35180664062500,11.07674980163574,0.89094340801239,-0.65905761718750,-21.06174087524414,-41.75650405883789,-10.40368747711182
372,1989284313,161.36831665039062,-78.47245025634766,-104.78800201416016,10.14992713928223,0.52826607227325,-0.68670570850372,-0.84375864267349,-43.11071777343750,-10.55403614044189
373,1989300980,162.03533935546875,-77.59294891357422,-105.51239776611328,9.33069419860840,-0.38138738274574,-1.44769334793091,-2.49158406257629,-52.86970520019531,-9.18759250640869
374,1989317647,162.87081909179688,-76.72896575927734,-106.38256835937500,8.92002391815186,-0.62568485736847,-2.27579665184021,-0.77501589059830,-52.86685180664062,-5.74494028091431
375,1989334314,163.36621093750000,-75.98569488525391,-107.34629821777344,9.04572582244873,-0.35764187574387,-1.53081989288330,-26.46904182434082,-46.58359527587891,-1.07998979091644
376,1989350981,163.27915954589844,-75.49147796630859,-108.11254119873047,8.32363224029541,-0.18203848600388,1.05244946479797,-49.77981948852539,-31.60869598388672,1.15401995182037
377,1989367648,162.64491271972656,-75.40200805664062,-108.43182373046875,7.49204111099243,0.13486784696579,2.72094154357910,-56.60371017456055,-6.51339054107666,1.83770656585693
378,1989384315,161.56282043457031,-75.74418640136719,-108.35704803466797,7.44429636001587,-0.27213460206985,2.51133131980896,-60.58914566040039,19.89656257629395,4.04703140258789
379,1989400982,159.98217773437500,-76.48398590087891,-107.71614074707031,8.07867717742920,0.90796792507172,2.62385082244873,-57.51663970947266,44.95658874511719,4.69991588592529
380,1989417649,157.66200256347656,-77.51573944091797,-106.35790252685547,8.29337882995605,0.66733413934708,2.41959238052368,-59.81360626220703,64.33027648925781,4.05507421493530
381,1989434316,154.65888977050781,-78.75283050537109,-104.05870056152344,8.52618122100830,0.60644561052322,1.93848693370819,-45.18822479248047,79.31767272949219,2.82386970520020
382,1989450983,150.55146789550781,-80.15727996826172,-100.42095947265625,8.98241710662842,0.92895692586899,1.50650298595428,-31.86641120910645,93.11482238769531,2.04482126235962
383,1989467650,144.67694091796875,-81.67366790771484,-94.90616607666016,9.28598499298096,1.10701763629913,1.13780009746552,-25.70569992065430,104.66840362548828,3.28796625137329
384,1989484317,135.70881652832031,-83.23363494873047,-86.33653259277344,9.59004306793213,1.13066613674164,0.70601946115494,-28.28125000000000,114.84336090087891,6.56957864761353
385,1989500984,121.49162292480469,-84.69400787353516,-72.54417419433594,9.87666702270508,0.84266954660416,0.27667137980461,-29.86447906494141,122.13755035400391,12.33593559265137
386,1989517651,98.30983734130859,-85.76899719238281,-49.70862579345703,10.30095291137695,0.52765959501266,-0.32445657253265,-25.01650428771973,128.22035217285156,19.34512710571289
387,1989534318,67.39096069335938,-85.92335510253906,-19.02266502380371,10.33424663543701,0.17725117504597,-0.62618494033813,-18.18052864074707,130.29771423339844,24.05953025817871
388,1989550985,41.58813095092773,-85.02177429199219,6.83727598190308,10.55570507049561,-0.44010573625565,-0.84521180391312,-1.18541622161865,129.79147338867188,26.86001396179199
389,1989567652,25.88220214843750,-83.49989318847656,23.01875877380371,10.99230861663818,-0.58183366060257,-0.89269739389420,23.64493560791016,128.88595581054688,29.38660621643066
390,1989584319,17.01161766052246,-81.70976257324219,32.76420974731445,11.09525012969971,-0.20021593570709,-0.86564779281616,47.57722091674805,126.99911499023438,29.79123306274414
391,1989600986,11.94772529602051,-79.85494995117188,38.83306121826172,10.83755779266357,0.34964457154274,-0.65568941831589,55.55247497558594,122.09901428222656,27.53655815124512
392,1989617653,8.93658638000488,-78.06703186035156,42.86148071289062,10.64707279205322,0.34938296675682,-0.60534280538559,56.53686904907227,113.77045440673828,24.91322708129883
393,1989634320,7.06705951690674,-76.39063262939453,45.73558425903320,10.41224670410156,0.33514091372490,-0.44945299625397,55.98522186279297,104.84322357177734,22.57219314575195
394,1989650987,5.87387704849243,-74.84732818603516,47.90742492675781,10.26120948791504,0.57702720165253,-0.06475208699703,54.62312698364258,95.61904907226562,20.54215812683105
395,1989667654,5.09159421920776,-73.44521331787109,49.57347869873047,10.18206691741943,0.75695216655731,0.13129670917988,49.21712875366211,86.33712005615234,17.96094322204590
396,1989684321,4.47410774230957,-72.23321533203125,50.90908813476562,9.62303733825684,1.09572303295135,0.11985843628645,39.50894165039062,74.43051147460938,16.31216049194336
397,1989700988,3.78173565864563,-71.25583648681641,52.00990676879883,9.17865085601807,1.29921913146973,0.07293151319027,21.18143272399902,59.99246978759766,15.23059082031250
398,1989717655,2.93034791946411,-70.53804779052734,52.94815444946289,8.99956798553467,1.17517888545990,0.07237756252289,2.10667324066162,44.08464050292969,14.68680191040039
399,1989734322,1.99184536933899,-70.09721374511719,53.72106933593750,8.75826644897461,0.98374366760254,0.17061795294285,-12.64355754852295,27.12327003479004,13.28750896453857
400,1989750989,1.09948742389679,-69.93505096435547,54.28776550292969,8.68456840515137,0.95636731386185,0.32725018262863,-21.58366012573242,10.07625198364258,10.17196559906006
401,1989767656,0.36440104246140,-70.05007934570312,54.60921859741211,8.53891658782959,0.77023547887802,0.61718356609344,-25.97779464721680,-6.77364873886108,5.50572013854980
402,1989784323,-0.04909582808614,-70.41645050048828,54.68554306030273,8.97398376464844,0.64314675331116,0.97761505842209,-20.49308395385742,-21.93045997619629,0.42825847864151
403,1989800990,-0.12467771768570,-70.99320983886719,54.57243347167969,9.08058738708496,0.54498064517975,1.38579881191254,-10.92973899841309,-34.54701232910156,-3.47469282150269
404,1989817657,0.29080876708031,-71.69952392578125,54.23910903930664,9.39147281646729,0.45524933934212,1.76822066307068,5.99327039718628,-42.32568359375000,-7.51579523086548
405,1989834324,1.15869235992432,-72.47019195556641,53.68033218383789,9.82278823852539,0.85780608654022,2.13055729866028,20.18271827697754,-46.30611801147461,-10.90880107879639
406,1989850991,2.23730921745300,-73.27625274658203,52.97746658325195,9.86540031433105,0.97723942995071,2.53975701332092,24.43286323547363,-48.64077377319336,-12.16007709503174
407,1989867658,3.43443059921265,-74.05254364013672,52.24795532226562,9.91997718811035,0.67061561346054,2.88609266281128,29.84113121032715,-47.05945968627930,-11.17115020751953
408,1989884325,4.61903905868530,-74.76266479492188,51.55699539184570,9.78035068511963,1.02353131771088,3.08353137969971,31.16099739074707,-43.21423721313477,-9.30367183685303
409,1989900992,5.56660747528076,-75.44093322753906,50.93180847167969,9.31533908843994,1.13156676292419,3.21223568916321,20.62185668945312,-41.32122039794922,-7.17089366912842
410,1989917659,6.27697134017944,-76.10586547851562,50.34621810913086,8.24123096466064,0.86891263723373,3.38239669799805,8.57848167419434,-40.50570297241211,-5.64955520629883
411,1989934326,7.00278806686401,-76.76029968261719,49.78114318847656,6.43308687210083,0.55104130506516,3.35821056365967,10.60756397247314,-39.85308456420898,-4.53574895858765
412,1989950993,7.87457656860352,-77.43347930908203,49.17612457275391,3.52904629707336,0.45917308330536,3.13012456893921,16.93970680236816,-41.03170013427734,-3.98572874069214
413,1989967660,9.31581401824951,-78.14635467529297,48.41094207763672,0.33072602748871,-0.11547502130270,2.85717296600342,41.62383651733398,-43.67580413818359,-4.38598108291626
414,1989984327,11.63446807861328,-78.89347076416016,47.42578887939453,-1.80511248111725,0.79082703590393,2.94616198539734,81.23039245605469,-46.14540100097656,-4.59785842895508
415,1990000994,14.37877273559570,-79.71684265136719,45.94421386718750,-0.92194241285324,2.94260859489441,3.83593392372131,77.34380340576172,-51.77957534790039,-6.13826560974121
416,1990017661,17.23616027832031,-80.59922790527344,43.92970657348633,1.89232873916626,1.77592194080353,3.39963269233704,52.40035629272461,-56.48657608032227,-6.64678382873535
417,1990034328,20.42585563659668,-81.45182800292969,41.63268280029297,2.92156720161438,1.73478209972382,2.28440308570862,55.30397415161133,-55.27606964111328,-5.03082132339478
418,1990050995,23.24261093139648,-82.41310119628906,38.90405273437500,1.74307966232300,2.36397504806519,1.67569017410278,6.97944021224976,-61.98434829711914,-1.08412992954254
419,1990067662,25.57837486267090,-83.45378112792969,35.87502288818359,1.32903051376343,0.66870635747910,0.80020028352737,-40.12438201904297,-65.97496795654297,4.21754074096680
420,1990084329,27.51417350769043,-84.43186950683594,33.03799819946289,0.85061115026474,-0.31910109519958,0.33160173892975,-53.00623321533203,-60.38117599487305,8.91183757781982
421,1990100996,29.00294113159180,-85.28698730468750,30.39373397827148,0.89827477931976,-0.06732001900673,0.84712970256805,-68.55430603027344,-51.76807022094727,10.50580024719238
422,1990117663,30.30177879333496,-85.99440002441406,27.39392852783203,1.53084826469421,-0.16139075160027,2.45077061653137,-101.38284301757812,-43.48047637939453,7.80932855606079
423,1990134330,33.06340408325195,-86.50991058349609,22.80621337890625,2.27185583114624,-1.78661954402924,4.09868812561035,-108.85481262207031,-35.63375854492188,-0.41181364655495
424,1990150997,39.47345352172852,-86.85185241699219,14.98110485076904,3.19851422309875,-3.42702794075012,5.70712566375732,-84.02577209472656,-32.55498886108398,-11.20875835418701
425,1990167664,51.95033645629883,-87.04686737060547,2.13901853561401,3.68961405754089,-6.46017456054688,6.36341142654419,-20.85316276550293,-37.61091995239258,-21.73276138305664
426,1990184331,66.66394805908203,-87.04335784912109,-11.10511779785156,1.97841989994049,-7.63755178451538,7.79374647140503,89.07384490966797,-35.38833999633789,-22.40515708923340
427,1990200998,73.73992156982422,-86.71032714843750,-15.68578243255615,-2.33523583412170,-6.87884187698364,9.11045837402344,149.95042419433594,-7.51662921905518,-24.92711830139160
428,1990217665,80.91825103759766,-87.25234222412109,-19.32325363159180,5.27953338623047,-11.80015945434570,-57.92940139770508,212.88835144042969,-18.39760971069336,27.72007942199707
429,1990234332,163.12190246582031,-79.45698547363281,-101.99781036376953,26.20510101318359,-3.41576766967773,-43.53410720825195,-14.41539955139160,-633.11706542968750,-18.33029556274414
430,1990250999,172.76568603515625,-76.83325958251953,-104.25804138183594,15.27859401702881,-3.99444317817688,41.42351531982422,445.77404785156250,-159.66542053222656,-6.76434040069580
431,1990267666,175.53021240234375,-71.66732788085938,-103.96972656250000,107.89741516113281,25.78738975524902,-1.74990200996399,182.47209167480469,-307.68096923828125,-37.44528961181641
432,1990284333,167.83641052246094,-65.39796447753906,-105.32696533203125,-18.45581054687500,-6.03856754302979,-19.65633201599121,-536.90332031250000,-376.69982910156250,-26.08422851562500
433,1990301000,176.64541625976562,-63.12268829345703,-105.62340545654297,-33.74355316162109,10.36347484588623,-5.93679761886597,512.41131591796875,-136.31770324707031,-11.94010066986084
434,1990317667,171.45808410644531,-59.72417831420898,-107.23483276367188,31.61629295349121,-1.54067897796631,-18.47098159790039,-396.03372192382812,-207.57800292968750,23.73541450500488
435,1990334334,171.45559692382812,-58.03718948364258,-106.00331878662109,12.70904541015625,-0.40677154064178,-4.56429624557495,63.10139465332031,-94.30989074707031,-53.95602798461914
436,1990351001,171.56216430664062,-56.64436721801758,-106.28903198242188,2.52713322639465,2.85014605522156,-7.88823652267456,-8.04519557952881,-83.91304779052734,-4.34141635894775
437,1990367668,171.75265502929688,-55.49095153808594,-107.17135620117188,12.23492240905762,8.07176589965820,-9.61028766632080,-32.50217056274414,-72.65337371826172,18.04794883728027
438,1990384335,171.84403991699219,-54.75072479248047,-107.54790496826172,14.11405467987061,4.00226974487305,-9.11959362030029,-13.05834865570068,-45.70008850097656,5.30115413665771
439,1990401002,172.70648193359375,-54.49179077148438,-108.28939819335938,10.13577842712402,1.85555112361908,-8.94688796997070,15.46114921569824,-18.75735855102539,22.28570747375488
440,1990417669,174.14707946777344,-54.79356765747070,-109.22308349609375,7.55039596557617,4.12710332870483,-10.10876178741455,40.73146820068359,14.37258815765381,33.12882232666016
441,1990434336,175.36965942382812,-55.62611770629883,-110.31086730957031,9.51653957366943,3.48622918128967,-10.37103271484375,19.73801231384277,46.43318939208984,40.49806213378906
442,1990451003,176.92080688476562,-57.09883499145508,-111.46800231933594,12.28315639495850,1.83112466335297,-10.30767345428467,35.24213027954102,85.66419982910156,43.16489410400391
443,1990467670,178.30564880371094,-59.56603240966797,-112.89939117431641,15.63024044036865,2.25905013084412,-10.28176879882812,9.95446014404297,146.09732055664062,50.07207107543945
444,1990484337,179.63581848144531,-63.31862640380859,-114.62116241455078,18.79050827026367,3.88838362693787,-10.74336433410645,-11.00137710571289,224.27629089355469,52.29036331176758
445,1990501004,179.79360961914062,-68.62925720214844,-115.86951446533203,25.44296264648438,6.88553476333618,-10.73463821411133,-59.01775360107422,318.51358032226562,30.96177673339844
446,1990517671,176.10346984863281,-75.68984222412109,-113.65962219238281,33.52493667602539,7.89579057693481,-9.35549163818359,-94.91726684570312,424.72921752929688,-26.59153938293457
447,1990534338,152.05096435546875,-84.00534820556641,-93.92083740234375,43.83359527587891,4.16649770736694,1.42506575584412,-273.61654663085938,529.60833740234375,-66.51089477539062
448,1990551005,53.73454666137695,-84.31438446044922,3.23405885696411,48.44375991821289,-9.48224830627441,-18.57289314270020,-86.19998931884766,515.94140625000000,-106.74264526367188
449,1990567672,29.04230880737305,-83.19758605957031,22.56021499633789,-12.24202346801758,-14.24688053131104,-37.72393798828125,-328.76840209960938,132.79338073730469,49.65438461303711
450,1990584339,29.24536705017090,-85.76922607421875,13.13755416870117,-9.55311489105225,1.97581803798676,-10.64302921295166,-550.40246582031250,-160.52026367187500,26.03081893920898
451,1990601006,102.04776000976562,-87.07886505126953,-62.33866500854492,5.59678745269775,-19.25309944152832,-4.17709827423096,-154.65170288085938,-266.18597412109375,-53.81696701049805
452,1990617673,143.42588806152344,-83.37854766845703,-100.92467498779297,4.25868940353394,-6.81359863281250,2.87195086479187,173.36788940429688,-272.40579223632812,-74.04232788085938
453,1990634340,157.57775878906250,-79.89933776855469,-109.23109436035156,5.59649658203125,-1.09057903289795,17.19280242919922,355.66110229492188,-216.67674255371094,-40.47366333007812
454,1990651007,161.78388977050781,-78.80637359619141,-106.19626617431641,-0.52542859315872,11.80226612091064,20.97032356262207,431.27822875976562,-49.67815399169922,-55.50676727294922
455,1990667674,160.30294799804688,-79.67555236816406,-100.81081390380859,1.78163480758667,-0.27700299024582,12.93940639495850,228.55203247070312,68.94049835205078,-41.31061935424805
456,1990684341,152.80941772460938,-81.58200836181641,-91.14923095703125,1.45798993110657,6.20413970947266,14.30759525299072,122.41070556640625,142.12156677246094,-42.41823196411133
457,1990701008,136.11817932128906,-83.56547546386719,-75.52016448974609,1.13600301742554,5.10576963424683,8.57758617401123,-71.27330780029297,166.22503662109375,-31.20170211791992
458,1990717675,113.33324432373047,-85.12183380126953,-55.86124038696289,-1.80795276165009,-0.60340166091919,3.72396254539490,-192.79769897460938,147.71463012695312,8.17742919921875
459,1990734342,89.44944763183594,-86.18392181396484,-35.37197875976562,-1.31240284442902,-3.32803511619568,-2.02604699134827,-206.66261291503906,103.71907043457031,41.65722274780273
460,1990751009,65.85161590576172,-86.94380187988281,-14.23485851287842,0.31448906660080,-2.72032022476196,-1.79018628597260,-149.35977172851562,64.96346282958984,58.58402252197266
461,1990767676,42.95021438598633,-87.00408935546875,7.55498266220093,0.64633238315582,1.45227909088135,1.67271971702576,-68.26251983642578,54.35177612304688,41.99660873413086
462,1990784343,32.65031433105469,-86.41986083984375,18.18434715270996,1.79810166358948,-2.66958498954773,1.07038378715515,18.54615402221680,50.03060531616211,6.68832540512085
463,1990801010,29.82777404785156,-85.71549987792969,23.16056442260742,1.77976489067078,1.28306877613068,2.07609915733337,128.36341857910156,46.68392562866211,-5.35105037689209
464,1990817677,28.38444900512695,-84.96838378906250,26.07853889465332,1.49130296707153,4.33441591262817,2.93389511108398,87.76427459716797,46.04212570190430,-10.40952587127686
465,1990834344,25.43696975708008,-84.07950592041016,29.43076324462891,1.33463644981384,4.63520145416260,2.26717543601990,23.23114013671875,56.20800018310547,-8.06172275543213
466,1990851011,20.84156417846680,-83.02999114990234,32.80868530273438,0.74745643138885,4.31820297241211,1.69221174716949,-74.46102142333984,66.81771087646484,-4.88731288909912
467,1990867678,15.45051956176758,-81.88497161865234,35.83107757568359,0.54627335071564,0.75642538070679,0.34188792109489,-143.79646301269531,72.69046783447266,0.13415879011154
468,1990884345,10.53028011322021,-80.68696594238281,38.38109588623047,0.66850978136063,-1.83103060722351,-0.20795801281929,-144.06686401367188,75.26044464111328,5.31674480438232
469,1990901012,6.45220851898193,-79.48760223388672,40.62427902221680,0.45426729321480,-2.63636946678162,0.24377986788750,-112.17094421386719,74.61577606201172,11.16376972198486
470,1990917679,3.46659517288208,-78.33460235595703,42.70922088623047,-0.22186358273029,-3.07050728797913,0.58926177024841,-56.42176437377930,71.04107666015625,16.85452079772949
471,1990934346,1.65006649494171,-77.29617309570312,44.66145324707031,-0.27036264538765,-1.75499689579010,-0.04682474583387,5.46588087081909,63.39500808715820,20.77634239196777
472,1990951013,0.68170195817947,-76.42926025390625,46.42226409912109,0.17899663746357,-0.32135805487633,-0.32354578375816,44.75521087646484,52.55532073974609,21.80591011047363
473,1990967680,0.63319528102875,-75.64566040039062,47.60125732421875,0.20354390144348,1.77021932601929,0.72110044956207,65.71696472167969,47.28359222412109,15.38154697418213
474,1990984347,1.22251880168915,-74.87777709960938,47.98807907104492,0.47853088378906,4.22298955917358,1.11407637596130,57.78467178344727,46.24000167846680,4.00615978240967
475,1991001014,1.63797295093536,-74.28716278076172,47.61729431152344,-1.22551345825195,4.07735347747803,-0.58535182476044,3.46380043029785,35.36035156250000,-7.95171070098877
476,1991017681,2.38588452339172,-74.14545440673828,46.72926330566406,-1.28523457050323,1.99676358699799,-3.75561189651489,-6.41321706771851,8.07482337951660,-15.93919467926025
477,1991034348,3.55182075500488,-74.66274261474609,45.01362609863281,-2.18283605575562,0.67775440216064,-5.46042680740356,-29.19318580627441,-32.32019424438477,-27.18719100952148
478,1991051015,6.05369806289673,-76.00545501708984,42.47796630859375,-2.84807038307190,-0.15772995352745,-7.64592361450195,2.93910861015320,-83.35553741455078,-32.80036163330078
479,1991067682,10.07674026489258,-78.09780120849609,39.04536437988281,-0.01318357884884,-1.44315719604492,-8.02676486968994,40.67214584350586,-130.56214904785156,-29.25489234924316
480,1991084349,19.53834724426270,-81.82048797607422,33.99717330932617,14.15548706054688,0.45972204208374,-63.28102493286133,269.36950683593750,-229.01293945312500,4.76496648788452
481,1991101016,140.35963439941406,-86.14888000488281,-90.49803924560547,49.24159622192383,-46.05068969726562,4.73643684387207,-207.07899475097656,-651.50610351562500,6.06631278991699
482,1991117683,165.80867004394531,-84.22657775878906,-110.99688720703125,22.85774421691895,-5.59446144104004,46.47269439697266,300.93450927734375,-147.38499450683594,39.50653457641602
483,1991134350,169.07858276367188,-78.51041412353516,-107.29167175292969,74.52285003662109,58.62049865722656,31.56805610656738,416.13470458984375,-327.01571655273438,-108.30162048339844
484,1991151017,168.48129272460938,-73.64492034912109,-111.72553253173828,7.96063995361328,-26.10461616516113,-35.42547607421875,-294.00421142578125,-298.45425415039062,4.90643310546875
485,1991167684,170.88236999511719,-71.99593353271484,-111.21755981445312,-16.34775161743164,12.14731121063232,-3.54468202590942,173.16555786132812,-95.61068725585938,-27.73449134826660
486,1991184351,170.88150024414062,-71.44235992431641,-112.26174163818359,-21.25926399230957,-5.69355154037476,-23.21154785156250,-59.54209899902344,-35.79931640625000,12.99397373199463
487,1991201018,170.20254516601562,-72.50365447998047,-113.31605529785156,5.75699567794800,9.24937152862549,-10.72176170349121,-100.90470123291016,59.67312240600586,28.62879753112793
488,1991217685,169.92710876464844,-74.77062988281250,-113.98348999023438,20.13405990600586,0.57110905647278,-3.55922794342041,-54.98555755615234,132.08210754394531,33.43324279785156
489,1991234352,169.47404479980469,-76.46624755859375,-113.09394836425781,14.68189430236816,-0.17049315571785,-4.92707490921021,24.48520469665527,102.52747344970703,3.99010252952576
490,1991251019,168.86358642578125,-77.89929199218750,-111.97312164306641,9.27314949035645,2.35185956954956,-4.97171401977539,28.90797042846680,87.30458068847656,0.34675508737564
491,1991267686,167.12527465820312,-79.38607025146484,-110.72306060791016,6.90032672882080,4.57749795913696,-4.46121883392334,-30.79510307312012,90.36767578125000,2.94506835937500
492,1991284353,165.41438293457031,-80.96182250976562,-109.40662384033203,13.26460361480713,-2.04268908500671,-0.07621341943741,-24.87583351135254,95.05327606201172,8.17317581176758
493,1991301020,164.35697937011719,-82.51111602783203,-107.39695739746094,12.51849269866943,-1.16263186931610,1.04236125946045,55.80901718139648,94.23959350585938,6.31732082366943
494,1991317687,161.58468627929688,-83.91904449462891,-104.53026580810547,8.32954311370850,2.17962408065796,-0.37184178829193,4.38425540924072,86.66299438476562,4.08856153488159
495,1991334354,156.86381530761719,-85.21247100830078,-100.27766418457031,8.43053054809570,-0.30194073915482,-0.05203028768301,-29.32140731811523,80.98027038574219,3.64151668548584
496,1991351021,149.66525268554688,-86.38957977294922,-93.14841461181641,9.62602901458740,-0.34056946635246,0.10807815194130,-5.36221361160278,76.90404510498047,2.34507083892822
497,1991367688,137.00300598144531,-87.33986663818359,-80.57067108154297,9.12029838562012,-0.16116699576378,0.04188771545887,-6.08387088775635,69.96760559082031,-0.90477788448334
498,1991384355,115.46132659912109,-87.98520660400391,-58.84343338012695,8.44176959991455,-0.80176144838333,0.23781275749207,10.69967365264893,65.50613403320312,-2.64145350456238
499,1991401022,85.98852539062500,-88.14301300048828,-29.30185699462891,8.97057628631592,0.46106940507889,1.96992778778076,4.29544687271118,61.20003890991211,-3.65765047073364
500,1991417689,57.85587692260742,-87.83725738525391,-1.58318495750427,8.85769081115723,-0.39295291900635,1.62253355979919,-25.35847473144531,61.55395126342773,0.50182461738586
501,1991434356,42.63357543945312,-87.29745483398438,13.54858970642090,9.10706233978271,-0.86272329092026,1.14872062206268,-6.45404291152954,50.31140136718750,-0.60251218080521
502,1991451023,35.36612319946289,-86.74797058105469,21.05185127258301,9.57176113128662,0.11305579543114,1.25086390972137,13.28309249877930,40.26273727416992,-3.34147977828979
503,1991467690,32.06923294067383,-86.30615234375000,24.57835006713867,9.41085910797119,0.78420317173004,0.94228869676590,13.23406505584717,29.15963935852051,-5.04332542419434
504,1991484357,31.30595397949219,-86.02512359619141,25.47338485717773,9.59496784210205,1.34431838989258,0.81380397081375,7.68666267395020,16.26459693908691,-6.89217472076416
505,1991501024,31.50201416015625,-85.89974212646484,25.19847106933594,9.83001232147217,0.60016828775406,1.54827558994293,-4.73512935638428,5.87885856628418,-6.05117511749268
506,1991517691,25.38619422912598,-85.27855682373047,31.16775894165039,10.77304172515869,-0.32279095053673,1.73616313934326,-10.00519943237305,45.86165237426758,5.49773263931274
507,1991534358,22.19108963012695,-84.86061859130859,34.37948608398438,9.21033382415771,0.73261296749115,0.65326911211014,0.19135309755802,29.66091918945312,3.97086501121521
508,1991551025,20.41106986999512,-84.58025360107422,35.99800872802734,9.45950698852539,0.62151581048965,1.32633614540100,-10.17190170288086,18.97367477416992,1.10543310642242
509,1991567692,19.26505851745605,-84.39031219482422,36.95389175415039,9.61905002593994,0.01658946275711,0.99883413314819,-11.71467971801758,12.66585254669189,0.18820232152939
510,1991584359,18.73861885070801,-84.25331878662109,37.31243515014648,9.74677944183350,0.54162538051605,0.69717925786972,-10.21193790435791,8.54231548309326,-1.80321860313416
511,1991601026,18.76396369934082,-84.18553924560547,37.03903961181641,9.82298183441162,0.84349250793457,0.65958774089813,-14.82438087463379,3.40377712249756,-4.02306079864502
512,1991617693,17.21465110778809,-83.93088531494141,38.03416061401367,10.59015274047852,0.39085069298744,1.68241345882416,-33.62098693847656,16.51203727722168,0.03044084645808
513,1991634360,15.49507999420166,-83.61343383789062,39.37729263305664,9.57587623596191,-0.00652599520981,0.43213087320328,-23.11923599243164,20.80041313171387,1.90173661708832
514,1991651027,14.42619514465332,-83.33623504638672,40.14592361450195,9.58188056945801,0.11377038061619,0.90682411193848,-18.35912895202637,17.48975944519043,-0.36519312858582
515,1991667694,13.77239894866943,-83.09692382812500,40.58283996582031,9.71838188171387,0.02951752208173,1.19363224506378,-13.23522186279297,14.75532913208008,-1.63622462749481
516,1991684361,13.30872344970703,-82.89395141601562,40.85774993896484,9.52846431732178,0.32354977726936,1.38099193572998,-11.48228073120117,12.38909244537354,-2.04000902175903
517,1991701028,13.02951812744141,-82.76112365722656,40.90834808349609,9.47119045257568,0.31313174962997,1.69149756431580,-13.76332950592041,7.92987203598022,-2.59360814094543
518,1991717695,12.58838939666748,-82.63087463378906,41.18222808837891,9.86137485504150,-0.00270369346254,2.03419685363770,-10.18608665466309,8.17861938476562,-0.84250462055206
519,1991734362,12.18805217742920,-82.51811218261719,41.58575057983398,9.62806987762451,0.33057320117950,1.47618055343628,-0.03680545091629,7.36329936981201,0.46035629510880
520,1991751029,11.87119293212891,-82.46013641357422,41.84789276123047,9.57523441314697,0.51023542881012,1.37525320053101,-3.43808293342590,3.91935205459595,0.13898092508316
521,1991767696,11.54595470428467,-82.44441223144531,42.02951431274414,9.78396606445312,0.21611736714840,1.69074904918671,-8.72388458251953,1.31312477588654,0.06144487112761
522,1991784363,11.16325378417969,-82.42132568359375,42.34537887573242,9.76243209838867,-0.09837946295738,1.54324483871460,-4.18988609313965,1.94295406341553,1.02820920944214
523,1991801030,11.01406097412109,-82.42034149169922,42.55701828002930,9.65457248687744,0.09455442428589,1.22638213634491,3.63077926635742,0.48254320025444,0.48365738987923
524,1991817697,11.05386257171631,-82.43397521972656,42.53300857543945,9.76047229766846,0.20380124449730,1.24101424217224,0.94775962829590,-0.74131482839584,-1.18144345283508
525,1991834364,11.18234157562256,-82.45304107666016,42.36286544799805,9.92686748504639,0.31347268819809,1.48681759834290,-2.42301893234253,-1.28649365901947,-2.24904465675354
526,1991851031,11.21378707885742,-82.42780303955078,42.26732254028320,9.85250377655029,0.24143327772617,1.26287984848022,-3.80596423149109,1.43821716308594,-2.18483400344849
527,1991867698,11.24471187591553,-82.38990783691406,42.24034118652344,9.80020618438721,0.30444613099098,1.14383566379547,0.23982451856136,2.28285980224609,-1.80256426334381
528,1991884365,11.21264457702637,-82.36298370361328,42.30776977539062,9.74460887908936,0.47853067517281,1.29677855968475,2.06684231758118,1.77700901031494,-0.93681651353836
529,1991901032,11.18487262725830,-82.36668395996094,42.39219284057617,9.78834915161133,0.31796100735664,1.49329876899719,3.34777188301086,0.01687876880169,-0.44817736744881
530,1991917699,11.18254470825195,-82.37506866455078,42.47561645507812,9.79369354248047,0.25520786643028,1.41767442226410,4.80734968185425,-0.27310180664062,-0.39962854981422
531,1991934366,11.15990734100342,-82.38251495361328,42.52767562866211,9.80808544158936,0.28607445955276,1.32450413703918,1.73079061508179,-0.25535219907761,-0.65791976451874
532,1991951033,11.20765113830566,-82.39429473876953,42.48689270019531,9.80162525177002,0.41728597879410,1.32353389263153,0.42672038078308,-0.66267096996307,-1.33061170578003
533,1991967700,11.21922302246094,-82.41294860839844,42.42411041259766,9.79653835296631,0.39860206842422,1.27544534206390,-3.04340314865112,-1.09017884731293,-1.42243957519531
534,1991984367,11.33861827850342,-82.43950653076172,42.28470230102539,9.83633327484131,0.16757510602474,1.18676006793976,-1.13478994369507,-1.67708766460419,-1.92211151123047
535,1992001034,11.66649436950684,-82.47621917724609,41.99290847778320,9.81136798858643,0.49856135249138,1.00988602638245,2.31219959259033,-2.51619839668274,-2.96506094932556
536,1992017701,11.70323181152344,-82.48456573486328,41.81307220458984,10.02799224853516,0.57794380187988,1.38117921352386,-8.50981521606445,-0.68450605869293,-2.43363618850708
537,1992034368,11.46518039703369,-82.45304107666016,41.87163925170898,9.76620101928711,0.27574992179871,1.21090495586395,-10.81915950775146,2.03487825393677,-1.07721281051636
538,1992051035,11.26450729370117,-82.42814636230469,41.94718551635742,9.66857624053955,0.16777868568897,1.31906831264496,-7.55800819396973,1.68170452117920,-0.85972243547440
539,1992067702,11.19530773162842,-82.43135833740234,41.94976425170898,9.72697830200195,0.21396462619305,1.51217150688171,-4.00640869140625,-0.08451550453901,-1.09245216846466
540,1992084369,10.95507335662842,-82.40785217285156,42.10843276977539,10.06810379028320,0.16940739750862,1.90978109836578,-4.99416303634644,1.71649920940399,-0.18568567931652
541,1992101036,10.45491123199463,-82.31538391113281,42.64044189453125,9.56761646270752,0.04506874084473,1.24278998374939,1.60637748241425,6.32891178131104,1.99473011493683
542,1992117703,10.17384910583496,-82.26424407958984,42.99114608764648,9.70184040069580,0.22631491720676,1.24418747425079,3.97507834434509,3.61940741539001,1.08164989948273
543,1992134370,10.06904029846191,-82.25719451904297,43.17281341552734,9.71856880187988,0.30444023013115,1.38518166542053,4.50029897689819,0.77029567956924,0.22258080542088
544,1992151037,9.95489788055420,-82.25965118408203,43.31455612182617,9.90976524353027,0.27086523175240,1.74903643131256,1.57050669193268,0.15426528453827,0.00539147341624
545,1992167704,9.69607734680176,-82.22859954833984,43.64390945434570,9.64115810394287,0.06180687993765,1.31972849369049,4.03700923919678,2.38514423370361,1.16366171836853
546,1992184371,9.60977363586426,-82.21987152099609,43.84014129638672,9.80395889282227,0.22320593893528,1.18119931221008,6.47170257568359,0.87756806612015,0.33474522829056
547,1992201038,9.64691925048828,-82.22822570800781,43.89892959594727,9.80477428436279,0.43090203404427,1.23597764968872,5.71885490417480,-0.31182822585106,-0.59532243013382
548,1992217705,9.69020843505859,-82.25078582763672,43.85835647583008,9.82772350311279,0.32283768057823,1.40735650062561,0.17329554259777,-1.29307639598846,-1.24806201457977
549,1992234372,9.72663593292236,-82.25589752197266,43.81215667724609,9.75384235382080,0.12942954897881,1.32883536815643,-0.57115674018860,-0.26840186119080,-1.46689701080322
550,1992251039,9.88178920745850,-82.27950286865234,43.66205596923828,9.74515342712402,0.17210428416729,1.38167273998260,0.37709575891495,-1.50315177440643,-2.10586953163147
551,1992267706,10.15398502349854,-82.32411956787109,43.42589950561523,9.75237274169922,0.29925152659416,1.32475519180298,2.28001713752747,-2.86851382255554,-2.55630779266357
552,1992284373,10.44388294219971,-82.37978363037109,43.14089584350586,9.86486339569092,0.32717889547348,1.45410168170929,0.43880960345268,-3.59487724304199,-2.79647779464722
553,1992301040,10.65152168273926,-82.41007232666016,42.97246170043945,9.79328918457031,0.12982809543610,1.24614441394806,2.43694591522217,-1.92797052860260,-2.13415265083313
554,1992317707,10.89889526367188,-82.43921661376953,42.76688766479492,9.78065490722656,0.27371364831924,1.27001523971558,2.60956931114197,-1.92209231853485,-2.42374277114868
555,1992334374,11.21233367919922,-82.48162078857422,42.47960281372070,9.74723815917969,0.28867745399475,1.33166599273682,1.71840083599091,-2.82296752929688,-2.88638448715210
556,1992351041,11.63481140136719,-82.54425811767578,42.09856033325195,9.80499458312988,0.22325488924980,1.33694696426392,2.67261528968811,-4.17896842956543,-3.32871675491333
557,1992367708,12.14945888519287,-82.61706542968750,41.64688491821289,9.76943778991699,0.31573009490967,1.24710643291473,4.00538492202759,-4.88978433609009,-3.68076300621033
558,1992384375,12.79124736785889,-82.71067810058594,41.05852890014648,9.74065780639648,0.29567062854767,1.23293185234070,3.49090218544006,-6.35713720321655,-4.34607887268066
559,1992401042,13.61184215545654,-82.83705139160156,40.28714752197266,9.71774959564209,0.28129413723946,1.18965387344360,3.32176351547241,-8.60663223266602,-5.09671735763550
560,1992417709,14.66629505157471,-82.99781036376953,39.32557296752930,9.73805236816406,0.30550065636635,1.12076377868652,6.01606750488281,-10.98704051971436,-5.70463657379150
561,1992434376,15.84022331237793,-83.17803955078125,38.22941970825195,9.74532985687256,0.34320628643036,1.21220850944519,5.15992593765259,-12.39430999755859,-5.96050930023193
562,1992451043,17.05667686462402,-83.35536193847656,37.10242080688477,9.81810855865479,0.30914500355721,1.12453997135162,5.84032726287842,-12.34477424621582,-5.75697755813599
563,1992467710,18.24096298217773,-83.51100158691406,36.01436614990234,9.88343334197998,0.37024825811386,1.17611527442932,6.21079587936401,-11.05155372619629,-5.45256280899048
564,1992484377,19.27993774414062,-83.62988281250000,35.05051040649414,9.88877010345459,0.40669268369675,1.13865935802460,4.88016223907471,-8.72714614868164,-5.00477409362793
565,1992501044,20.13667869567871,-83.71234893798828,34.22368621826172,9.82293319702148,0.40106275677681,1.13395988941193,2.09931969642639,-6.39986562728882,-4.64327001571655
566,1992517711,20.87194252014160,-83.77531433105469,33.50199508666992,9.82091999053955,0.34993752837181,1.09488320350647,1.07016289234161,-5.09237575531006,-4.25760650634766
567,1992534378,21.49435997009277,-83.82315063476562,32.89977264404297,9.84437656402588,0.42535233497620,1.14039826393127,1.42713975906372,-3.97865772247314,-3.76608514785767
568,1992551045,22.02979278564453,-83.86148071289062,32.38616180419922,9.80417633056641,0.44206082820892,1.05359005928040,1.47215402126312,-3.27488470077515,-3.37152171134949
569,1992567712,22.51303100585938,-83.89253997802734,31.91331863403320,9.81742572784424,0.39996775984764,1.06183278560638,0.77858769893646,-2.77443814277649,-3.25109028816223
570,1992584379,22.95310401916504,-83.92288208007812,31.49008178710938,9.77515411376953,0.41139563918114,1.07563018798828,1.15077865123749,-2.61918663978577,-2.94062614440918
571,1992601046,23.37739944458008,-83.95227050781250,31.07259750366211,9.80519199371338,0.40208274126053,1.09849715232849,0.55424612760544,-2.55532193183899,-2.89758443832397
572,1992617713,23.75953483581543,-83.97523498535156,30.71489715576172,9.80798721313477,0.41014203429222,1.04454243183136,1.56863689422607,-2.07843852043152,-2.67043781280518
573,1992634380,24.08181571960449,-83.99472045898438,30.41599655151367,9.83022594451904,0.47398787736893,0.95513457059860,1.49357247352600,-1.73295521736145,-2.39966630935669
574,1992651047,24.33267593383789,-84.00704193115234,30.17177391052246,9.78882312774658,0.53488004207611,0.93329852819443,0.47161945700645,-1.20676147937775,-2.24731588363647
575,1992667714,24.53771018981934,-84.01804351806641,29.93981742858887,9.76125144958496,0.35460120439529,0.98128360509872,-1.55211043357849,-1.10500228404999,-2.20356941223145
576,1992684381,24.67996406555176,-84.02319335937500,29.78976440429688,9.80609512329102,0.39766597747803,0.98040360212326,-0.43255364894867,-0.57957053184509,-1.87424123287201
577,1992701048,24.84276390075684,-84.02676391601562,29.62039566040039,9.79486370086670,0.42071637511253,0.98286962509155,-0.34906911849976,-0.54329019784927,-2.02306413650513
578,1992717715,24.97154426574707,-84.02417755126953,29.48682594299316,9.79396915435791,0.52671468257904,0.97446048259735,-0.25500640273094,-0.11213877797127,-1.97498846054077
579,1992734382,25.04321861267090,-84.01705932617188,29.39592552185059,9.81520748138428,0.55231297016144,0.94545745849609,-1.12769520282745,0.24752114713192,-1.84865427017212
580,1992751049,25.06473731994629,-84.00655364990234,29.33082771301270,9.80461883544922,0.53211265802383,0.91418117284775,-2.60886430740356,0.49004778265953,-1.78459656238556
581,1992767716,25.03781127929688,-83.99332427978516,29.29674720764160,9.81595039367676,0.44661971926689,0.92689669132233,-3.66269922256470,0.72367399930954,-1.68042993545532
582,1992784383,24.95692634582520,-83.97123718261719,29.32028388977051,9.82925033569336,0.53008913993835,0.89717847108841,-3.45828485488892,1.35935592651367,-1.57493162155151
583,1992801050,24.84924888610840,-83.94916534423828,29.32814979553223,9.75045967102051,0.49759697914124,0.92690050601959,-6.00813198089600,1.31279194355011,-1.65953028202057
584,1992817717,24.73345565795898,-83.92872619628906,29.33926582336426,9.75700569152832,0.34929651021957,1.10564517974854,-6.30046224594116,1.23483967781067,-1.59804701805115
585,1992834384,24.67253494262695,-83.90715789794922,29.36365890502930,9.79640579223633,0.33743232488632,1.03690493106842,-2.21298837661743,1.33495950698853,-1.54868471622467
586,1992851051,24.63488578796387,-83.88964843750000,29.34772109985352,9.73546314239502,0.50609606504440,0.99464690685272,-3.22387075424194,1.00595808029175,-1.67954015731812
587,1992867718,24.61084175109863,-83.87964630126953,29.28706932067871,9.73476505279541,0.45705443620682,1.02664899826050,-5.07070016860962,0.48256248235703,-1.75400900840759
588,1992884385,24.64032554626465,-83.87772369384766,29.19831085205078,9.75080299377441,0.31102651357651,1.09383678436279,-3.53791499137878,-0.03674782812595,-1.71519958972931
589,1992901052,24.75868225097656,-83.88025665283203,29.06658744812012,9.79178428649902,0.36653184890747,1.07038950920105,-0.76939904689789,-0.39736178517342,-1.85240650177002
590,1992917719,24.94264411926270,-83.88797760009766,28.86968612670898,9.75084590911865,0.44482719898224,1.07207548618317,-0.71584928035736,-0.85260832309723,-2.10177803039551
591,1992934386,25.14744949340820,-83.89899444580078,28.63693237304688,9.78497886657715,0.43237245082855,1.01548063755035,-1.61479735374451,-1.13910543918610,-2.21704173088074
592,1992951053,25.36263084411621,-83.91014862060547,28.39558029174805,9.77623748779297,0.46378183364868,0.96692907810211,-1.49793934822083,-1.16788136959076,-2.25747132301331
593,1992967720,25.56426429748535,-83.91869354248047,28.17411041259766,9.79033565521240,0.42679625749588,0.97509133815765,-1.11619508266449,-0.96233963966370,-2.20978045463562
594,1992984387,25.72031593322754,-83.92116546630859,28.00281715393066,9.78287410736084,0.51915127038956,0.93371492624283,-0.87009537220001,-0.51229882240295,-2.06893634796143
595,1993001054,25.84299468994141,-83.92049407958984,27.83543586730957,9.78689861297607,0.50920647382736,0.89317810535431,-2.63456058502197,-0.33123621344566,-2.12808227539062
596,1993017721,25.95394706726074,-83.91704559326172,27.67962074279785,9.76883888244629,0.46299567818642,0.92175424098969,-2.65133094787598,-0.15273495018482,-2.13235330581665
597,1993034388,26.05924797058105,-83.90886688232422,27.53422164916992,9.73707389831543,0.43740484118462,0.97598004341125,-2.37236952781677,0.12516926229000,-2.19584703445435
598,1993051055,26.16656303405762,-83.89944458007812,27.39462852478027,9.79535675048828,0.44543024897575,0.97023850679398,-1.89621698856354,0.21626082062721,-2.20221185684204
599,1993067722,26.27463150024414,-83.89350128173828,27.25343322753906,9.77345943450928,0.53517508506775,0.96186226606369,-1.95237267017365,0.01584145426750,-2.11688327789307
600,1993084389,26.39622879028320,-83.89064788818359,27.09513664245605,9.72187328338623,0.44673672318459,1.03085196018219,-2.15753054618835,-0.20097646117210,-2.13328814506531
601,1993101056,26.55180740356445,-83.89176177978516,26.93466949462891,9.74906063079834,0.43716850876808,1.02956414222717,-0.25553151965141,-0.42479306459427,-2.03928971290588
602,1993117723,26.71354484558105,-83.89475250244141,26.77241134643555,9.79150390625000,0.49920013546944,1.02612507343292,0.01965774595737,-0.52441364526749,-1.99961543083191
603,1993134390,26.91152191162109,-83.90089416503906,26.56270027160645,9.79006195068359,0.45700660347939,1.00609385967255,-0.64357674121857,-0.83884793519974,-2.18033885955811
604,1993151057,27.14668464660645,-83.91234588623047,26.31560325622559,9.71928405761719,0.44679611921310,0.99838417768478,-0.64373034238815,-1.23490989208221,-2.24162960052490
605,1993167724,27.38829994201660,-83.92510986328125,26.06181144714355,9.77901840209961,0.50769495964050,0.97200006246567,-0.65377056598663,-1.32527148723602,-2.23602104187012
606,1993184391,27.60805130004883,-83.93305206298828,25.85268592834473,9.82111454010010,0.50155901908875,0.97021728754044,0.69660139083862,-0.94295084476471,-2.10930204391479
607,1993201058,27.79535484313965,-83.93822479248047,25.67551422119141,9.79755115509033,0.56117200851440,0.94145160913467,0.66391324996948,-0.69397616386414,-2.00740814208984
608,1993217725,27.96202468872070,-83.94261932373047,25.49543190002441,9.73050022125244,0.49687451124191,0.95683979988098,-0.76307272911072,-0.68176525831223,-2.03269433975220
609,1993234392,28.16356849670410,-83.94844818115234,25.30279731750488,9.76191997528076,0.47133356332779,0.94737428426743,0.59112191200256,-0.78432488441467,-2.06529307365417
610,1993251059,28.37888908386230,-83.95681762695312,25.08480453491211,9.75413036346436,0.50231224298477,1.01766121387482,-0.09115560352802,-0.99784517288208,-2.13008022308350
611,1993267726,28.63159561157227,-83.97058868408203,24.84482383728027,9.76980972290039,0.45363104343414,0.97563081979752,0.83693337440491,-1.34831023216248,-2.09374213218689
612,1993284393,28.90483093261719,-83.98748016357422,24.59627151489258,9.73582458496094,0.52487534284592,0.97578012943268,1.55253946781158,-1.55061221122742,-2.03502511978149
613,1993301060,29.17521095275879,-84.00354003906250,24.34865570068359,9.80278778076172,0.49927926063538,0.92007958889008,1.43688511848450,-1.50073146820068,-2.04521894454956
614,1993317727,29.41368484497070,-84.01470184326172,24.13060188293457,9.78062725067139,0.54621011018753,0.90489333868027,1.28528356552124,-1.15895521640778,-2.01575136184692
615,1993334394,29.64599609375000,-84.02492523193359,23.90291786193848,9.74221229553223,0.52291852235794,0.89124143123627,0.34177589416504,-1.14169251918793,-2.08868384361267
616,1993351061,29.88066673278809,-84.03514099121094,23.68155288696289,9.74560260772705,0.50363922119141,0.93050152063370,0.86527389287949,-1.11942219734192,-2.05123805999756
617,1993367728,30.09115409851074,-84.04504394531250,23.49158859252930,9.78689575195312,0.52825099229813,0.91369849443436,1.28756320476532,-1.00702106952667,-1.88321876525879
618,1993384395,30.26499557495117,-84.05370330810547,23.31789398193359,9.77640056610107,0.60610651969910,0.92601561546326,0.04665353149176,-0.90624767541885,-1.82094120979309
619,1993401062,30.43832588195801,-84.06501770019531,23.13388633728027,9.74351882934570,0.54371029138565,0.93374776840210,-0.58608901500702,-1.06422698497772,-1.79794120788574
620,1993417729,30.62385368347168,-84.07877349853516,22.95637321472168,9.76135253906250,0.50442558526993,0.94759786128998,0.52914559841156,-1.17337548732758,-1.68156981468201
621,1993434396,30.79960060119629,-84.09090423583984,22.79921722412109,9.79376983642578,0.54214668273926,0.93753689527512,1.15750193595886,-1.02743434906006,-1.61529695987701
622,1993451063,30.95737457275391,-84.10385894775391,22.64450645446777,9.80261898040771,0.57744872570038,0.91056585311890,0.22391900420189,-1.06075632572174,-1.57426536083221
623,1993467730,31.06011772155762,-84.11537170410156,22.53423690795898,9.79097175598145,0.52821272611618,0.90732765197754,-0.42425519227982,-0.84395772218704,-1.37909662723541
624,1993484397,31.15821075439453,-84.12453460693359,22.44361686706543,9.77412033081055,0.55060148239136,0.92304205894470,0.46448627114296,-0.66765266656876,-1.34186863899231
625,1993501064,31.23818206787109,-84.13418579101562,22.37375640869141,9.79951381683350,0.55154508352280,0.91291189193726,0.61620312929153,-0.62281763553619,-1.21750605106354
626,1993517731,31.29480361938477,-84.14411926269531,22.32490730285645,9.78961467742920,0.52549463510513,0.92271959781647,0.47054368257523,-0.56986337900162,-1.09717774391174
627,1993534398,31.36113166809082,-84.15454101562500,22.26355552673340,9.73421955108643,0.52142065763474,0.90993517637253,0.31027224659920,-0.63301146030426,-1.14813411235809
628,1993551065,31.41006660461426,-84.16359710693359,22.22806358337402,9.81078433990479,0.53718864917755,0.90111523866653,0.81036025285721,-0.47736310958862,-1.05455815792084
629,1993567732,31.42163276672363,-84.17086029052734,22.22625541687012,9.80657005310059,0.53545451164246,0.85812550783157,0.57651627063751,-0.28270658850670,-0.93197572231293
630,1993584399,31.38269805908203,-84.17281341552734,22.27116394042969,9.80608558654785,0.54823726415634,0.86387860774994,0.33588492870331,0.13993498682976,-0.85570102930069
631,1993601066,31.33084297180176,-84.17402648925781,22.32768440246582,9.76344680786133,0.53793734312057,0.86106157302856,0.24801415205002,0.21099099516869,-0.81608462333679
632,1993617733,31.25387001037598,-84.17355346679688,22.40386581420898,9.74393939971924,0.52330935001373,0.86468124389648,-0.08308759331703,0.35858419537544,-0.76503849029541
633,1993634400,31.18914031982422,-84.17358398437500,22.45970726013184,9.76018714904785,0.51720929145813,0.91030704975128,-0.56390196084976,0.26810732483864,-0.85662955045700
634,1993651067,31.12164878845215,-84.17196655273438,22.53110885620117,9.80763816833496,0.55571532249451,0.92932790517807,0.20260925590992,0.40501359105110,-0.82839792966843
635,1993667734,31.03720283508301,-84.16972351074219,22.60431671142578,9.78439998626709,0.52163684368134,0.88285505771637,-0.70458608865738,0.44368878006935,-0.83905285596848
636,1993684401,30.92792320251465,-84.16551208496094,22.70051383972168,9.75368976593018,0.50398302078247,0.90105974674225,-0.82846200466156,0.61259180307388,-0.77374041080475
637,1993701068,30.83345222473145,-84.16128540039062,22.79068565368652,9.77281475067139,0.47402167320251,0.93927693367004,-0.29542326927185,0.59384322166443,-0.80480867624283
638,1993717735,30.75660896301270,-84.15910339355469,22.87492752075195,9.77364635467529,0.51447653770447,0.94982922077179,0.40971347689629,0.47468012571335,-0.77630168199539
639,1993734402,30.69424629211426,-84.16037750244141,22.93923950195312,9.76669025421143,0.50393050909042,0.91766554117203,0.07786260545254,0.22462339699268,-0.76874595880508
640,1993751069,30.63420867919922,-84.16279602050781,23.00302124023438,9.77682876586914,0.48477277159691,0.90448004007339,0.19457969069481,0.16927434504032,-0.74032866954803
641,1993767736,30.59491348266602,-84.16884613037109,23.05365371704102,9.76046371459961,0.47715842723846,0.92247444391251,0.65691447257996,-0.05755813792348,-0.69975811243057
642,1993784403,30.59675407409668,-84.17758941650391,23.06622886657715,9.78727245330811,0.52232789993286,0.96970677375793,0.85300529003143,-0.31454315781593,-0.81854981184006
643,1993801070,30.62092399597168,-84.18732452392578,23.05632400512695,9.78056430816650,0.46900624036789,0.93251067399979,0.85272365808487,-0.43616506457329,-0.90576124191284
644,1993817737,30.64700126647949,-84.19873809814453,23.04548454284668,9.77686595916748,0.51153266429901,0.89835458993912,0.90489679574966,-0.53193092346191,-0.85667431354523
645,1993834404,30.70050239562988,-84.21169281005859,23.01107406616211,9.77452850341797,0.49523830413818,0.89528506994247,1.15326285362244,-0.67108464241028,-0.93743121623993
646,1993851071,30.74054336547852,-84.22307586669922,22.98828125000000,9.78136253356934,0.50218331813812,0.91361194849014,1.03096878528595,-0.56427341699600,-0.91984176635742
647,1993867738,30.77786064147949,-84.23370361328125,22.96266174316406,9.77320003509521,0.50266915559769,0.91727089881897,0.69929069280624,-0.53179007768631,-0.95712733268738
648,1993884405,30.83251190185547,-84.24575042724609,22.92192459106445,9.76937103271484,0.47678935527802,0.90882450342178,0.83966112136841,-0.65228497982025,-0.99129474163055
649,1993901072,30.88121604919434,-84.25788879394531,22.88687133789062,9.76651573181152,0.53058844804764,0.86084991693497,0.82369160652161,-0.63609784841537,-0.95965021848679
650,1993917739,30.91660881042480,-84.27070617675781,22.86512565612793,9.76433849334717,0.50280410051346,0.86202043294907,0.81275492906570,-0.63150030374527,-0.86800795793533
651,1993934406,30.93285751342773,-84.27953338623047,22.85843658447266,9.78862285614014,0.52189707756042,0.87881815433502,0.56276220083237,-0.38262173533440,-0.91199773550034
652,1993951073,30.93939781188965,-84.28769683837891,22.85935020446777,9.79228019714355,0.49299490451813,0.86183768510818,0.44175505638123,-0.31865403056145,-0.89590013027191
653,1993967740,30.93422508239746,-84.29401397705078,22.87693214416504,9.77481746673584,0.48261255025864,0.85983926057816,0.72341781854630,-0.18179252743721,-0.86216825246811
654,1993984407,30.92645072937012,-84.30188751220703,22.90238189697266,9.75669097900391,0.49044045805931,0.86648976802826,1.04603552818298,-0.22962424159050,-0.77820986509323
655,1994001074,30.90578079223633,-84.30587768554688,22.94215965270996,9.80422210693359,0.52471923828125,0.87953042984009,1.12555003166199,0.01328018587083,-0.82462006807327
656,1994017741,30.86837005615234,-84.30863189697266,22.99303817749023,9.75623130798340,0.50822401046753,0.87241142988205,0.78233343362808,0.10847617685795,-0.80478936433792
657,1994034408,30.81801795959473,-84.31124877929688,23.05137634277344,9.76643943786621,0.48210009932518,0.84966856241226,0.44836947321892,0.13232159614563,-0.76797115802765
658,1994051075,30.74815940856934,-84.31342315673828,23.12358093261719,9.78726100921631,0.49779379367828,0.89839345216751,0.10346889495850,0.20157831907272,-0.71333926916122
659,1994067742,30.67592048645020,-84.31407928466797,23.20982360839844,9.77119350433350,0.48016136884689,0.90279537439346,0.81486797332764,0.32785534858704,-0.69099855422974
660,1994084409,30.59090042114258,-84.31832122802734,23.31274223327637,9.77555465698242,0.50191259384155,0.87844836711884,1.03299856185913,0.18744651973248,-0.49225685000420
661,1994101076,30.48638916015625,-84.32159423828125,23.43348312377930,9.76705932617188,0.49138042330742,0.87140208482742,0.92043715715408,0.28584408760071,-0.42792415618896
662,1994117743,30.35040283203125,-84.32032012939453,23.58310699462891,9.78714084625244,0.50607627630234,0.85028934478760,0.77203714847565,0.61715716123581,-0.42351877689362
663,1994134410,30.19394493103027,-84.31745910644531,23.73786544799805,9.77091026306152,0.48434478044510,0.86159688234329,-0.16222442686558,0.70505350828171,-0.44000694155693
664,1994151077,30.03779220581055,-84.31434631347656,23.89338111877441,9.77345657348633,0.48274397850037,0.88567447662354,-0.09449166059494,0.72025477886200,-0.44194075465202
665,1994167744,29.88216972351074,-84.31159973144531,24.05565071105957,9.78024482727051,0.44863137602806,0.86705535650253,0.34157738089561,0.72164428234100,-0.39398735761642
666,1994184411,29.70794868469238,-84.31015014648438,24.23610115051270,9.76450061798096,0.47227421402931,0.91111010313034,0.30835127830505,0.70081466436386,-0.25764453411102
667,1994201078,29.55149078369141,-84.31118011474609,24.41436767578125,9.78674793243408,0.45267036557198,0.92902344465256,1.24526393413544,0.56942152976990,-0.19691683351994
668,1994217745,29.39151000976562,-84.31073760986328,24.59050178527832,9.77122116088867,0.51204890012741,0.89761692285538,0.90356475114822,0.62964975833893,-0.24719455838203
669,1994234412,29.23304939270020,-84.31228637695312,24.75657463073730,9.76517009735107,0.48629623651505,0.87120699882507,0.39750906825066,0.49924269318581,-0.24211044609547
670,1994251079,29.06484603881836,-84.31387329101562,24.93362617492676,9.75231742858887,0.43759545683861,0.90689396858215,0.47123524546623,0.52467608451843,-0.18160042166710
671,1994267746,28.91024017333984,-84.31955718994141,25.10047340393066,9.77438640594482,0.42309036850929,0.93137669563293,0.67725098133087,0.28319960832596,-0.11832426488400
672,1994284413,28.75262069702148,-84.32266998291016,25.28271102905273,9.77475643157959,0.46756404638290,0.89120078086853,1.41497349739075,0.45612376928329,-0.11106306314468
673,1994301080,28.55990791320801,-84.32318115234375,25.49090957641602,9.75541782379150,0.44916284084320,0.86447244882584,0.85386341810226,0.65647917985916,-0.04605804011226
674,1994317747,28.37480926513672,-84.32107543945312,25.68819236755371,9.77131938934326,0.43088549375534,0.87137472629547,0.66185784339905,0.76101738214493,-0.17658036947250
675,1994334414,28.18139266967773,-84.31725311279297,25.89421081542969,9.77212810516357,0.44862365722656,0.89827591180801,0.67978656291962,0.87548041343689,-0.17810429632664
676,1994351081,27.97911071777344,-84.31231689453125,26.10563087463379,9.78040313720703,0.46602723002434,0.88631194829941,0.47373247146606,0.94585132598877,-0.17746397852898
677,1994367748,27.77026176452637,-84.30711364746094,26.32558441162109,9.75790214538574,0.41748526692390,0.90138018131256,0.58975791931152,0.98147857189178,-0.13521584868431
678,1994384415,27.56436347961426,-84.30178070068359,26.55282592773438,9.79197120666504,0.43369829654694,0.88015884160995,1.20617234706879,1.01083731651306,-0.09845521301031
679,1994401082,27.35795211791992,-84.29676055908203,26.76613616943359,9.79646301269531,0.43508189916611,0.91375148296356,0.33561602234840,0.94343096017838,-0.15556514263153
