sep=,
DeviceTag:,Xsens_DOT_2
FirmwareVersion:,3.0.0
AppVersion:,2023.6.0
StartTime: ,2025-04-09_10:55:28_000 CEST
© Movella Technologies B. V. 2005-2025

PacketCounter,SampleTimeFine,Euler_X,Euler_Y,Euler_Z,Acc_X,Acc_Y,Acc_Z,Gyr_X,Gyr_Y,Gyr_Z
0,1983084189,105.79628753662109,-87.90837860107422,-45.90791320800781,0.00000000000000,0.00000000000000,0.00000000000000,0.00000000000000,0.00000000000000,0.00000000000000
1,1983100856,105.51090240478516,-87.90847015380859,-45.63277816772461,9.79103374481201,0.31123375892639,0.06639944016933,-0.30362573266029,-0.46862274408340,0.55815833806992
2,1983117523,105.29615020751953,-87.90744781494141,-45.42803955078125,9.81292629241943,0.27510330080986,0.02529695630074,-0.19043043255806,-0.63629639148712,0.51350271701813
3,1983134190,104.77424621582031,-87.90978240966797,-44.92404937744141,9.79474163055420,0.30091995000839,0.05327833443880,-0.47551259398460,0.04984871670604,0.53086805343628
4,1983150857,104.55599212646484,-87.90818786621094,-44.72890090942383,9.76067256927490,0.27676418423653,0.06390019506216,-0.76670330762863,-0.64888489246368,0.51202982664108
5,1983167524,104.48584747314453,-87.90389251708984,-44.69493484497070,9.74528312683105,0.27838182449341,0.00209893053398,-1.04329490661621,-1.01928293704987,0.41164088249207
6,1983184191,104.33991241455078,-87.90127563476562,-44.56908035278320,9.74721717834473,0.26278129220009,0.07551451027393,-0.63802516460419,-0.81867158412933,0.46033069491386
7,1983200858,104.76383972167969,-87.89522552490234,-45.00678253173828,9.79048347473145,0.25276708602905,0.05584619194269,0.20956952869892,-2.04046130180359,0.59414428472519
8,1983217525,104.75099182128906,-87.89550781250000,-44.99960327148438,9.82708740234375,0.26150158047676,-0.03118498064578,0.20510010421276,-1.02195966243744,0.70868420600891
9,1983234192,104.49407196044922,-87.89782714843750,-44.74646759033203,9.77963829040527,0.25759172439575,0.03826247900724,0.37849801778793,-0.47008264064789,0.68295615911484
10,1983250859,104.69716644287109,-87.89337158203125,-44.96628952026367,9.77393341064453,0.27826437354088,0.03086907044053,-0.09627813845873,-1.56585800647736,0.54702961444855
11,1983267526,104.79000854492188,-87.89095306396484,-45.07613372802734,9.82422065734863,0.30473768711090,0.00046581495553,-0.45011758804321,-1.31066584587097,0.61600464582443
12,1983284193,104.71197509765625,-87.89225769042969,-45.01576232910156,9.79514408111572,0.26314449310303,0.04747208952904,-0.10134945809841,-0.87852847576141,0.73291385173798
13,1983300860,104.69618225097656,-87.89318084716797,-45.00793457031250,9.78046798706055,0.26262930035591,0.02371464855969,0.21503783762455,-1.00146949291229,0.75444138050079
14,1983317527,104.62390899658203,-87.89179229736328,-44.93120574951172,9.76780605316162,0.25551378726959,0.06894782930613,0.77723658084869,-0.90334707498550,0.55876028537750
15,1983334194,104.56080627441406,-87.88724517822266,-44.86986923217773,9.75955104827881,0.26204639673233,0.02472544088960,0.77331781387329,-0.96362668275833,0.40833684802055
16,1983350861,104.29735565185547,-87.88271331787109,-44.59862899780273,9.75538444519043,0.26001423597336,0.05525013804436,0.91727405786514,-0.53798198699951,0.26595589518547
17,1983367528,103.95721435546875,-87.87791442871094,-44.26397705078125,9.76608943939209,0.27695322036743,0.04531569406390,0.84735131263733,-0.37668594717979,0.21379560232162
18,1983384195,103.61924743652344,-87.87201690673828,-43.91958618164062,9.77171707153320,0.29995676875114,0.08290781080723,0.93689334392548,-0.38148835301399,0.17602968215942
19,1983400862,103.37908172607422,-87.86476135253906,-43.67127227783203,9.79237461090088,0.31661209464073,0.04322580620646,1.22360193729401,-0.59846627712250,0.13957001268864
20,1983417529,102.94329071044922,-87.85908508300781,-43.23518371582031,9.77863121032715,0.32928285002708,0.01542775798589,0.76092123985291,-0.16548363864422,0.13812287151814
21,1983434196,102.40756988525391,-87.85196685791016,-42.69229888916016,9.76229095458984,0.28331807255745,0.06357302516699,0.86959606409073,0.04375289753079,0.00287502584979
22,1983450863,101.98229217529297,-87.84487152099609,-42.26435089111328,9.74520492553711,0.29271158576012,0.08726720511913,0.90254664421082,-0.18811245262623,0.05740445852280
23,1983467530,101.78211975097656,-87.83707427978516,-42.04782485961914,9.76439571380615,0.29493829607964,0.09775168448687,1.36258924007416,-0.66085892915726,0.15137745440006
24,1983484197,101.57997131347656,-87.83065795898438,-41.84164428710938,9.78051090240479,0.30287727713585,0.07767380774021,1.36421561241150,-0.64326292276382,0.20896759629250
25,1983500864,101.12400054931641,-87.82373046875000,-41.36905670166016,9.78832340240479,0.26983562111855,0.07342249155045,1.20060169696808,-0.07907921075821,0.09732186049223
26,1983517531,100.56993103027344,-87.81375885009766,-40.78938293457031,9.82656097412109,0.27224048972130,0.10432571172714,1.43515002727509,0.11121675372124,-0.17328271269798
27,1983534198,100.07079315185547,-87.80732727050781,-40.26622772216797,9.81918430328369,0.30832803249359,0.12347304821014,1.79283142089844,0.05994012579322,0.10435254871845
28,1983550865,99.35387420654297,-87.80447387695312,-39.54178237915039,9.80090045928955,0.32421270012856,0.05468403175473,1.00132215023041,0.56712275743484,0.25211220979691
29,1983567532,98.55399322509766,-87.79984283447266,-38.74447250366211,9.76616287231445,0.30914285778999,0.08321803063154,0.90084338188171,0.74345344305038,0.14297649264336
30,1983584199,97.72817230224609,-87.79398345947266,-37.92082977294922,9.74057006835938,0.34592658281326,0.08654437959194,0.89933228492737,0.79849511384964,0.05992731451988
31,1983600866,96.97245025634766,-87.78892517089844,-37.16900253295898,9.78918075561523,0.35350450873375,0.13561335206032,0.19042401015759,0.63266569375992,0.15690980851650
32,1983617533,96.32888793945312,-87.78504180908203,-36.53283309936523,9.79803466796875,0.33224394917488,0.13781629502773,-0.02364052459598,0.38914018869400,0.30159595608711
33,1983634200,95.64104461669922,-87.78371429443359,-35.85911941528320,9.80192279815674,0.33818402886391,0.13473717868328,-0.28886002302170,0.50023525953293,0.44255542755127
34,1983650867,94.93907165527344,-87.78176879882812,-35.17649841308594,9.78009223937988,0.32484278082848,0.13358727097511,-0.83133703470230,0.51173532009125,0.41571331024170
35,1983667534,94.25763702392578,-87.77665710449219,-34.51970291137695,9.75665855407715,0.31186065077782,0.15751537680626,-0.97430706024170,0.45289015769958,0.27161628007889
36,1983684201,93.71861267089844,-87.76998138427734,-34.00728607177734,9.76999568939209,0.33888739347458,0.11993186920881,-1.14198040962219,0.11572457849979,0.20020803809166
37,1983700868,93.07102966308594,-87.76498413085938,-33.39085388183594,9.82898807525635,0.36158767342567,0.17382699251175,-1.56293809413910,0.36831700801849,0.30641111731529
38,1983717535,92.57339477539062,-87.75789642333984,-32.91807174682617,9.81736946105957,0.32409760355949,0.18197651207447,-1.00849997997284,0.04106355831027,0.21400050818920
39,1983734202,92.30780792236328,-87.75223541259766,-32.67097091674805,9.78742504119873,0.34932392835617,0.17743352055550,-0.57418549060822,-0.47425761818886,0.32705494761467
40,1983750869,92.56706237792969,-87.74301910400391,-32.93315505981445,9.82475852966309,0.33671471476555,0.15321293473244,0.60657918453217,-1.66576039791107,0.16963933408260
41,1983767536,93.09397888183594,-87.73082733154297,-33.44220733642578,9.80279254913330,0.34807449579239,0.13716422021389,1.49330377578735,-2.27772474288940,0.01419583987445
42,1983784203,94.09090423583984,-87.71903991699219,-34.42131805419922,9.82378768920898,0.34545728564262,0.10251676291227,1.69575941562653,-3.39533495903015,0.12399748712778
43,1983800870,95.62186431884766,-87.70903015136719,-35.94624328613281,9.83572959899902,0.35263565182686,0.08587785810232,0.82214862108231,-4.71312141418457,0.38309562206268
44,1983817537,96.78074645996094,-87.70304870605469,-37.10416030883789,9.85458564758301,0.34334605932236,0.08009029924870,0.76001220941544,-3.81660008430481,0.67058539390564
45,1983834204,97.41931152343750,-87.70152282714844,-37.73191833496094,9.84688854217529,0.37163218855858,0.05358176305890,0.95753711462021,-2.54929590225220,0.77800494432449
46,1983850871,97.94861602783203,-87.70050048828125,-38.27460479736328,9.77950096130371,0.38325011730194,0.13149432837963,-0.25266927480698,-2.33293294906616,0.80131250619888
47,1983867538,98.65394592285156,-87.69650268554688,-39.00502395629883,9.81665706634521,0.35566139221191,0.02202209830284,-0.78901201486588,-2.79590797424316,0.71672666072845
48,1983884205,98.70624542236328,-87.69573974609375,-39.08182525634766,9.85457897186279,0.33764818310738,0.00952015537769,-1.00255787372589,-1.23053669929504,0.66136479377747
49,1983900872,98.66266632080078,-87.69947814941406,-39.06051254272461,9.82865524291992,0.28999790549278,0.05934492498636,-0.84744745492935,-0.95498234033585,0.89563131332397
50,1983917539,98.20241546630859,-87.70834350585938,-38.61935043334961,9.85532188415527,0.28414022922516,0.04581037163734,-0.75567716360092,0.08039186149836,1.06000089645386
51,1983934206,97.54659271240234,-87.71818542480469,-37.98696517944336,9.78481101989746,0.27743819355965,0.10329026728868,-0.93929457664490,0.53992211818695,1.08770096302032
52,1983950873,96.88562774658203,-87.72772216796875,-37.35446929931641,9.76001644134521,0.28467625379562,0.11289003491402,-0.74541920423508,0.54088270664215,1.05761885643005
53,1983967540,96.29760742187500,-87.73558044433594,-36.78345108032227,9.74657344818115,0.30863100290298,0.11271040141582,-0.24358958005905,0.37210768461227,1.01508879661560
54,1983984207,95.77844238281250,-87.74250030517578,-36.27677154541016,9.74031734466553,0.32301935553551,0.11749646812677,-0.12853734195232,0.20116855204105,0.99235767126083
55,1984000874,95.33237457275391,-87.74919128417969,-35.83126831054688,9.69368267059326,0.29220333695412,0.10871072858572,0.28585693240166,0.03834861516953,0.99701917171478
56,1984017541,94.96482849121094,-87.75144958496094,-35.46545028686523,9.75744724273682,0.25549381971359,0.11389078944921,0.51215791702271,-0.16588063538074,0.73831808567047
57,1984034208,94.82221984863281,-87.75379943847656,-35.31082153320312,9.81472778320312,0.26235935091972,0.14188495278358,1.30108034610748,-0.66160166263580,0.78460019826889
58,1984050875,94.49855041503906,-87.75763702392578,-34.98257827758789,9.81990718841553,0.29764053225517,0.07998913526535,1.17537319660187,-0.23418971896172,0.87329703569412
59,1984067542,93.90813446044922,-87.76183319091797,-34.39631271362305,9.81298732757568,0.29987663030624,0.02480679750443,0.67840999364853,0.36500021815300,0.84197264909744
60,1984084209,93.09582519531250,-87.76612091064453,-33.57728576660156,9.78620052337646,0.28603518009186,0.07191284000874,1.06450867652893,0.89218640327454,0.83450663089752
61,1984100876,92.15657806396484,-87.76962280273438,-32.63150405883789,9.77736282348633,0.29599839448929,0.06057716161013,1.00900578498840,1.17743492126465,0.80510318279266
62,1984117543,91.09600830078125,-87.77551269531250,-31.56866264343262,9.76317310333252,0.31606465578079,0.10740326344967,0.70481663942337,1.44437050819397,0.97883409261703
63,1984134210,90.01064300537109,-87.78141784667969,-30.48435401916504,9.76023864746094,0.29289960861206,0.13153164088726,0.44722971320152,1.48027944564819,1.02142810821533
64,1984150877,89.00560760498047,-87.78671264648438,-29.47847938537598,9.77595138549805,0.29823416471481,0.15014064311981,0.53625953197479,1.28541815280914,1.03463137149811
65,1984167544,87.92414855957031,-87.78892517089844,-28.39973640441895,9.79119682312012,0.28988432884216,0.16249237954617,0.60112369060516,1.45816314220428,0.88881832361221
66,1984184211,86.88197326660156,-87.78689575195312,-27.35748863220215,9.71583938598633,0.30565643310547,0.20060309767723,0.25783663988113,1.36151349544525,0.67055970430374
67,1984200878,86.29691314697266,-87.78292083740234,-26.75754928588867,9.73919200897217,0.27189865708351,0.16084185242653,0.85453575849533,0.34317815303802,0.53821891546249
68,1984217545,85.56467437744141,-87.77613830566406,-26.01987266540527,9.83674812316895,0.29775807261467,0.16882763803005,0.63571357727051,0.69065284729004,0.39587628841400
69,1984234212,84.67249298095703,-87.77024078369141,-25.12226486206055,9.85659503936768,0.29080158472061,0.17686983942986,0.88182610273361,1.07433116436005,0.50928932428360
70,1984250879,83.72858428955078,-87.76699829101562,-24.17559051513672,9.82814693450928,0.28986802697182,0.20812779664993,0.58297705650330,1.17241489887238,0.73260641098022
71,1984267546,83.05313110351562,-87.76226806640625,-23.50169754028320,9.77779102325439,0.29043450951576,0.22026218473911,0.20794309675694,0.55158871412277,0.58275932073593
72,1984284213,82.77513122558594,-87.75580596923828,-23.21847343444824,9.75716304779053,0.29887437820435,0.18002270162106,0.53503012657166,-0.33939388394356,0.38163563609123
73,1984300880,82.62380218505859,-87.75109863281250,-23.07252693176270,9.78824901580811,0.32203102111816,0.21369796991348,0.40291976928711,-0.64788597822189,0.44260662794113
74,1984317547,82.65637969970703,-87.75049591064453,-23.10690498352051,9.82244777679443,0.30286309123039,0.20598326623440,0.47455844283104,-1.10333120822906,0.63563674688339
75,1984334214,82.67522430419922,-87.75127410888672,-23.12166023254395,9.82483768463135,0.30924159288406,0.21619604527950,0.47208687663078,-1.08407020568848,0.73976522684097
76,1984350881,82.66703796386719,-87.75231933593750,-23.10941123962402,9.82571697235107,0.30661678314209,0.19374912977219,0.83842533826828,-1.00747549533844,0.74597632884979
77,1984367548,82.46120452880859,-87.74927520751953,-22.89636039733887,9.79496765136719,0.30726492404938,0.18947808444500,0.88279926776886,-0.51469999551773,0.56618797779083
78,1984384215,82.18212890625000,-87.74414825439453,-22.61135864257812,9.78913402557373,0.32537329196930,0.18747982382774,0.88962507247925,-0.32611367106438,0.46737417578697
79,1984400882,82.07940673828125,-87.74041748046875,-22.50345230102539,9.79298782348633,0.30909937620163,0.20962145924568,0.87418061494827,-0.74927389621735,0.51829212903976
80,1984417549,81.96846008300781,-87.73895263671875,-22.39755058288574,9.78232765197754,0.31534191966057,0.20332099497318,0.22593601047993,-0.77108311653137,0.63053983449936
81,1984434216,82.08141326904297,-87.73860168457031,-22.51430511474609,9.79893589019775,0.30199250578880,0.18244259059429,0.29606360197067,-1.29902493953705,0.62473857402802
82,1984450883,82.31712341308594,-87.74102783203125,-22.75061607360840,9.79354190826416,0.30138760805130,0.20844110846519,0.76795184612274,-1.59249496459961,0.77384275197983
83,1984467550,82.38169860839844,-87.74293518066406,-22.80653762817383,9.78214836120605,0.27008706331253,0.18599882721901,0.83582562208176,-1.18292248249054,0.76838737726212
84,1984484217,82.25827789306641,-87.74379730224609,-22.67465972900391,9.78286838531494,0.26351404190063,0.21870009601116,0.89581048488617,-0.73591691255569,0.79415380954742
85,1984500884,82.23203277587891,-87.74519348144531,-22.64148330688477,9.77501678466797,0.31549996137619,0.22444006800652,0.81383717060089,-0.96799361705780,0.77073103189468
86,1984517551,82.13353729248047,-87.74632263183594,-22.53891754150391,9.76519393920898,0.31187391281128,0.16888891160488,0.89354383945465,-0.79693919420242,0.80218333005905
87,1984534218,81.95011901855469,-87.74658203125000,-22.35336112976074,9.79500102996826,0.28417146205902,0.20475350320339,0.54061365127563,-0.60565060377121,0.77531552314758
88,1984550885,81.85697174072266,-87.74588775634766,-22.26906585693359,9.83475971221924,0.26903313398361,0.23400561511517,0.27052775025368,-0.81596946716309,0.66680747270584
89,1984567552,81.79035186767578,-87.74458312988281,-22.21037292480469,9.81174278259277,0.27731600403786,0.21695452928543,0.52223652601242,-0.86278933286667,0.62669789791107
90,1984584219,81.66267395019531,-87.74493408203125,-22.08445358276367,9.78619766235352,0.33376035094261,0.18758119642735,0.25224024057388,-0.74708402156830,0.75510716438293
91,1984600886,81.42720794677734,-87.74684143066406,-21.85307312011719,9.76067543029785,0.31164437532425,0.18941548466682,0.15632072091103,-0.51375240087509,0.88541191816330
92,1984617553,81.00218200683594,-87.74831390380859,-21.43561744689941,9.74687671661377,0.33283081650734,0.20671211183071,-0.07117769122124,-0.07891272753477,0.91858017444611
93,1984634220,80.66180419921875,-87.75101470947266,-21.11145019531250,9.76113796234131,0.32489731907845,0.20454296469688,-0.52402299642563,-0.30772376060486,0.97223877906799
94,1984650887,80.26749420166016,-87.75370788574219,-20.73202133178711,9.80637931823730,0.31201758980751,0.21707296371460,-0.38134750723839,-0.18015974760056,0.99480372667313
95,1984667554,79.81106567382812,-87.75615692138672,-20.28865242004395,9.80807781219482,0.29722899198532,0.24106472730637,-0.50168871879578,-0.03986616432667,0.99934983253479
96,1984684221,79.37170410156250,-87.75467681884766,-19.86408996582031,9.77521324157715,0.31156596541405,0.25752985477448,-0.48699989914894,-0.03943075239658,0.77365082502365
97,1984700888,78.89694213867188,-87.75049591064453,-19.40053558349609,9.76427936553955,0.31259986758232,0.23678784072399,-0.03635722771287,0.08749938011169,0.65834242105484
98,1984717555,78.42201995849609,-87.74536132812500,-18.93447685241699,9.75674724578857,0.34502530097961,0.23541834950447,0.11536600440741,0.11040995270014,0.59127557277679
99,1984734222,78.00084686279297,-87.73678588867188,-18.52037048339844,9.77833747863770,0.28572824597359,0.29790878295898,-0.08276742696762,0.02280170470476,0.38897362351418
100,1984750889,77.64736938476562,-87.73100280761719,-18.17225646972656,9.84567737579346,0.26118114590645,0.24368634819984,0.46834737062454,-0.14097227156162,0.52323532104492
101,1984767556,77.07478332519531,-87.72393798828125,-17.59416961669922,9.82826328277588,0.29659283161163,0.26377552747726,1.02231168746948,0.40700498223305,0.57472974061966
102,1984784223,76.72305297851562,-87.71475982666016,-17.22879981994629,9.80006504058838,0.33192849159241,0.25523895025253,1.38680613040924,-0.05301829427481,0.33457231521606
103,1984800890,76.51876068115234,-87.70774078369141,-17.00431060791016,9.79783153533936,0.35167226195335,0.27807331085205,1.55659282207489,-0.41963851451874,0.41827464103699
104,1984817557,76.37962341308594,-87.70220184326172,-16.85111808776855,9.79402351379395,0.36456093192101,0.22492915391922,1.47093093395233,-0.58717107772827,0.43642115592957
105,1984834224,76.18508148193359,-87.70152282714844,-16.64271163940430,9.80261230468750,0.36189061403275,0.24498902261257,1.28429114818573,-0.53813558816910,0.77717250585556
106,1984850891,75.97274017333984,-87.70415496826172,-16.41725730895996,9.83057785034180,0.36895284056664,0.21381402015686,1.14013016223907,-0.54757392406464,0.96396607160568
107,1984867558,75.82128906250000,-87.70748138427734,-16.26027679443359,9.80939102172852,0.34647724032402,0.22802236676216,0.90051048994064,-0.71120065450668,0.97620886564255
108,1984884225,75.78831481933594,-87.70885467529297,-16.22305297851562,9.81432247161865,0.32702934741974,0.21037764847279,0.85526573657990,-0.95897787809372,0.79348784685135
109,1984900892,75.83863830566406,-87.71141815185547,-16.26745414733887,9.81821155548096,0.29719594120979,0.20887619256973,0.73961150646210,-1.16960394382477,0.79108023643494
110,1984917559,75.86022949218750,-87.71081542968750,-16.28892326354980,9.85807037353516,0.27993315458298,0.17879925668240,0.69872087240219,-1.06445097923279,0.65815031528473
111,1984934226,75.79829406738281,-87.70526885986328,-16.21120834350586,9.83431243896484,0.29194802045822,0.22355839610100,1.42263829708099,-0.76807367801666,0.40945103764534
112,1984950893,75.63822937011719,-87.70135498046875,-16.03238487243652,9.81881618499756,0.27029383182526,0.25982019305229,1.65494525432587,-0.55112123489380,0.55211371183395
113,1984967560,75.48788452148438,-87.69692230224609,-15.86682319641113,9.82422256469727,0.31718814373016,0.22492937743664,1.61629593372345,-0.56871718168259,0.53501731157303
114,1984984227,75.38489532470703,-87.69445800781250,-15.75028324127197,9.81912231445312,0.31006354093552,0.24777111411095,1.50164067745209,-0.71514499187469,0.62490504980087
115,1985000894,75.35479736328125,-87.69370269775391,-15.69705867767334,9.78612041473389,0.33395677804947,0.25198045372963,1.92077946662903,-0.89104026556015,0.68033087253571
116,1985017561,75.36949920654297,-87.69420623779297,-15.70200920104980,9.75737285614014,0.30083334445953,0.23007713258266,1.62332642078400,-1.02060198783875,0.69692790508270
117,1985034228,75.50000762939453,-87.69445800781250,-15.81287860870361,9.75573348999023,0.31529578566551,0.22791971266270,1.54346609115601,-1.29403054714203,0.63230717182159
118,1985050895,75.73474121093750,-87.69420623779297,-16.03190231323242,9.78425884246826,0.28895041346550,0.20520792901516,1.21646881103516,-1.54407441616058,0.54560816287994
119,1985067562,75.95955657958984,-87.69403839111328,-16.24898529052734,9.83359622955322,0.29585847258568,0.23300038278103,0.98911756277084,-1.52705478668213,0.54231691360474
120,1985084229,76.14240264892578,-87.69115447998047,-16.42690277099609,9.85136127471924,0.30420732498169,0.26925724744797,1.10338878631592,-1.38872075080872,0.41773673892021
121,1985100896,76.37127685546875,-87.68895721435547,-16.64187812805176,9.79708671569824,0.31746473908424,0.21127369999886,1.24620509147644,-1.50346541404724,0.44293960928917
122,1985117563,76.47354888916016,-87.68742370605469,-16.74452400207520,9.78505611419678,0.30950859189034,0.16199009120464,0.80989277362823,-1.23451936244965,0.55329191684723
123,1985134230,76.51091766357422,-87.68674468994141,-16.77755355834961,9.78967952728271,0.29883068799973,0.19697441160679,0.65525609254837,-1.09779870510101,0.62361156940460
124,1985150897,76.44656372070312,-87.68505859375000,-16.71464157104492,9.76380920410156,0.28302979469299,0.18767398595810,0.59071213006973,-0.84684556722641,0.61898857355118
125,1985167564,76.41453552246094,-87.68615722656250,-16.68562698364258,9.78552627563477,0.31529566645622,0.17916779220104,0.23461873829365,-0.97529315948486,0.75661838054657
126,1985184231,76.35772705078125,-87.68522644042969,-16.63151168823242,9.80687332153320,0.30071231722832,0.20179224014282,0.33956676721573,-0.88774895668030,0.67410707473755
127,1985200898,76.30465698242188,-87.68117523193359,-16.57725334167480,9.80830001831055,0.31225091218948,0.20295518636703,0.60421001911163,-0.84322130680084,0.49658539891243
128,1985217565,76.22022247314453,-87.67762756347656,-16.49498558044434,9.79506397247314,0.28007465600967,0.22583511471748,0.47945058345795,-0.77422070503235,0.51340019702911
129,1985234232,76.23424530029297,-87.67375946044922,-16.51369094848633,9.78878879547119,0.27334707975388,0.22523857653141,0.45093074440956,-1.00388967990875,0.44537281990051
130,1985250899,76.31083679199219,-87.66955566406250,-16.59421730041504,9.79781723022461,0.28121870756149,0.20446451008320,0.42944172024727,-1.14744889736176,0.39211124181747
131,1985267566,76.42916107177734,-87.66552734375000,-16.71136093139648,9.80397796630859,0.28051668405533,0.23709282279015,0.67788493633270,-1.24042308330536,0.38374871015549
132,1985284233,76.62682342529297,-87.66268157958984,-16.89962387084961,9.80396461486816,0.29370158910751,0.22850273549557,1.03957462310791,-1.43332505226135,0.42106637358665
133,1985300900,76.82401275634766,-87.66117095947266,-17.08696556091309,9.81965446472168,0.31125918030739,0.23515820503235,1.00317895412445,-1.45300841331482,0.49648293852806
134,1985317567,76.97351074218750,-87.66091918945312,-17.22161102294922,9.80389213562012,0.29653650522232,0.21786414086819,0.90408331155777,-1.35801088809967,0.58270812034607
135,1985334234,77.09865570068359,-87.65899658203125,-17.33755111694336,9.77193546295166,0.30425941944122,0.20661568641663,0.90563303232193,-1.28133928775787,0.51386117935181
136,1985350901,77.26153564453125,-87.65807342529297,-17.50549316406250,9.76027011871338,0.31677716970444,0.20862762629986,0.68462109565735,-1.39226794242859,0.54390490055084
137,1985367568,77.45927429199219,-87.65649414062500,-17.70376396179199,9.77994346618652,0.34331017732620,0.20347657799721,0.57260400056839,-1.47089910507202,0.48571285605431
138,1985384235,77.66808319091797,-87.65773773193359,-17.91363334655762,9.80155467987061,0.33848434686661,0.18885575234890,0.40353450179100,-1.54444575309753,0.65840649604797
139,1985400902,77.81594848632812,-87.65699005126953,-18.07437515258789,9.78903007507324,0.29958197474480,0.17627127468586,0.17340436577797,-1.38156175613403,0.56782716512680
140,1985417569,77.93160247802734,-87.65148162841797,-18.19202804565430,9.80287742614746,0.27534738183022,0.20520818233490,0.59291481971741,-1.22665619850159,0.30287659168243
141,1985434236,78.05110931396484,-87.64698791503906,-18.29928970336914,9.78721809387207,0.30172857642174,0.24118138849735,0.96058499813080,-1.23480105400085,0.35881471633911
142,1985450903,78.24209594726562,-87.64532470703125,-18.48916435241699,9.79154205322266,0.32929930090904,0.19848212599754,0.80209368467331,-1.44972991943359,0.49425464868546
143,1985467570,78.48110198974609,-87.64540863037109,-18.73634338378906,9.80843544006348,0.33163356781006,0.19192855060101,0.31928148865700,-1.60550642013550,0.56926143169403
144,1985484237,78.86872863769531,-87.64349365234375,-19.12895965576172,9.82020092010498,0.29444572329521,0.19372688233852,0.32539013028145,-1.94008517265320,0.37318342924118
145,1985500904,79.27400970458984,-87.64042663574219,-19.52932739257812,9.82944393157959,0.30230545997620,0.17563647031784,0.97860366106033,-1.94721841812134,0.32095918059349
146,1985517571,79.72744750976562,-87.63487243652344,-19.97107696533203,9.78900146484375,0.32414260506630,0.19011683762074,1.26386511325836,-2.02931976318359,0.15884356200695
147,1985534238,80.15238189697266,-87.62900543212891,-20.37661552429199,9.77152347564697,0.30970850586891,0.19727800786495,1.79562306404114,-1.94121217727661,0.16053399443626
148,1985550905,80.59130096435547,-87.62734985351562,-20.80140876770020,9.80394077301025,0.34870269894600,0.19066438078880,1.51930046081543,-2.03472399711609,0.41335693001747
149,1985567572,80.90126037597656,-87.62718963623047,-21.10615539550781,9.78773021697998,0.34065365791321,0.15282587707043,0.95447635650635,-1.75991261005402,0.55499511957169
150,1985584239,81.09408569335938,-87.62380981445312,-21.29874229431152,9.77572917938232,0.32695713639259,0.17111197113991,0.55936211347580,-1.45764422416687,0.39490300416946
151,1985600906,81.23886108398438,-87.61337280273438,-21.44212913513184,9.78606033325195,0.30242156982422,0.20015880465508,0.64449876546860,-1.27622950077057,0.02453056164086
152,1985617573,81.50888061523438,-87.60118865966797,-21.71288490295410,9.83905696868896,0.32144266366959,0.24121439456940,0.78822445869446,-1.56670331954956,-0.13623395562172
153,1985634240,81.77626800537109,-87.59393310546875,-21.97578811645508,9.83880805969238,0.36009407043457,0.19170616567135,0.82919198274612,-1.60822153091431,0.15815201401711
154,1985650907,81.82006072998047,-87.58670806884766,-22.02368545532227,9.81474781036377,0.33139911293983,0.16043956577778,0.28008124232292,-1.07828176021576,0.24586269259453
155,1985667574,81.80003356933594,-87.57408142089844,-22.01495361328125,9.75203609466553,0.28873673081398,0.19046281278133,0.78275609016418,-0.85323584079742,-0.04507834836841
156,1985684241,81.93940734863281,-87.56016540527344,-22.14405822753906,9.72821140289307,0.30229049921036,0.23993632197380,1.02795934677124,-1.23074150085449,-0.20494000613689
157,1985700908,82.27231597900391,-87.54808044433594,-22.46755981445312,9.76093101501465,0.30529171228409,0.24306073784828,1.26221323013306,-1.72968971729279,-0.15633992850780
158,1985717575,82.57891082763672,-87.53796386718750,-22.76231193542480,9.81444644927979,0.29700252413750,0.19155722856522,1.66539537906647,-1.67197144031525,-0.00576285738498
159,1985734242,82.55789947509766,-87.52954864501953,-22.70862007141113,9.83985042572021,0.24731798470020,0.12010859698057,2.43104839324951,-0.82178342342377,0.20483115315437
160,1985750909,82.39164733886719,-87.52069091796875,-22.49957656860352,9.88175106048584,0.28077480196953,0.14231775701046,3.48342299461365,-0.39825186133385,0.22747278213501
161,1985767576,82.04604339599609,-87.50966644287109,-22.11138725280762,9.86575412750244,0.32511198520660,0.12235920131207,3.21240234375000,0.07133777439594,0.16880688071251
162,1985784243,81.72616577148438,-87.49954986572266,-21.74993705749512,9.82252883911133,0.34066551923752,0.09661334007978,3.08029222488403,0.00188893673476,0.20232112705708
163,1985800910,81.27574157714844,-87.49111175537109,-21.24388694763184,9.81885242462158,0.35331565141678,0.12897351384163,2.81860709190369,0.31810334324837,0.37103199958801
164,1985817577,80.88671112060547,-87.48300933837891,-20.81193161010742,9.78850650787354,0.34809195995331,0.17292279005051,2.79555559158325,0.16046996414661,0.38036775588989
165,1985834244,80.48654937744141,-87.47725677490234,-20.37490272521973,9.74986076354980,0.36809191107750,0.15285196900368,2.72221374511719,0.17025402188301,0.52607846260071
166,1985850911,80.04023742675781,-87.46928405761719,-19.90117454528809,9.73229789733887,0.39682415127754,0.17421889305115,2.20039367675781,0.29201680421829,0.43551197648048
167,1985867578,79.67987823486328,-87.46271514892578,-19.51600074768066,9.74445247650146,0.37865486741066,0.20653150975704,1.73548460006714,0.04302293434739,0.45935738086700
168,1985884245,79.52651214599609,-87.45948028564453,-19.35115432739258,9.75283908843994,0.40226897597313,0.19068439304829,1.34303402900696,-0.54950767755508,0.57373094558716
169,1985900912,79.48034667968750,-87.45978546142578,-19.29578971862793,9.75844192504883,0.40407565236092,0.19482786953449,1.02737033367157,-0.88197338581085,0.74040555953979
170,1985917579,79.48805999755859,-87.46055603027344,-19.30428123474121,9.77171897888184,0.39990305900574,0.20177933573723,0.49972301721573,-1.04918575286865,0.72872614860535
171,1985934246,79.62973785400391,-87.46286773681641,-19.44846153259277,9.77934074401855,0.39210531115532,0.22108370065689,0.13673979043961,-1.43151915073395,0.75833433866501
172,1985950913,79.94213104248047,-87.46967315673828,-19.77922058105469,9.79965686798096,0.39045593142509,0.21410615742207,-0.36743980646133,-1.94025158882141,0.92010426521301
173,1985967580,80.32492065429688,-87.47663879394531,-20.18358421325684,9.78741073608398,0.37482473254204,0.19297905266285,-0.64351910352707,-2.13396048545837,0.90695214271545
174,1985984247,80.57271575927734,-87.48083496093750,-20.45308685302734,9.82832336425781,0.34786403179169,0.17748951911926,-0.71841055154800,-1.75881123542786,0.82572138309479
175,1986000914,80.72550964355469,-87.48292541503906,-20.63142967224121,9.81040000915527,0.34792771935463,0.15984761714935,-1.03111600875854,-1.50158274173737,0.73398941755295
176,1986017581,80.99820709228516,-87.48448944091797,-20.93124771118164,9.79191875457764,0.34985074400902,0.16049560904503,-0.98927778005600,-1.80499100685120,0.64978778362274
177,1986034248,81.37781524658203,-87.48658752441406,-21.33179473876953,9.77406311035156,0.34399110078812,0.14866138994694,-0.66137111186981,-2.07343745231628,0.64872479438782
178,1986050915,81.71887207031250,-87.49048614501953,-21.69154930114746,9.79276561737061,0.34925881028175,0.13770402967930,-0.63104569911957,-1.98744308948517,0.79184865951538
179,1986067582,81.92003631591797,-87.49454498291016,-21.90931510925293,9.81678962707520,0.31179127097130,0.11409108340740,-0.55404108762741,-1.62087392807007,0.84607064723969
180,1986084249,82.01881408691406,-87.49688720703125,-22.02023315429688,9.78827476501465,0.34629911184311,0.14278370141983,-0.20260927081108,-1.32301115989685,0.77507233619690
181,1986100916,82.25341796875000,-87.49954986572266,-22.26642608642578,9.77269935607910,0.37877929210663,0.14584708213806,-0.01165377628058,-1.66871833801270,0.75700241327286
182,1986117583,82.45652008056641,-87.50213623046875,-22.48180007934570,9.76099300384521,0.34999632835388,0.12999816238880,-0.03342457488179,-1.58870470523834,0.78183412551880
183,1986134250,82.62657165527344,-87.50173950195312,-22.65907096862793,9.79113769531250,0.31768694519997,0.08696496486664,0.14775323867798,-1.46817100048065,0.58687007427216
184,1986150917,82.75819396972656,-87.49908447265625,-22.79065704345703,9.86478614807129,0.30184450745583,0.17054724693298,0.44532158970833,-1.34053015708923,0.48397114872932
185,1986167584,82.96152496337891,-87.49845123291016,-22.98785209655762,9.84605979919434,0.32914927601814,0.15746733546257,0.95361840724945,-1.52086925506592,0.58963632583618
186,1986184251,83.02194213867188,-87.50135040283203,-23.04124641418457,9.79152870178223,0.35009676218033,0.13277590274811,1.02639698982239,-1.17155063152313,0.82481223344803
187,1986200918,83.11940765380859,-87.50236511230469,-23.12699317932129,9.74242305755615,0.32584503293037,0.14027950167656,1.02480888366699,-1.25658452510834,0.74191653728485
188,1986217585,83.28490447998047,-87.50338745117188,-23.28395080566406,9.70077419281006,0.36595001816750,0.18320268392563,0.93836599588394,-1.43242859840393,0.68440330028534
189,1986234252,83.70952606201172,-87.50699615478516,-23.70823669433594,9.73686218261719,0.36517363786697,0.16880190372467,0.72671556472778,-2.13106632232666,0.79131078720093
190,1986250919,84.27294921875000,-87.51446533203125,-24.26736450195312,9.77966594696045,0.33630391955376,0.16764317452908,0.81401646137238,-2.50467896461487,0.96013689041138
191,1986267586,84.83901214599609,-87.51628112792969,-24.83008003234863,9.78625965118408,0.30907034873962,0.13208515942097,1.01882839202881,-2.46535038948059,0.63908171653748
192,1986284253,85.18688964843750,-87.51148223876953,-25.17602729797363,9.79660320281982,0.33214533329010,0.16427178680897,1.07147538661957,-1.86721706390381,0.34476616978645
193,1986300920,85.46154022216797,-87.50393676757812,-25.44540977478027,9.77047634124756,0.38965559005737,0.17261801660061,0.78588080406189,-1.67916846275330,0.16956245899200
194,1986317587,85.78903198242188,-87.49704742431641,-25.77850914001465,9.78878688812256,0.41855546832085,0.14591097831726,0.09125164151192,-1.85329651832581,0.19394576549530
195,1986334254,86.09774780273438,-87.48791503906250,-26.09206771850586,9.84127807617188,0.35804480314255,0.12215085327625,0.18076804280281,-1.79824221134186,0.09344153851271
196,1986350921,86.26317596435547,-87.47330474853516,-26.25174140930176,9.84772109985352,0.33187475800514,0.14962555468082,0.92987549304962,-1.37282788753510,-0.22599367797375
197,1986367588,86.27304077148438,-87.46248626708984,-26.25035285949707,9.85830402374268,0.37497437000275,0.12721823155880,1.04487645626068,-0.97629207372665,0.03331572189927
198,1986384255,86.26576995849609,-87.45616912841797,-26.24728584289551,9.82162952423096,0.38931855559349,0.13776297867298,0.35107964277267,-0.97990345954895,0.31483769416809
199,1986400922,86.19596862792969,-87.45156097412109,-26.18183898925781,9.79708862304688,0.35406184196472,0.13405588269234,0.07719027251005,-0.83036363124847,0.41591817140579
200,1986417589,86.05090332031250,-87.44794464111328,-26.03787040710449,9.76628589630127,0.32111838459969,0.12911896407604,0.14330945909023,-0.63213419914246,0.48878633975983
201,1986434256,85.82208251953125,-87.44686889648438,-25.81988525390625,9.78444385528564,0.36665886640549,0.11601517349482,0.42285928130150,-0.40747246146202,0.65616542100906
202,1986450923,85.47839355468750,-87.44648742675781,-25.48492622375488,9.83426284790039,0.36854246258736,0.15546846389771,0.04855527356267,-0.12140418589115,0.74103301763535
203,1986467590,85.02600097656250,-87.44350433349609,-25.04930496215820,9.80947971343994,0.36768060922623,0.16445904970169,-0.40226024389267,0.16255740821362,0.58507728576660
204,1986484257,84.54808807373047,-87.44396209716797,-24.58339500427246,9.79770946502686,0.39508721232414,0.20587570965290,-0.55883067846298,0.20265406370163,0.83539015054703
205,1986500924,84.14009094238281,-87.44541931152344,-24.19658851623535,9.78177356719971,0.37803316116333,0.19659009575844,-0.77176189422607,0.00300308899023,0.86609977483749
206,1986517591,83.77706146240234,-87.44741058349609,-23.85292053222656,9.79511260986328,0.32404574751854,0.14464396238327,-0.62113350629807,-0.11623042076826,0.90906512737274
207,1986534258,83.27129364013672,-87.44794464111328,-23.36620140075684,9.83359527587891,0.33614724874496,0.14260907471180,-0.59837669134140,0.27077102661133,0.85535526275635
208,1986550925,82.69719696044922,-87.44810485839844,-22.81665802001953,9.82477283477783,0.34315133094788,0.19660444557667,-0.68928897380829,0.44993194937706,0.86261653900146
209,1986567592,82.21154785156250,-87.44993591308594,-22.34921264648438,9.79448127746582,0.34040975570679,0.20686839520931,-0.60256439447403,0.20260286331177,0.96643751859665
210,1986584259,81.87739562988281,-87.45247650146484,-22.03004264831543,9.76956081390381,0.30366092920303,0.16999319195747,-0.45686650276184,-0.19857525825500,0.95863848924637
211,1986600926,81.61169433593750,-87.45309448242188,-21.76911163330078,9.78489017486572,0.33574181795120,0.13049565255642,0.26028266549110,-0.33141553401947,0.81396520137787
212,1986617593,81.18517303466797,-87.44979095458984,-21.35198020935059,9.81863689422607,0.38433679938316,0.15437208116055,0.53684854507446,0.13676540553570,0.66916376352310
213,1986634260,80.76124572753906,-87.44702911376953,-20.92423629760742,9.83126068115234,0.39046463370323,0.16055423021317,0.40767088532448,0.12178198248148,0.69952756166458
214,1986650927,80.13057708740234,-87.44718170166016,-20.30277252197266,9.79870128631592,0.37999099493027,0.17899008095264,-0.15715953707695,0.61350733041763,0.95410507917404
215,1986667594,79.68839263916016,-87.45201873779297,-19.87814140319824,9.77453708648682,0.34371063113213,0.15505322813988,-0.50451898574829,0.05043781176209,1.15799498558044
216,1986684261,79.18050384521484,-87.45501708984375,-19.38410568237305,9.83636665344238,0.33354538679123,0.15983533859253,-0.37616091966629,0.24035598337650,1.10770452022552
217,1986700928,78.69818878173828,-87.45916748046875,-18.91694641113281,9.81238746643066,0.35183465480804,0.19736990332603,-0.36755505204201,0.15680736303329,1.16702353954315
218,1986717595,78.27050018310547,-87.46495056152344,-18.49564361572266,9.74759387969971,0.35818439722061,0.12923210859299,-0.11852277815342,-0.00254846364260,1.25281322002411
219,1986734262,77.84246826171875,-87.46912384033203,-18.07812500000000,9.71483421325684,0.31736624240875,0.13804562389851,-0.10683055967093,0.01391409989446,1.16286122798920
220,1986750929,77.60297393798828,-87.47477722167969,-17.84318733215332,9.72410964965820,0.33205837011337,0.17244666814804,0.25454542040825,-0.48206943273544,1.15994143486023
221,1986767596,77.43867492675781,-87.48137664794922,-17.68429946899414,9.73719024658203,0.32328569889069,0.12469402700663,0.23554077744484,-0.68654835224152,1.15047764778137
222,1986784263,77.19013977050781,-87.49235534667969,-17.43501853942871,9.78739547729492,0.31767743825912,0.08676081895828,0.61871963739395,-0.51788878440857,1.47472167015076
223,1986800930,76.90439605712891,-87.50409698486328,-17.14018440246582,9.77714252471924,0.30238097906113,0.15832741558552,0.86538273096085,-0.42847487330437,1.53950905799866
224,1986817597,76.87662506103516,-87.51383209228516,-17.10722923278809,9.79051113128662,0.28639301657677,0.18014660477638,1.03235185146332,-1.05576825141907,1.28709578514099
225,1986834264,76.98980712890625,-87.52496337890625,-17.21252441406250,9.79265880584717,0.32409080862999,0.22731631994247,0.92845398187637,-1.43195486068726,1.27545475959778
226,1986850931,77.27356719970703,-87.53709411621094,-17.50090789794922,9.75428295135498,0.31483995914459,0.18097501993179,0.26280552148819,-1.89487886428833,1.21445822715759
227,1986867598,77.59247589111328,-87.54544830322266,-17.81583213806152,9.80050182342529,0.27466931939125,0.14973193407059,0.81953591108322,-1.90840220451355,1.00766122341156
228,1986884265,77.73502349853516,-87.54816436767578,-17.94635963439941,9.81271743774414,0.25454902648926,0.20702122151852,1.26117575168610,-1.37071478366852,0.76646637916565
229,1986900932,77.92215728759766,-87.55151367187500,-18.10693359375000,9.83374309539795,0.24545042216778,0.16522383689880,2.18352770805359,-1.45033204555511,0.78603458404541
230,1986917599,77.97199249267578,-87.55647277832031,-18.14074325561523,9.85039424896240,0.29648131132126,0.14703500270844,2.10894322395325,-1.13418161869049,0.97819375991821
231,1986934266,77.85733032226562,-87.56137084960938,-17.98983764648438,9.85236167907715,0.28973379731178,0.08587758243084,2.00181841850281,-0.72681164741516,1.04360878467560
232,1986950933,77.31497192382812,-87.56153106689453,-17.42628097534180,9.86213397979736,0.29800900816917,0.04725940525532,2.30408620834351,0.41064199805260,0.99549520015717
233,1986967600,76.50619506835938,-87.55912780761719,-16.57979965209961,9.86609840393066,0.32366532087326,0.09648381918669,2.35616993904114,1.10172379016876,1.03410637378693
234,1986984267,75.57798004150391,-87.56281280517578,-15.62487030029297,9.80728721618652,0.31850138306618,0.11648403108120,1.88507544994354,1.28407347202301,1.47852504253387
235,1987000934,74.55903625488281,-87.56490325927734,-14.58293533325195,9.77145576477051,0.29834279417992,0.10042539983988,1.83114814758301,1.51252603530884,1.48878300189972
236,1987017601,73.47724914550781,-87.56763458251953,-13.47241210937500,9.76009082794189,0.27931219339371,0.15116223692894,1.91744995117188,1.64636528491974,1.59474265575409
237,1987034268,72.52667236328125,-87.57054138183594,-12.48946285247803,9.69552040100098,0.27250301837921,0.17697028815746,2.12338876724243,1.30599808692932,1.58148825168610
238,1987050935,71.86065673828125,-87.57811737060547,-11.78622722625732,9.66947937011719,0.28029456734657,0.16353562474251,2.57728433609009,0.53843665122986,1.65609800815582
239,1987067602,71.35394287109375,-87.58403015136719,-11.23985862731934,9.72385501861572,0.30043911933899,0.18203900754452,2.81783843040466,0.17298175394535,1.48727178573608
240,1987084269,70.88127136230469,-87.59092712402344,-10.72329807281494,9.72897911071777,0.30031403899193,0.18633560836315,3.03855609893799,0.09240420907736,1.45913624763489
241,1987100936,70.50959014892578,-87.59865570068359,-10.31141090393066,9.75278949737549,0.31967207789421,0.19899708032608,2.99171066284180,-0.18930345773697,1.47570765018463
242,1987117603,70.26423645019531,-87.61058807373047,-10.03130435943604,9.74031925201416,0.33895608782768,0.22762769460678,2.59651970863342,-0.58996295928955,1.58997881412506
243,1987134270,70.46295166015625,-87.62554168701172,-10.21653652191162,9.72523498535156,0.32557579874992,0.22751851379871,2.25671553611755,-1.71024954319000,1.39644920825958
244,1987150937,70.94481658935547,-87.64299774169922,-10.67222309112549,9.74131870269775,0.30677512288094,0.19544725120068,2.44307374954224,-2.40103721618652,1.30239939689636
245,1987167604,71.51530456542969,-87.65766143798828,-11.21564960479736,9.80851650238037,0.30944639444351,0.20594242215157,2.32014560699463,-2.55001306533813,1.10602676868439
246,1987184271,72.08872985839844,-87.66653442382812,-11.76881885528564,9.77675914764404,0.30748897790909,0.24632377922535,1.88577985763550,-2.45200610160828,0.77417576313019
247,1987200938,72.82711029052734,-87.67636871337891,-12.49920368194580,9.75287723541260,0.29252678155899,0.24539251625538,1.14424085617065,-2.87186217308044,0.71621423959732
248,1987217605,73.61140441894531,-87.68505859375000,-13.28027629852295,9.81962013244629,0.28658229112625,0.24984109401703,0.81414455175400,-2.96150708198547,0.63023251295090
249,1987234272,74.31055450439453,-87.68911743164062,-13.97429561614990,9.87551879882812,0.29103380441666,0.26864507794380,0.88014835119247,-2.68155980110168,0.45382499694824
250,1987250939,74.84156036376953,-87.68979644775391,-14.50065708160400,9.86521720886230,0.31316611170769,0.19127592444420,0.82976818084717,-2.24193072319031,0.39702886343002
251,1987267606,75.16079711914062,-87.69013977050781,-14.82723426818848,9.83014678955078,0.30389937758446,0.14781534671783,0.10924456268549,-1.77083635330200,0.49527916312218
252,1987284273,75.26566314697266,-87.69005584716797,-14.95264053344727,9.83712768554688,0.30769419670105,0.19707469642162,-0.27254474163055,-1.28392624855042,0.61652970314026
253,1987300940,75.24801635742188,-87.68911743164062,-14.95766735076904,9.82690048217773,0.30504336953163,0.19357824325562,-0.07891272008419,-0.97343623638153,0.62267673015594
254,1987317607,75.14457702636719,-87.68843841552734,-14.86454963684082,9.79206848144531,0.30416679382324,0.22131223976612,-0.32008188962936,-0.78719347715378,0.68664443492889
255,1987334274,75.15419769287109,-87.69115447998047,-14.88969326019287,9.76545524597168,0.26690790057182,0.24478150904179,-0.16782721877098,-1.10076987743378,0.83816915750504
256,1987350941,75.36581420898438,-87.69505310058594,-15.11381053924561,9.75007820129395,0.26679676771164,0.26412001252174,-0.13879522681236,-1.58657884597778,0.77672439813614
257,1987367608,75.62648773193359,-87.69777679443359,-15.37853527069092,9.77729892730713,0.23160731792450,0.24972228705883,0.00827930588275,-1.67396938800812,0.67315936088562
258,1987384275,75.82425689697266,-87.69811248779297,-15.58587551116943,9.76339912414551,0.26789617538452,0.26826032996178,-0.14996235072613,-1.50084018707275,0.58961075544357
259,1987400942,76.14574432373047,-87.69870758056641,-15.92289924621582,9.78997707366943,0.26864176988602,0.26930665969849,-0.19813980162144,-1.78804790973663,0.50421786308289
260,1987417609,76.44677734375000,-87.69802856445312,-16.22826004028320,9.85714340209961,0.24389940500259,0.24820256233215,0.28634360432625,-1.70905876159668,0.47088313102722
261,1987434276,76.60407257080078,-87.69625091552734,-16.37923622131348,9.90715503692627,0.24171735346317,0.24705657362938,0.87555080652237,-1.33337140083313,0.48362532258034
262,1987450943,76.66550445556641,-87.69216918945312,-16.43033027648926,9.89050388336182,0.28357720375061,0.22108961641788,1.14653325080872,-1.07173776626587,0.41776227951050
263,1987467610,76.59689331054688,-87.68573760986328,-16.35730552673340,9.90603160858154,0.29472744464874,0.19531512260437,0.40855455398560,-0.76301509141922,0.34982463717461
264,1987484277,76.32219696044922,-87.67923736572266,-16.07886695861816,9.89698600769043,0.31444516777992,0.12459863722324,0.45733395218849,-0.27099516987801,0.44256827235222
265,1987500944,75.68760681152344,-87.66930389404297,-15.45401859283447,9.86018657684326,0.34528282284737,0.17301332950592,0.12655875086784,0.61321282386780,0.47838756442070
266,1987517611,74.98718261718750,-87.66066741943359,-14.76784229278564,9.82113075256348,0.31828790903091,0.19995592534542,-0.53650909662247,0.73242706060410,0.59564244747162
267,1987534278,74.26016235351562,-87.65248107910156,-14.06612205505371,9.75943565368652,0.29952770471573,0.18899115920067,-0.96605974435806,0.77541810274124,0.67099505662918
268,1987550945,73.42398834228516,-87.64440917968750,-13.24985122680664,9.81293773651123,0.30857717990875,0.15510463714600,-0.73110169172287,1.04974293708801,0.76416128873825
269,1987567612,72.30252075195312,-87.62958526611328,-12.14806175231934,9.79039192199707,0.25786232948303,0.20102494955063,-1.08711826801300,1.83224952220917,0.62630099058151
270,1987584279,71.31771850585938,-87.61247253417969,-11.18386173248291,9.72006320953369,0.24390508234501,0.22237332165241,-0.71292948722839,1.59325718879700,0.42965945601463
271,1987600946,70.59940338134766,-87.59808349609375,-10.48215007781982,9.74118137359619,0.29088145494461,0.25695729255676,-0.45808312296867,0.92862033843994,0.45239070057869
272,1987617613,70.20339202880859,-87.59059906005859,-10.11147117614746,9.78098487854004,0.28133556246758,0.19851678609848,-0.86896204948425,0.02943539805710,0.56314003467560
273,1987634280,69.76119995117188,-87.58192443847656,-9.69473743438721,9.82457542419434,0.26937636733055,0.13328579068184,-0.90785497426987,0.16432468593121,0.54162538051605
274,1987650947,69.16847991943359,-87.56546783447266,-9.11344718933105,9.82703495025635,0.26415297389030,0.18224710226059,-0.25715151429176,0.71702110767365,0.26464959979057
275,1987667614,68.81816101074219,-87.55167388916016,-8.77223110198975,9.74771785736084,0.29518371820450,0.21273069083691,-0.02539499104023,0.09848723560572,0.22938092052937
276,1987684281,68.60041809082031,-87.54473114013672,-8.56509017944336,9.77103042602539,0.31705927848816,0.20218808948994,0.05999134108424,-0.35120129585266,0.48016759753227
277,1987700948,68.43950653076172,-87.54385375976562,-8.40484237670898,9.75227069854736,0.32115742564201,0.25390353798866,0.27930009365082,-0.61653614044189,0.79023510217667
278,1987717615,68.49759674072266,-87.55023956298828,-8.47402000427246,9.72851371765137,0.33280351758003,0.23943440616131,-0.20212261378765,-1.31427717208862,0.97268712520599
279,1987734282,68.55959320068359,-87.55528259277344,-8.55766391754150,9.75616359710693,0.31334587931633,0.11257340759039,-0.41294071078300,-1.30350708961487,0.89915299415588
280,1987750949,68.37183380126953,-87.55496215820312,-8.38416957855225,9.82259178161621,0.29793635010719,0.16386151313782,-0.20820562541485,-0.57789933681488,0.81457984447479
281,1987767616,68.21013641357422,-87.55528259277344,-8.23434734344482,9.82112407684326,0.27522081136703,0.21832635998726,-0.24031113088131,-0.66073077917099,0.84324038028717
282,1987784283,68.21450805664062,-87.56105041503906,-8.24983596801758,9.81901836395264,0.28032499551773,0.20717082917690,-0.34642457962036,-1.18059194087982,0.98874628543854
283,1987800950,68.11603546142578,-87.56981658935547,-8.15933418273926,9.82863616943359,0.32326337695122,0.19468080997467,0.13658612966537,-0.98566645383835,1.26098370552063
284,1987817617,67.89044189453125,-87.58159637451172,-7.94166421890259,9.80340576171875,0.30708795785904,0.17762497067451,-0.19538648426533,-0.76615279912949,1.52795767784119
285,1987834284,67.63530731201172,-87.59174346923828,-7.69868707656860,9.74846839904785,0.30391809344292,0.17994871735573,-0.14536488056183,-0.66695469617844,1.47956252098083
286,1987850951,67.26840209960938,-87.59881591796875,-7.33723497390747,9.79110622406006,0.32169321179390,0.18448209762573,0.23222395777702,-0.32998123764992,1.42359876632690
287,1987867618,66.87411499023438,-87.60437011718750,-6.96115398406982,9.81923103332520,0.32212534546852,0.24196350574493,-0.18946994841099,-0.24951893091202,1.35523843765259
288,1987884285,66.73979187011719,-87.61714935302734,-6.83982610702515,9.73751926422119,0.27650111913681,0.24713478982449,-0.15382985770702,-1.02650558948517,1.50992608070374
289,1987900952,66.70542144775391,-87.62991333007812,-6.79745531082153,9.76995182037354,0.27168312668800,0.22774092853069,0.34077051281929,-1.23927032947540,1.42202329635620
290,1987917619,66.62899780273438,-87.64216613769531,-6.72665977478027,9.81453418731689,0.27271088957787,0.24671533703804,0.25654315948486,-1.13471925258636,1.43266534805298
291,1987934286,66.61369323730469,-87.65356445312500,-6.71757030487061,9.77217102050781,0.28711423277855,0.24627931416035,0.23744888603687,-1.25107765197754,1.31648623943329
292,1987950953,66.68361663818359,-87.66460418701172,-6.78209686279297,9.77551746368408,0.28490775823593,0.21319343149662,0.62390613555908,-1.42346417903900,1.23289918899536
293,1987967620,66.66143035888672,-87.67073059082031,-6.74925088882446,9.84661388397217,0.26387813687325,0.22442020475864,1.10710251331329,-1.08378839492798,1.06441891193390
294,1987984287,66.54081726074219,-87.67409515380859,-6.61461544036865,9.83054447174072,0.24894301593304,0.27054774761200,1.28266477584839,-0.78298026323318,0.98313713073730
295,1988000954,66.62414550781250,-87.68142700195312,-6.68851232528687,9.79934406280518,0.28521668910980,0.30851313471794,1.22143757343292,-1.33415257930756,1.00927472114563
296,1988017621,66.67584991455078,-87.68869781494141,-6.73263931274414,9.82560348510742,0.29750317335129,0.25764894485474,1.06861937046051,-1.27402698993683,1.04634916782379
297,1988034288,66.59606933593750,-87.69183349609375,-6.65918684005737,9.82901191711426,0.29164233803749,0.26299464702606,1.00314056873322,-0.88683968782425,0.94713836908340
298,1988050955,66.41011810302734,-87.69420623779297,-6.47250223159790,9.80601787567139,0.28811934590340,0.27362954616547,0.41069328784943,-0.65349525213242,0.98398238420486
299,1988067622,66.15456390380859,-87.69403839111328,-6.22164249420166,9.80585289001465,0.26327416300774,0.21382465958595,0.33089685440063,-0.44881132245064,0.92613601684570
300,1988084289,65.74449157714844,-87.68658447265625,-5.81685400009155,9.83194351196289,0.30243268609047,0.26926732063293,0.37884387373924,0.08249210566282,0.65752291679382
301,1988100956,65.36707305908203,-87.67805480957031,-5.44638776779175,9.80383682250977,0.27806442975998,0.31282511353493,0.02123933099210,0.02072707749903,0.58265686035156
302,1988117623,65.15373229980469,-87.67274475097656,-5.24447822570801,9.78217411041260,0.26531535387039,0.29288768768311,-0.13588817417622,-0.42262232303619,0.59169811010361
303,1988134290,64.90934753417969,-87.66519165039062,-5.01068735122681,9.80711174011230,0.24935463070869,0.25052762031555,-0.17019636929035,-0.29061448574066,0.48933699727058
304,1988150957,64.45771026611328,-87.64948272705078,-4.56529092788696,9.85817337036133,0.27090486884117,0.22250089049339,0.05641837045550,0.37199243903160,0.31002250313759
305,1988167624,63.95705032348633,-87.63223266601562,-4.06765985488892,9.79785633087158,0.26951012015343,0.26599472761154,0.24642618000507,0.55796623229980,0.25334158539772
306,1988184291,63.58258819580078,-87.62134552001953,-3.69121956825256,9.78121757507324,0.26694488525391,0.30111259222031,0.71761023998260,0.12123132497072,0.51428383588791
307,1988200958,63.14735412597656,-87.61508941650391,-3.25864696502686,9.79874134063721,0.29068139195442,0.32959753274918,0.39152210950851,0.12993963062763,0.81904929876328
308,1988217625,62.89548873901367,-87.61304473876953,-3.01884675025940,9.78086662292480,0.27880468964577,0.28205552697182,-0.16764792799950,-0.41738459467888,0.85005354881287
309,1988234292,62.57990646362305,-87.60755920410156,-2.71229028701782,9.82420539855957,0.29752251505852,0.27391961216927,-0.00426451489329,-0.17634344100952,0.74692392349243
310,1988250959,62.17155075073242,-87.59694671630859,-2.31920099258423,9.82316589355469,0.25728666782379,0.27036485075951,-0.52856928110123,0.16638650000095,0.55176800489426
311,1988267626,61.49274063110352,-87.57521057128906,-1.64668619632721,9.82598972320557,0.19556993246078,0.25843486189842,0.15416921675205,1.11382579803467,0.31277588009834
312,1988284293,60.74792098999023,-87.54354095458984,-0.90197759866714,9.79065990447998,0.23957288265228,0.32577958703041,0.71200108528137,1.57878613471985,-0.05569481849670
313,1988300960,60.12067794799805,-87.51210784912109,-0.26934331655502,9.78968048095703,0.27784115076065,0.31170955300331,0.54509586095810,1.34253442287445,-0.17355163395405
314,1988317627,59.60300445556641,-87.49205017089844,0.25168558955193,9.79644107818604,0.29084360599518,0.30624124407768,0.84806859493256,0.78402400016785,0.31647691130638
315,1988334294,59.06620788574219,-87.48215484619141,0.78668826818466,9.83835506439209,0.29767489433289,0.29357904195786,0.66630798578262,0.51635849475861,0.88930487632751
316,1988350961,58.43475341796875,-87.46665191650391,1.40580546855927,9.91804695129395,0.29999610781670,0.29020586609840,0.04172949492931,0.88980442285538,0.73149228096008
317,1988367628,57.60577392578125,-87.43860626220703,2.23271298408508,9.88653850555420,0.35285571217537,0.28501644730568,0.25116452574730,1.74451291561127,0.41991379857063
318,1988384295,56.61053085327148,-87.40761566162109,3.20701932907104,9.82837200164795,0.37796664237976,0.27645379304886,-0.38959479331970,2.22367548942566,0.54665821790695
319,1988400962,55.61666107177734,-87.38214111328125,4.17616796493530,9.77542686462402,0.34329095482826,0.25048449635506,-0.95523846149445,2.04528307914734,0.86524176597595
320,1988417629,54.53097152709961,-87.35721588134766,5.24294233322144,9.80225181579590,0.34135681390762,0.27743044495583,-0.76100450754166,2.25930261611938,1.11153352260590
321,1988434296,53.76889419555664,-87.33567810058594,5.96227645874023,9.75644016265869,0.35729765892029,0.26596340537071,-1.33394777774811,1.40546500682831,0.80902200937271
322,1988450963,53.10747909545898,-87.31707763671875,6.58748912811279,9.79179000854492,0.35032323002815,0.24982221424580,-1.47174394130707,1.05632519721985,0.85229456424713
323,1988467630,52.38584518432617,-87.30172729492188,7.26883172988892,9.80545997619629,0.36117222905159,0.27949401736259,-1.80015039443970,1.08685576915741,1.10274851322174
324,1988484297,51.62120437622070,-87.28920745849609,7.98240184783936,9.75243568420410,0.35821452736855,0.32951441407204,-2.56112933158875,1.06316399574280,1.30744504928589
325,1988500964,50.97367477416992,-87.28019714355469,8.57486724853516,9.71753978729248,0.34822317957878,0.32278180122375,-2.99393224716187,0.64055436849594,1.30187416076660
326,1988517631,50.52386474609375,-87.27739715576172,8.96644783020020,9.71414089202881,0.34643542766571,0.27154964208603,-2.99388122558594,-0.03853430226445,1.25839674472809
327,1988534298,50.12411499023438,-87.27545166015625,9.31094074249268,9.83715152740479,0.33992263674736,0.25549733638763,-2.61514639854431,-0.16579100489616,1.22212922573090
328,1988550965,49.64025115966797,-87.26663208007812,9.74773120880127,9.83959674835205,0.33482831716537,0.30991643667221,-2.03550553321838,0.29745948314667,1.09086418151855
329,1988567632,49.35759353637695,-87.26634216308594,9.98536872863770,9.75009918212891,0.37280109524727,0.30387920141220,-1.69937694072723,-0.44983583688736,1.11798787117004
330,1988584299,49.34663009643555,-87.27380371093750,9.96640586853027,9.75731086730957,0.36224606633186,0.25443711876869,-1.80401778221130,-1.35501420497894,0.96778231859207
331,1988600966,49.37248229980469,-87.28084564208984,9.90638732910156,9.78159046173096,0.34368312358856,0.24380581080914,-1.59340453147888,-1.41393625736237,0.89796197414398
332,1988617633,49.32995986938477,-87.29101562500000,9.91124916076660,9.74840068817139,0.34506294131279,0.23269546031952,-1.70601081848145,-1.37546610832214,1.14037346839905
333,1988634300,49.18319702148438,-87.29788208007812,10.02265262603760,9.79748249053955,0.38689821958542,0.21148622035980,-1.49076163768768,-1.03033494949341,1.20655667781830
334,1988650967,48.96856307983398,-87.29918670654297,10.19580841064453,9.84201145172119,0.41871073842049,0.24573571980000,-1.79505336284637,-0.67451053857803,1.06689059734344
335,1988667634,48.79156112670898,-87.29853820800781,10.32874011993408,9.82028579711914,0.44291651248932,0.26830294728279,-1.97423994541168,-0.68397432565689,0.90070259571075
336,1988684301,48.68917083740234,-87.30521392822266,10.38082599639893,9.79253101348877,0.43229204416275,0.25986391305923,-2.28762364387512,-1.14003407955170,1.08059334754944
337,1988700968,48.53813552856445,-87.31744384765625,10.48192310333252,9.80178546905518,0.38828778266907,0.21355995535851,-2.43574213981628,-1.26877653598785,1.41928303241730
338,1988717635,48.30830383300781,-87.32657623291016,10.67111492156982,9.80394554138184,0.34866291284561,0.18237209320068,-1.89158737659454,-0.97028589248657,1.44890403747559
339,1988734302,47.97123336791992,-87.32467651367188,10.97350025177002,9.83659267425537,0.38396757841110,0.20039686560631,-1.55292344093323,-0.30070587992668,1.16886734962463
340,1988750969,47.51284408569336,-87.32036590576172,11.39082145690918,9.81190109252930,0.40660762786865,0.29845556616783,-1.91170632839203,0.04884982481599,1.26533782482147
341,1988767636,46.96470260620117,-87.32395172119141,11.89044666290283,9.78686904907227,0.42923760414124,0.32300144433975,-2.35908341407776,-0.10284779965878,1.77202105522156
342,1988784303,46.32173538208008,-87.33824920654297,12.48093795776367,9.78185749053955,0.43863630294800,0.31125524640083,-2.64276981353760,-0.40571796894073,2.45015573501587
343,1988800970,45.55161285400391,-87.35795593261719,13.19340038299561,9.78112316131592,0.42937204241753,0.36525624990463,-2.95092868804932,-0.40305420756340,2.90319275856018
344,1988817637,44.77325820922852,-87.37803649902344,13.90583896636963,9.76046276092529,0.47135704755783,0.36323261260986,-3.45090174674988,-0.47324588894844,2.92985630035400
345,1988834304,44.09019851684570,-87.40338897705078,14.51089954376221,9.74794101715088,0.48389497399330,0.35061794519424,-4.14961671829224,-0.92726945877075,2.92127609252930
346,1988850971,43.47035598754883,-87.43447875976562,15.03958702087402,9.72372627258301,0.39755991101265,0.36542865633965,-4.93391609191895,-1.35345208644867,2.99706387519836
347,1988867638,43.07138061523438,-87.48378753662109,15.35587692260742,9.66202259063721,0.37702614068985,0.34720623493195,-4.42405605316162,-2.58635735511780,3.33113026618958
348,1988884305,42.85697174072266,-87.55015563964844,15.49190044403076,9.68691825866699,0.38628920912743,0.28920581936836,-4.17499828338623,-3.68539905548096,3.66898727416992
349,1988900972,43.06997299194336,-87.64250183105469,15.19144248962402,9.77323818206787,0.38927862048149,0.37336429953575,-4.67832803726196,-5.57604026794434,3.92133760452271
350,1988917639,44.46277618408203,-87.79513549804688,13.72592639923096,9.67589473724365,0.41028106212616,0.33991399407387,-3.78066682815552,-10.05755996704102,4.54229259490967
351,1988934306,46.08041763305664,-87.95857238769531,12.04114532470703,9.76927661895752,0.34325575828552,0.15885525941849,-3.44342422485352,-10.57405376434326,5.06384468078613
352,1988950973,46.65018844604492,-88.08154296875000,11.40795326232910,9.88476467132568,0.27363392710686,0.24227385222912,-3.24870300292969,-7.06272935867310,5.15871238708496
353,1988967640,46.76559829711914,-88.18900299072266,11.23161792755127,9.74802875518799,0.31229677796364,0.32676059007645,-3.12435340881348,-5.68954324722290,5.16838216781616
354,1988984307,46.95539474487305,-88.29981231689453,10.97231769561768,9.57459259033203,0.32980892062187,0.11523259431124,-3.67094063758850,-5.93900918960571,5.26800155639648
355,1989000974,46.97417449951172,-88.40898132324219,10.87493038177490,9.51625347137451,0.33691313862801,0.06377208977938,-4.20143079757690,-5.62481880187988,5.39935636520386
356,1989017641,46.85853195190430,-88.51641845703125,10.90105819702148,9.58006763458252,0.31031909584999,0.13854342699051,-4.85683536529541,-5.40549802780151,5.46145582199097
357,1989034308,46.95486068725586,-88.63886260986328,10.70942211151123,9.56579589843750,0.26025936007500,0.15191322565079,-5.25494670867920,-6.29240179061890,5.93335676193237
358,1989050975,46.84737014770508,-88.77443695068359,10.71827793121338,9.60828304290771,0.19428995251656,0.05424550548196,-5.47599744796753,-6.64245128631592,6.73618698120117
359,1989067642,44.87755203247070,-88.89571380615234,12.60416412353516,9.75499343872070,0.11339718103409,-0.04974745213985,-4.67241144180298,-4.55692386627197,7.58991050720215
360,1989084309,40.71163558959961,-88.98124694824219,16.68917465209961,9.83725261688232,0.11545259505510,0.00457006646320,-4.41639852523804,-1.81382763385773,7.47909498214722
361,1989100976,35.03874588012695,-89.01941680908203,22.28075790405273,9.81893444061279,0.10407578945160,0.06146271154284,-4.45205116271973,0.65863698720932,6.61035013198853
362,1989117643,28.98323249816895,-89.03408813476562,28.23056030273438,9.82292652130127,0.11551807075739,0.21397089958191,-5.92698526382446,1.29040026664734,6.19659090042114
363,1989134310,22.95071220397949,-89.05250549316406,34.14246749877930,9.87140083312988,0.08391038328409,0.28573617339134,-6.69882345199585,0.53170049190521,6.32642078399658
364,1989150977,16.19788932800293,-89.04141235351562,40.78065490722656,9.97255039215088,0.00888983439654,0.16405488550663,-6.31912899017334,1.83486223220825,6.49578571319580
365,1989167644,9.04955673217773,-88.99128723144531,47.76326751708984,10.09897136688232,0.03902153670788,0.36655068397522,-9.26844596862793,3.55279707908630,6.82889366149902
366,1989184311,2.82259631156921,-88.93467712402344,53.79849243164062,10.10235881805420,-0.00888627860695,0.44512569904327,-10.87161064147949,3.12384819984436,6.67832946777344
367,1989200978,-2.42235898971558,-88.84970855712891,58.85537719726562,9.97957897186279,-0.04122526198626,0.30537149310112,-10.63073539733887,4.20529365539551,6.40160894393921
368,1989217645,-6.73752880096436,-88.73066711425781,62.96397781372070,9.97481441497803,-0.01175448391587,0.41067448258400,-11.69465065002441,5.87017202377319,6.35881090164185
369,1989234312,-10.78714561462402,-88.61576843261719,66.75511169433594,9.97490119934082,0.04949273914099,0.45370164513588,-14.87284946441650,5.13858556747437,6.87722873687744
370,1989250979,-14.34634971618652,-88.49975585937500,70.01989746093750,9.99577331542969,-0.01094121206552,0.20817071199417,-17.05349349975586,4.83584356307983,6.97065210342407
371,1989267646,-17.00382423400879,-88.36231231689453,72.37628936767578,9.87867832183838,-0.23231297731400,0.22127607464790,-17.45598602294922,5.99026060104370,6.62087154388428
372,1989284313,-18.85148239135742,-88.25302886962891,73.94647216796875,9.49730491638184,-0.40374940633774,0.21698935329914,-16.04812622070312,4.47431850433350,5.35088872909546
373,1989300980,-20.34901237487793,-88.21031188964844,75.21846008300781,9.27685070037842,-0.61299914121628,-0.08320837467909,-12.91961956024170,0.63420295715332,3.74208855628967
374,1989317647,-21.04736900329590,-88.19278717041016,75.79228973388672,9.33727836608887,-0.81308341026306,-0.53549534082413,-6.91667127609253,-0.34218567609787,2.07262444496155
375,1989334314,-20.96551704406738,-88.14480590820312,75.64129638671875,9.66583824157715,-0.84048277139664,-0.59237462282181,-3.58627700805664,1.80206453800201,1.44536948204041
376,1989350981,-21.02224349975586,-88.08184051513672,75.67857360839844,9.85589027404785,-0.78981071710587,-0.48043999075890,-0.62664031982422,2.53449821472168,2.10855913162231
377,1989367648,-21.77352333068848,-88.02503967285156,76.44062042236328,9.98658275604248,-0.65261596441269,-0.54181259870529,1.19523596763611,1.63174057006836,3.36136603355408
378,1989384315,-23.12741470336914,-87.95197296142578,77.82006072998047,9.99979019165039,-0.60224956274033,-0.45963430404663,2.09282016754150,2.01794147491455,5.04421043395996
379,1989400982,-24.78532218933105,-87.85478973388672,79.50918579101562,9.98912429809570,-0.54911446571350,-0.39283549785614,2.39498662948608,2.86070251464844,6.41940832138062
380,1989417649,-26.44318771362305,-87.75196838378906,81.19583129882812,9.87592792510986,-0.42781823873520,-0.30966278910637,2.28331470489502,2.96275568008423,6.85029029846191
381,1989434316,-28.11794281005859,-87.65791320800781,82.88029479980469,9.79000473022461,-0.39835467934608,-0.33504512906075,1.12555658817291,2.20666861534119,6.85378599166870
382,1989450983,-29.54594039916992,-87.55783843994141,84.30244445800781,9.66680622100830,-0.46665316820145,-0.32082536816597,0.16482414305210,2.60477972030640,6.69870138168335
383,1989467650,-30.74746894836426,-87.46503448486328,85.50556945800781,9.55281639099121,-0.53461199998856,-0.27739369869232,0.61819458007812,2.27778244018555,6.17939090728760
384,1989484317,-31.69019699096680,-87.38154602050781,86.46308898925781,9.55122375488281,-0.55201607942581,-0.24428947269917,1.39579629898071,1.98940920829773,5.48389101028442
385,1989500984,-32.21552658081055,-87.31934356689453,87.01604461669922,9.52477455139160,-0.59788680076599,-0.20675532519817,2.20285248756409,1.39667999744415,3.95955109596252
386,1989517651,-32.13237762451172,-87.27330017089844,86.99750518798828,9.47358608245850,-0.72215491533279,-0.21122600138187,4.43812370300293,1.39004611968994,2.10305237770081
387,1989534318,-31.54943656921387,-87.24600982666016,86.52698516845703,9.54383277893066,-0.74117869138718,-0.26566514372826,7.33517837524414,1.12477552890778,0.39748999476433
388,1989550985,-30.20908355712891,-87.21252441406250,85.32031250000000,9.51412010192871,-0.67267364263535,-0.23093314468861,8.66153144836426,2.54339909553528,-1.28314530849457
389,1989567652,-28.78512191772461,-87.18910217285156,84.04919433593750,9.50259017944336,-0.60934197902679,-0.36249443888664,9.83308410644531,2.10295081138611,-1.84675323963165
390,1989584319,-27.52710914611816,-87.15345764160156,82.94009399414062,9.66333484649658,-0.50117796659470,-0.38288447260857,9.54762935638428,2.42679762840271,-1.21928012371063
391,1989600986,-25.98660278320312,-87.09491729736328,81.54249572753906,9.73041534423828,-0.52254754304886,-0.37628498673439,9.24483585357666,4.07676792144775,-1.47412645816803
392,1989617653,-24.15935325622559,-87.01338195800781,79.86279296875000,9.74225616455078,-0.51243871450424,-0.27026352286339,9.54769420623779,5.66044092178345,-1.92202889919281
393,1989634320,-22.08582687377930,-86.91739654541016,77.92733001708984,9.75063610076904,-0.57419669628143,-0.09700509160757,9.00169658660889,6.73897933959961,-2.69808149337769
394,1989650987,-19.81812858581543,-86.82454681396484,75.79057312011719,9.72741222381592,-0.67883628606796,0.06398855894804,8.60870838165283,6.74536991119385,-3.84222698211670
395,1989667654,-17.56430625915527,-86.74423980712891,73.65808868408203,9.77646160125732,-0.59461832046509,0.12104630470276,8.04275608062744,5.90997266769409,-4.55555391311646
396,1989684321,-15.47334098815918,-86.66170501708984,71.66321563720703,9.74633216857910,-0.57400500774384,0.21848125755787,6.52210378646851,5.74123620986938,-4.49754095077515
397,1989700988,-13.55263614654541,-86.56977844238281,69.82299041748047,9.58191204071045,-0.54178535938263,0.33535113930702,5.57942676544189,6.00468730926514,-4.23883914947510
398,1989717655,-11.89143562316895,-86.49966430664062,68.22731018066406,9.46826744079590,-0.48529374599457,0.29017758369446,4.66091632843018,4.40851640701294,-4.03204107284546
399,1989734322,-10.43654155731201,-86.43432617187500,66.82164764404297,9.47972583770752,-0.49803358316422,0.37218216061592,3.67978358268738,3.89793992042542,-3.65330648422241
400,1989750989,-9.11969757080078,-86.38497161865234,65.54997253417969,9.57422542572021,-0.51946115493774,0.39850997924805,3.41575455665588,2.75603556632996,-3.52469182014465
401,1989767656,-7.64220571517944,-86.33350372314453,64.10425567626953,9.63889789581299,-0.58695322275162,0.37190932035446,2.64373636245728,2.89626479148865,-4.31480455398560
402,1989784323,-6.02495670318604,-86.28764343261719,62.51586914062500,9.59124374389648,-0.62089478969574,0.28145000338554,2.49114871025085,2.50211095809937,-5.07761526107788
403,1989800990,-4.69255590438843,-86.24219512939453,61.21615219116211,9.72106266021729,-0.55627441406250,0.06536043435335,2.69661426544189,2.22948956489563,-4.12109613418579
404,1989817657,-3.42973351478577,-86.14344787597656,59.97444534301758,9.93231010437012,-0.73835939168930,0.15108600258827,1.99927020072937,5.30845737457275,-3.83385086059570
405,1989834324,-1.96452319622040,-86.00453186035156,58.55923461914062,9.99008846282959,-0.94401770830154,0.38057839870453,3.76566386222839,7.63888216018677,-4.73500871658325
406,1989850991,-0.30909597873688,-85.85650634765625,57.00452041625977,10.07224559783936,-1.04956483840942,0.81805610656738,6.83744859695435,8.05503749847412,-5.76330852508545
407,1989867658,1.75739216804504,-85.67274475097656,55.06099700927734,10.34307098388672,-1.33708930015564,1.39996969699860,8.26944446563721,9.96682453155518,-8.06960678100586
408,1989884325,4.49066019058228,-85.41140747070312,52.50580978393555,10.35700893402100,-1.79496288299561,1.96827077865601,11.72864437103271,14.07021331787109,-12.06964588165283
409,1989900992,7.63336133956909,-85.09112548828125,49.69670104980469,9.76212501525879,-1.72796356678009,2.06435418128967,21.16318511962891,16.68364906311035,-15.22308635711670
410,1989917659,10.05856227874756,-84.54814147949219,47.89977645874023,9.56636047363281,-1.40756607055664,2.15491724014282,38.71992492675781,29.74928474426270,-13.95840835571289
411,1989934326,10.71366119384766,-83.50209808349609,48.44222259521484,9.54576683044434,-1.77311122417450,3.17514324188232,72.28016662597656,61.42230224609375,-7.33036899566650
412,1989950993,9.83319854736328,-81.77175903320312,51.18975067138672,7.31982898712158,-1.92676997184753,4.02519178390503,111.29090881347656,104.97719573974609,2.91878867149353
413,1989967660,8.09001827239990,-79.77189636230469,55.05459976196289,1.76729285717010,-0.86920213699341,3.99364089965820,124.92332458496094,123.30820465087891,18.69310760498047
414,1989984327,5.00644397735596,-78.28147888183594,59.45054244995117,-3.74809741973877,0.46848204731941,1.64800643920898,74.53145599365234,93.53498840332031,40.32408905029297
415,1990000994,0.96865725517273,-77.02758789062500,63.82006072998047,-5.12951469421387,-0.13688728213310,-0.39969304203987,14.44885349273682,77.01913452148438,52.69526672363281
416,1990017661,-1.93801259994507,-76.06331634521484,67.47488403320312,-3.60996484756470,-1.04133749008179,-3.34523153305054,39.45919799804688,56.40839004516602,52.15200042724609
417,1990034328,-3.07951331138611,-74.65118408203125,69.10249328613281,-0.86685800552368,-0.07018354535103,-3.77875304222107,26.58490562438965,82.58119964599609,29.02830123901367
418,1990050995,-3.29986858367920,-72.91278839111328,69.14012145996094,0.22500213980675,0.68594795465469,1.07942295074463,-10.46935749053955,103.13339233398438,7.09489011764526
419,1990067662,-2.76543045043945,-72.05781555175781,68.81243896484375,0.58224338293076,2.04161882400513,-1.84391736984253,13.88916397094727,50.55463027954102,-2.53541278839111
420,1990084329,-1.81222951412201,-70.99097442626953,67.83290100097656,2.99133348464966,2.50404191017151,-1.61261689662933,2.02329921722412,63.72389602661133,-15.38813591003418
421,1990100996,0.53295856714249,-70.30606842041016,65.71406555175781,4.43804264068604,1.70896995067596,-1.14231467247009,21.32933425903320,40.57444763183594,-40.99378967285156
422,1990117663,3.26961469650269,-69.51329803466797,62.92518615722656,4.38325643539429,0.86584657430649,0.04331077635288,7.61512899398804,44.64801406860352,-58.34632492065430
423,1990134330,5.83056640625000,-69.08904266357422,60.42876815795898,1.95923054218292,1.82259154319763,-0.31371009349823,14.10783767700195,20.19560241699219,-54.11685943603516
424,1990150997,7.55959796905518,-68.77690124511719,58.41936492919922,2.00811362266541,2.86338329315186,-0.65423339605331,-8.19366836547852,12.57313537597656,-44.54854965209961
425,1990167664,8.18197727203369,-68.37879943847656,56.97716903686523,1.61218178272247,2.87023305892944,0.33369126915932,-42.63479614257812,18.36310386657715,-33.89940261840820
426,1990184331,8.57635211944580,-68.08335113525391,55.75389480590820,-0.28502237796783,2.45178747177124,-0.44945970177650,-43.92670059204102,12.60031414031982,-28.83190155029297
427,1990200998,8.58482646942139,-67.70564270019531,54.74406433105469,-1.57977235317230,0.81922191381454,-1.37833714485168,-55.05550384521484,18.03741455078125,-25.24394989013672
428,1990217665,8.00288963317871,-67.17184448242188,54.33498382568359,-1.11775326728821,-1.95871508121490,1.50914454460144,-57.00548171997070,29.36808204650879,-13.25520610809326
429,1990234332,5.97030782699585,-66.55134582519531,54.96924209594727,2.10360693931580,-1.43866121768951,8.55645084381104,-86.38021850585938,37.80474853515625,10.99360752105713
430,1990250999,3.55403900146484,-65.69542694091797,56.20678329467773,18.14690971374512,7.33715152740479,13.34666442871094,-76.49551391601562,52.69416046142578,26.36323165893555
431,1990267666,0.29950776696205,-63.76621627807617,58.08638763427734,38.02590942382812,8.79061698913574,19.82788467407227,-92.67935180664062,116.31515502929688,44.90760803222656
432,1990284333,-0.40665176510811,-62.61231613159180,57.56200027465820,13.05776119232178,-5.88977622985840,8.09397411346436,-69.87556457519531,68.26354980468750,-13.43106651306152
433,1990301000,0.98635935783386,-61.78641128540039,57.38492965698242,36.35420608520508,-4.23126459121704,13.16735458374023,74.74867248535156,48.54209136962891,-4.51910305023193
434,1990317667,0.01440652180463,-61.42702865600586,58.97322845458984,25.91094970703125,-4.54712486267090,16.89650726318359,26.09233093261719,20.97600746154785,45.80536270141602
435,1990334334,-1.70934009552002,-61.56489562988281,59.62532043457031,29.86750793457031,3.32401585578918,10.40405464172363,-68.46319580078125,-9.53108215332031,19.22287559509277
436,1990351001,-1.93299674987793,-62.11502456665039,58.74736022949219,33.61278152465820,-0.00712478160858,8.53833198547363,-59.28720474243164,-33.17706298828125,-25.21464347839355
437,1990367668,-1.73926293849945,-62.80511474609375,57.87728881835938,33.09771728515625,-0.85372537374496,10.19110202789307,-34.09210968017578,-41.57857894897461,-24.77058982849121
438,1990384335,-1.63238763809204,-63.30155181884766,57.07484054565430,32.62730026245117,-2.67182612419128,10.84561538696289,-35.93364715576172,-30.08861923217773,-22.00310325622559
439,1990401002,-1.52321612834930,-64.41040802001953,56.90814971923828,32.29735565185547,-1.72374236583710,9.76833724975586,-1.85733485221863,-67.33959960937500,-5.56041479110718
440,1990417669,-1.88099741935730,-65.62927246093750,56.96906661987305,30.54219436645508,0.48360255360603,8.20176219940186,-17.58070945739746,-74.09278106689453,0.04591809958220
441,1990434336,-2.36335325241089,-67.03965759277344,56.88924026489258,30.79442024230957,1.69225168228149,5.64080381393433,-32.75637054443359,-85.43637084960938,-4.37928676605225
442,1990451003,-2.90137410163879,-68.91136169433594,56.59401321411133,28.67626762390137,0.36548653244972,4.23311424255371,-48.12966537475586,-112.81203460693359,-11.11531448364258
443,1990467670,-3.38871622085571,-72.05300140380859,56.49396896362305,28.12061500549316,-2.46188187599182,4.05473041534424,-34.33065795898438,-189.03805541992188,-11.66759490966797
444,1990484337,-3.81249976158142,-77.82695770263672,56.90405654907227,24.46042251586914,-1.03421986103058,1.90782010555267,-1.09576773643494,-347.10226440429688,-14.70682144165039
445,1990501004,-6.77488708496094,-84.75525665283203,60.12924957275391,21.39678764343262,-0.44548574090004,-5.57450628280640,14.31422615051270,-417.53640747070312,-8.51909732818604
446,1990517671,-135.17968750000000,-89.16420745849609,-171.78712463378906,17.66098022460938,-2.61947202682495,-9.11905574798584,-18.50874137878418,-347.06616210937500,-3.14737391471863
447,1990534338,-170.33790588378906,-86.32166290283203,-135.79624938964844,13.55621051788330,-4.00020742416382,-4.87786054611206,48.28630065917969,-184.35331726074219,1.89699780941010
448,1990551005,-168.33323669433594,-89.42087554931641,-137.88652038574219,14.05554676055908,-4.31254053115845,3.14112424850464,-2.27793025970459,185.09176635742188,-29.75632476806641
449,1990567672,3.78258943557739,-80.32981872558594,47.72158432006836,-5.11664009094238,-6.35886764526367,31.97586822509766,-138.14158630371094,608.34252929687500,-55.12833023071289
450,1990584339,17.37152099609375,-83.12850189208984,37.89022064208984,-9.50973415374756,1.56501388549805,21.98727798461914,231.79328918457031,-181.05024719238281,-51.92274856567383
451,1990601006,19.71427536010742,-82.21218109130859,35.97186279296875,-8.67014503479004,7.29284191131592,24.53335380554199,26.99133300781250,46.52526473999023,-30.74179458618164
452,1990617673,28.72687149047852,-83.86342620849609,24.93510246276855,-9.69185447692871,4.05940246582031,12.22917461395264,-116.13764190673828,-123.84083557128906,-31.90543937683105
453,1990634340,42.76850128173828,-85.15143585205078,11.28640174865723,-5.58690357208252,-4.94844388961792,-13.07684516906738,27.76888656616211,-108.96665191650391,-17.87567710876465
454,1990651007,49.79792022705078,-86.23194885253906,4.62692880630493,0.23450616002083,-0.27383750677109,-9.39626121520996,23.79360389709473,-67.43120574951172,26.80760192871094
455,1990667674,40.00385665893555,-86.52486419677734,14.30276203155518,11.21154975891113,3.94905614852905,-6.44389009475708,-7.73611927032471,12.38333415985107,38.95148468017578
456,1990684341,28.24775886535645,-85.83962249755859,26.31710433959961,11.13503170013428,1.08872890472412,-1.38218414783478,14.55797481536865,59.78231811523438,17.26900100708008
457,1990701008,20.91133499145508,-84.36796569824219,33.74063873291016,5.95512056350708,0.35694846510887,4.31848669052124,4.29630279541016,95.03199005126953,-1.50134897232056
458,1990717675,19.70387268066406,-83.42073822021484,34.44141387939453,-1.03652203083038,-1.18773806095123,9.72551727294922,-30.03446960449219,53.92129516601562,-14.87068843841553
459,1990734342,22.16940689086914,-83.52376556396484,31.77041625976562,0.89592146873474,-1.86351573467255,4.44161796569824,-10.72815418243408,-13.26329040527344,-14.12076568603516
460,1990751009,21.19330787658691,-82.42200469970703,32.82184219360352,0.47094652056694,-1.37966108322144,5.37774372100830,4.64976787567139,63.32838058471680,-16.59488487243652
461,1990767676,22.62080383300781,-81.53852081298828,31.48120689392090,-2.53060889244080,-1.24315881729126,5.69206142425537,6.58408641815186,44.02536392211914,-29.52110862731934
462,1990784343,22.67567253112793,-80.69770812988281,31.31828498840332,-2.93126869201660,-0.45714700222015,3.23757600784302,-5.78056764602661,44.99369812011719,-20.15608978271484
463,1990801010,21.04341125488281,-80.06774139404297,32.95168304443359,-3.29345774650574,0.23742140829563,-0.02389221824706,-0.72764813899994,40.17573165893555,1.78358244895935
464,1990817677,18.30707550048828,-79.51145935058594,35.42629241943359,-2.57200646400452,1.07726025581360,-2.12044548988342,-17.47125434875488,39.28297805786133,14.20495128631592
465,1990834344,15.70240402221680,-79.03419494628906,37.73346710205078,-1.09861302375793,0.34177240729332,-1.76812541484833,-19.69025993347168,33.91229629516602,16.92738151550293
466,1990851011,13.53425979614258,-78.57059478759766,39.70489501953125,0.10408238321543,0.82106751203537,-1.72165811061859,-13.47530651092529,31.71394538879395,15.86908721923828
467,1990867678,12.18658638000488,-78.09161376953125,41.05269622802734,0.70172214508057,0.24703475832939,-1.48997437953949,-1.08324182033539,30.66663169860840,10.21515655517578
468,1990884345,11.19408130645752,-77.43079376220703,42.07524871826172,1.40699577331543,-0.36378595232964,-0.56890147924423,0.98736906051636,40.47188186645508,5.36971521377563
469,1990901012,10.25434017181396,-76.78216552734375,43.15140151977539,1.59481024742126,-0.82433259487152,0.54461729526520,7.13313484191895,39.92851257324219,7.58189868927002
470,1990917679,9.51877212524414,-76.23274993896484,43.96491622924805,2.12386131286621,-0.58104729652405,0.76719367504120,3.90631842613220,33.43917846679688,6.22735071182251
471,1990934346,9.19073295593262,-75.58313751220703,44.16958999633789,1.38644218444824,-0.16483265161514,1.26327383518219,-7.19323682785034,37.95711517333984,-2.71707320213318
472,1990951013,9.59365081787109,-75.06696319580078,43.53472137451172,-0.51029837131500,-0.16721880435944,0.36968478560448,-12.09833431243896,27.98854827880859,-13.90454959869385
473,1990967680,10.39149761199951,-74.54943084716797,42.61788940429688,-1.59209442138672,-0.26652413606644,-0.14358673989773,-4.64389419555664,27.08633041381836,-18.91407775878906
474,1990984347,11.15016841888428,-74.22351837158203,41.90599822998047,-1.85875117778778,-0.06970820575953,0.40133872628212,4.95803165435791,16.06954574584961,-14.27729892730713
475,1991001014,11.75849342346191,-74.26079559326172,41.45431137084961,-1.45007622241974,0.03959291428328,0.12344184517860,10.98540210723877,-4.65327978134155,-6.09947586059570
476,1991017681,11.67518520355225,-74.27114868164062,41.62488555908203,-0.28709122538567,-0.12649860978127,-0.39370322227478,5.42960500717163,-1.03486847877502,3.51300644874573
477,1991034348,11.23773097991943,-74.35034179687500,42.17884826660156,-0.49870949983597,0.08527214825153,0.37000060081482,6.32276105880737,-3.86955571174622,10.42299652099609
478,1991051015,10.51110076904297,-74.55414581298828,42.89616394042969,-0.78315019607544,0.26400181651115,0.28299441933632,-1.56174862384796,-10.82716464996338,14.30473899841309
479,1991067682,9.81841278076172,-74.91224670410156,43.66319656372070,-1.39822673797607,-0.53948616981506,-0.73871278762817,3.41025590896606,-20.00308036804199,16.39070129394531
480,1991084349,9.00033569335938,-75.27586364746094,44.31435775756836,-0.58416640758514,-2.62037563323975,1.87169933319092,-10.76019096374512,-20.87624931335449,14.15208339691162
481,1991101016,8.32012271881104,-75.37439727783203,45.25780105590820,10.53168964385986,-0.72737002372742,11.34556484222412,14.51717948913574,-4.68159914016724,15.73553848266602
482,1991117683,5.57328510284424,-74.98699188232422,47.96589279174805,55.30116271972656,10.24463748931885,23.26840209960938,-7.14662885665894,27.09793663024902,39.10412979125977
483,1991134350,0.47792226076126,-73.00283813476562,52.81733322143555,85.80557250976562,3.55386805534363,34.25622177124023,-25.27575874328613,122.01390075683594,74.52259826660156
484,1991151017,6.74877262115479,-72.35451507568359,47.84731292724609,-14.56309032440186,-14.54639148712158,-7.79559707641602,92.11166381835938,32.18177032470703,-90.33839416503906
485,1991167684,10.67406940460205,-73.13896179199219,45.13873291015625,31.14593124389648,10.97427082061768,-1.98460578918457,79.15454101562500,-54.90636444091797,-40.37530899047852
486,1991184351,9.50867938995361,-73.84423065185547,46.73347473144531,34.34631347656250,-0.76465970277786,-3.08607840538025,21.33879280090332,-37.94802856445312,34.54974365234375
487,1991201018,6.92490243911743,-74.26441955566406,48.90777587890625,29.97827911376953,2.78250622749329,4.31147623062134,-29.85952377319336,-20.84856605529785,39.50587844848633
488,1991217685,6.42636871337891,-74.00752258300781,49.24416351318359,24.64769744873047,-0.63503348827362,4.80238151550293,-10.91604328155518,14.94256401062012,4.08614635467529
489,1991234352,7.50098705291748,-73.57202911376953,48.44974517822266,17.36930274963379,0.22915439307690,3.83510017395020,18.15912437438965,23.31199645996094,-16.02074241638184
490,1991251019,8.85105800628662,-73.13433837890625,47.53873825073242,12.06330680847168,0.20548006892204,2.17746257781982,27.93669891357422,22.74305152893066,-18.92931747436523
491,1991267686,9.86356544494629,-72.89897155761719,46.99602508544922,11.01130771636963,1.00038230419159,1.16420173645020,28.92073631286621,11.35510730743408,-11.38075256347656
492,1991284353,10.21981620788574,-72.81891632080078,47.07585144042969,9.74347686767578,1.00216150283813,1.83252751827240,25.23263549804688,3.94204068183899,0.83893960714340
493,1991301020,9.95427894592285,-72.95327758789062,47.73817825317383,8.45519924163818,1.73801016807556,1.97259092330933,21.37494277954102,-6.92438364028931,13.22765254974365
494,1991317687,9.78302192687988,-73.13410186767578,48.12633514404297,5.38691663742065,0.71070861816406,1.00609576702118,11.33051300048828,-10.55586242675781,8.86101150512695
495,1991334354,9.79916477203369,-73.37364196777344,48.26834487915039,3.82792782783508,-0.18206590414047,1.50962316989899,9.69679450988770,-14.70777797698975,5.55253934860229
496,1991351021,10.31684494018555,-73.78607177734375,48.05737304687500,3.96223902702332,-0.10086230933666,1.70491993427277,19.47858810424805,-25.96137428283691,1.48862218856812
497,1991367688,11.37457942962646,-74.24321746826172,47.30701828002930,4.57682800292969,0.90827065706253,1.52503561973572,20.74571418762207,-30.23802566528320,-6.32385730743408
498,1991384355,12.45048713684082,-74.69169616699219,46.49431228637695,4.93823623657227,1.03639864921570,1.96130096912384,18.13235473632812,-29.99261856079102,-6.52930831909180
499,1991401022,13.00494670867920,-75.13948822021484,46.13017654418945,5.45611476898193,0.85595971345901,1.83948874473572,12.73892307281494,-28.42295837402344,1.06661248207092
500,1991417689,12.90137386322021,-75.60388946533203,46.35276031494141,6.38043355941772,0.67853796482086,2.31741285324097,7.26922178268433,-27.36851501464844,10.22640991210938
501,1991434356,12.18208122253418,-76.18608856201172,47.22730255126953,8.43313217163086,0.68585693836212,2.62071824073792,8.29404449462891,-32.28961563110352,20.75870132446289
502,1991451023,11.51234626770020,-76.75059509277344,47.99428176879883,10.98593044281006,0.36901909112930,2.79190540313721,5.12264728546143,-31.90531349182129,18.18422508239746
503,1991467690,12.04347705841064,-77.21037292480469,47.49119949340820,10.35565662384033,0.39251479506493,2.62850141525269,3.01825475692749,-29.36274719238281,-0.32949557900429
504,1991484357,13.14127063751221,-77.68721008300781,46.42610931396484,8.28461551666260,0.83508592844009,2.60021305084229,4.04760980606079,-31.91350936889648,-6.61885929107666
505,1991501024,13.92173385620117,-78.25793457031250,45.67131805419922,8.18272781372070,1.13760459423065,2.59872007369995,3.09033370018005,-36.47275543212891,-0.46471896767616
506,1991517691,14.39429092407227,-78.86877441406250,45.14510726928711,8.67726039886475,0.60362523794174,2.48768353462219,-2.03300571441650,-38.03482055664062,3.59239816665649
507,1991534358,14.82821273803711,-79.45095825195312,44.60909271240234,9.52475738525391,0.54531568288803,2.32391715049744,-4.99205398559570,-36.29574203491211,3.65761971473694
508,1991551025,15.26217555999756,-79.95085144042969,44.02046585083008,9.68948936462402,0.80871337652206,2.27888941764832,-8.15741920471191,-31.57797050476074,2.38814353942871
509,1991567692,15.66734981536865,-80.43162536621094,43.39666748046875,9.56393718719482,0.77987015247345,2.08840560913086,-12.01388740539551,-30.47431373596191,2.24581313133240
510,1991584359,15.85647201538086,-80.93278503417969,42.92547988891602,9.53782272338867,0.57060831785202,1.78932213783264,-15.98515987396240,-31.14365577697754,4.46177101135254
511,1991601026,15.91650581359863,-81.42799377441406,42.55521011352539,9.52806663513184,0.16312761604786,1.64601778984070,-17.80688667297363,-30.49321937561035,5.55969095230103
512,1991617693,16.07051467895508,-81.95011138916016,42.08240890502930,9.71897315979004,0.00534822233021,1.48976802825928,-18.26969146728516,-32.21400451660156,5.39018678665161
513,1991634360,16.35874366760254,-82.46708679199219,41.46012115478516,10.16042137145996,-0.02239567227662,1.31820571422577,-19.14373397827148,-32.16881561279297,4.50206327438354
514,1991651027,16.76942634582520,-82.92784881591797,40.72674179077148,10.21001148223877,0.17053066194057,1.26372170448303,-18.45530700683594,-29.06516265869141,3.22280144691467
515,1991667694,17.18472290039062,-83.32538604736328,40.00138854980469,10.21224594116211,0.34632503986359,1.33882451057434,-17.73803329467773,-25.30696678161621,2.68633961677551
516,1991684361,17.46366691589355,-83.68531036376953,39.39432907104492,10.07387256622314,0.48343271017075,1.37319755554199,-18.90109062194824,-22.81695175170898,3.20141172409058
517,1991701028,17.56747627258301,-84.01912689208984,38.91607666015625,9.92145538330078,0.39325764775276,1.18618071079254,-21.74699211120605,-20.99487304687500,3.79996991157532
518,1991717695,17.59374427795410,-84.31528472900391,38.50196838378906,9.87339591979980,0.23369102180004,0.99686157703400,-22.59123992919922,-18.67820930480957,3.66322302818298
519,1991734362,17.82006645202637,-84.57617187500000,37.90295791625977,10.03792095184326,0.13551642000675,0.84042137861252,-21.63976669311523,-16.94238281250000,2.15242648124695
520,1991751029,18.11880302429199,-84.75111389160156,37.25162506103516,10.33354091644287,0.02586580440402,0.86634677648544,-20.41937828063965,-12.06551265716553,0.48287069797516
521,1991767696,18.38426017761230,-84.85775756835938,36.65561294555664,10.33763217926025,-0.02065320312977,1.01090002059937,-19.14631462097168,-8.07161045074463,-0.36462295055389
522,1991784363,18.62844848632812,-84.92738342285156,36.12186050415039,10.27779769897461,-0.06895311176777,1.09874331951141,-16.68014717102051,-5.82548666000366,-0.67593258619308
523,1991801030,18.96219062805176,-84.99050140380859,35.53784179687500,10.04108333587646,-0.09738215804100,1.18917202949524,-14.31050586700439,-5.53077268600464,-0.99445217847824
524,1991817697,19.51433944702148,-85.06306457519531,34.76578140258789,10.06196880340576,-0.04539233818650,1.21291375160217,-12.46094322204590,-6.39740228652954,-1.65231442451477
525,1991834364,20.31623840332031,-85.11846160888672,33.79225158691406,9.97501373291016,-0.03064297325909,1.11002898216248,-9.52128314971924,-5.78563070297241,-2.86409044265747
526,1991851031,21.16942214965820,-85.17217254638672,32.80194091796875,9.75934505462646,0.11469092965126,0.99277985095978,-7.45251703262329,-5.75021886825562,-2.85809612274170
527,1991867698,21.80722999572754,-85.25381469726562,32.03377914428711,9.70962047576904,0.07061464339495,1.05233860015869,-7.09936904907227,-6.93168210983276,-1.07896089553833
528,1991884365,22.14562797546387,-85.35113525390625,31.59460449218750,9.84261894226074,-0.03455966711044,0.99965459108353,-5.40022182464600,-7.18782234191895,0.88667988777161
529,1991901032,22.28529167175293,-85.43353271484375,31.37971305847168,9.83056640625000,0.08508533239365,0.93048691749573,-3.91227602958679,-5.92953252792358,1.61080205440521
530,1991917699,22.42469215393066,-85.52394104003906,31.18062973022461,9.67965602874756,0.19770264625549,0.89181298017502,-2.98640275001526,-6.33810615539551,1.89284908771515
531,1991934366,22.33137512207031,-85.65237426757812,31.21413230895996,9.94686317443848,0.04392422363162,0.81139647960663,-3.04766845703125,-8.04480934143066,3.78197813034058
532,1991951033,22.24900627136230,-85.73400878906250,31.27527236938477,10.00233840942383,-0.04218516126275,0.71320533752441,-0.71546512842178,-5.38307189941406,2.80913019180298
533,1991967700,22.26691818237305,-85.77872467041016,31.26181793212891,10.05474853515625,-0.02991737425327,0.66745316982269,0.82504278421402,-3.47441458702087,1.66312885284424
534,1991984367,22.25158882141113,-85.80708312988281,31.27913093566895,9.98380851745605,0.04527309164405,0.64792257547379,0.68001079559326,-2.50278353691101,1.41261100769043
535,1992001034,22.44035720825195,-85.82604217529297,31.11113357543945,9.87389183044434,-0.01855367794633,0.71415382623672,1.83253097534180,-2.29193949699402,0.45249316096306
536,1992017701,22.70218658447266,-85.87678527832031,30.89673042297363,9.91709423065186,0.06351455301046,0.68451315164566,3.44017601013184,-4.12893342971802,1.01008164882660
537,1992034368,22.87272071838379,-85.92989349365234,30.77518653869629,9.81771755218506,0.15427450835705,0.68838024139404,3.52004957199097,-4.10009384155273,1.45473098754883
538,1992051035,22.81218147277832,-85.96662902832031,30.89332771301270,9.82922077178955,0.20483647286892,0.51441836357117,3.99850773811340,-2.79862284660339,2.01617431640625
539,1992067702,22.36276435852051,-85.95368194580078,31.39465332031250,10.02941226959229,0.33442628383636,0.54503172636032,3.60230445861816,0.57000428438187,2.35422348976135
540,1992084369,21.81679153442383,-85.92201232910156,31.98345756530762,10.00136756896973,0.31530568003654,0.68595433235168,3.06260657310486,1.76347935199738,2.29202294349670
541,1992101036,21.56268692016602,-85.89554595947266,32.28966522216797,9.76701641082764,0.21500159800053,0.69946444034576,3.63443636894226,0.99165338277817,1.33089363574982
542,1992117703,21.40068626403809,-85.86151885986328,32.50798416137695,9.76918315887451,0.22332069277763,0.58080649375916,3.90988802909851,1.29051518440247,0.82488906383514
543,1992134370,21.25955390930176,-85.80866241455078,32.70334625244141,9.86852455139160,0.20107655227184,0.64492756128311,3.79346537590027,2.30787730216980,0.33683899044991
544,1992151037,21.07773780822754,-85.75038146972656,32.95684814453125,9.77311038970947,0.11529934406281,0.61463856697083,4.83390426635742,2.72581243515015,0.47215092182159
545,1992167704,21.00141143798828,-85.69825744628906,33.12461853027344,9.71304893493652,0.03680592030287,0.54303443431854,6.02288579940796,2.22809386253357,0.27672609686852
546,1992184371,21.15864562988281,-85.66460418701172,33.08306503295898,9.76928138732910,0.11574770510197,0.57506662607193,7.50537395477295,0.85611099004745,-0.20085480809212
547,1992201038,21.40840148925781,-85.64395904541016,32.96578598022461,9.74588012695312,0.17033658921719,0.70258843898773,8.53802680969238,0.01255662739277,-0.25001841783524
548,1992217705,21.72550773620605,-85.66063690185547,32.78703308105469,9.67457771301270,0.27547976374626,0.68276971578598,8.89852619171143,-2.18280458450317,0.31122636795044
549,1992234372,22.01158905029297,-85.68861389160156,32.64845657348633,9.75049591064453,0.27927514910698,0.51486533880234,9.43640613555908,-2.75011324882507,0.74419635534286
550,1992251039,22.12915039062500,-85.69033813476562,32.67858123779297,9.77177333831787,0.33565950393677,0.56199502944946,9.42112827301025,-1.00127756595612,0.86361569166183
551,1992267706,22.19637298583984,-85.68457031250000,32.75467300415039,9.85077667236328,0.31641182303429,0.62802886962891,9.14186000823975,-0.51295846700668,0.88869047164917
552,1992284373,22.31180000305176,-85.67649841308594,32.79397964477539,9.78046798706055,0.32070180773735,0.66956102848053,9.84447956085205,-0.43527516722679,0.67837172746658
553,1992301040,22.59527778625488,-85.68235015869141,32.67822265625000,9.67374420166016,0.30704057216644,0.72361081838608,10.64764595031738,-1.47649598121643,0.34917166829109
554,1992317707,22.99581146240234,-85.71312713623047,32.44569396972656,9.69476890563965,0.27678897976875,0.70840823650360,10.67978954315186,-3.06436896324158,0.45158416032791
555,1992334374,23.47211456298828,-85.74633026123047,32.14414215087891,9.84826087951660,0.21825265884399,0.69947749376297,11.10697174072266,-3.30913686752319,0.24608053267002
556,1992351041,24.01776313781738,-85.76654052734375,31.78288459777832,9.90915012359619,0.16477346420288,0.68642067909241,11.66878414154053,-2.72731804847717,-0.27246800065041
557,1992367708,24.64387512207031,-85.78574371337891,31.35300636291504,9.89303684234619,0.22365786135197,0.69464969635010,12.40441131591797,-2.78966021537781,-0.55273520946503
558,1992384375,25.33129882812500,-85.80908966064453,30.86634635925293,9.74895191192627,0.39326119422913,0.71483850479126,12.68298530578613,-3.12928462028503,-0.64487683773041
559,1992401042,25.96279335021973,-85.84899902343750,30.42386817932129,9.75209331512451,0.28438529372215,0.70633500814438,11.97378158569336,-3.94816112518311,-0.00256127095781
560,1992417709,26.55245018005371,-85.89282989501953,30.02138900756836,9.81106281280518,0.29344314336777,0.62183356285095,11.85711765289307,-4.08289718627930,0.30601426959038
561,1992434376,27.20157814025879,-85.93653869628906,29.55171585083008,9.76429080963135,0.35117000341415,0.57931834459305,11.40049362182617,-4.20158624649048,0.09792380779982
562,1992451043,27.82295989990234,-85.97323608398438,29.09085083007812,9.87553787231445,0.36887565255165,0.54018008708954,10.24932861328125,-3.81798410415649,-0.00521218637004
563,1992467710,28.37867546081543,-85.99034118652344,28.68080520629883,9.95823764801025,0.36564642190933,0.52199834585190,9.36581897735596,-2.66944622993469,-0.33642297983170
564,1992484377,28.90455436706543,-85.98770141601562,28.29063415527344,9.89151668548584,0.33968445658684,0.65979367494583,8.76494312286377,-1.59705471992493,-0.81243503093719
565,1992501044,29.51218605041504,-85.98985290527344,27.81195449829102,9.76335334777832,0.26828628778458,0.66325736045837,8.37059879302979,-2.04778718948364,-0.98699849843979
566,1992517711,30.11343765258789,-85.99699401855469,27.33896446228027,9.83209514617920,0.15527161955833,0.65658921003342,8.31838607788086,-2.32028079032898,-0.80047392845154
567,1992534378,30.53417587280273,-86.00134277343750,27.05187606811523,9.90990161895752,0.21704058349133,0.62163800001144,8.64421653747559,-1.76936399936676,-0.21231651306152
568,1992551045,30.77017021179199,-85.99527740478516,26.94098091125488,9.85243511199951,0.28923639655113,0.59968149662018,8.06270599365234,-0.89634215831757,0.12450975924730
569,1992567712,30.91066741943359,-85.99214935302734,26.91725158691406,9.77656745910645,0.22203186154366,0.67203503847122,7.58317232131958,-0.83843183517456,0.51486015319824
570,1992584379,31.14038276672363,-86.00374603271484,26.79993629455566,9.79219436645508,0.24720682203770,0.75615203380585,7.32376670837402,-1.80075228214264,0.63589304685593
571,1992601046,31.27768707275391,-86.01306915283203,26.77492713928223,9.86334323883057,0.35765978693962,0.57994377613068,7.29692602157593,-1.49807441234589,0.90629917383194
572,1992617713,31.19524955749512,-86.02074432373047,26.93642616271973,9.83534431457520,0.37167078256607,0.60148757696152,5.28179359436035,-1.00394105911255,1.51465201377869
573,1992634380,31.02396583557129,-86.03335571289062,27.18214797973633,9.84356784820557,0.29136389493942,0.50439673662186,4.99508428573608,-1.07132804393768,1.96104276180267
574,1992651047,30.49124908447266,-86.01262664794922,27.78077697753906,9.87175750732422,0.35177394747734,0.49738109111786,4.44099283218384,1.38829171657562,2.19966363906860
575,1992667714,29.93248558044434,-85.98526763916016,28.38113021850586,9.85144615173340,0.33957871794701,0.56569635868073,2.98138904571533,1.73517739772797,2.03671574592590
576,1992684381,29.45913124084473,-85.96881103515625,28.88026618957520,9.85879325866699,0.34137350320816,0.57012480497360,2.02816081047058,0.93515175580978,2.03690767288208
577,1992701048,29.01503944396973,-85.95571899414062,29.32673263549805,9.82360363006592,0.36032837629318,0.52764916419983,0.63595694303513,0.64887857437134,1.95960867404938
578,1992717715,28.59862518310547,-85.94875335693359,29.72427749633789,9.77393817901611,0.33007678389549,0.47685307264328,-0.62136411666870,0.22438643872738,1.97115969657898
579,1992734382,28.14803314208984,-85.93918609619141,30.13997840881348,9.84456920623779,0.30358597636223,0.46427062153816,-1.58785939216614,0.38930663466454,1.97457885742188
580,1992751049,27.68029212951660,-85.93114471435547,30.56285667419434,9.84312152862549,0.30281773209572,0.45861637592316,-2.18417406082153,0.31966570019722,2.05737209320068
581,1992767716,27.24197959899902,-85.92628479003906,30.94224357604980,9.77266311645508,0.28353369235992,0.50934934616089,-3.02299022674561,0.05271734297276,1.99464666843414
582,1992784383,26.90799331665039,-85.92681884765625,31.21857833862305,9.78774070739746,0.16186612844467,0.57605576515198,-2.94315528869629,-0.45467662811279,1.76349186897278
583,1992801050,26.61550521850586,-85.93475341796875,31.46282196044922,9.80397796630859,0.15118055045605,0.63021975755692,-2.37136459350586,-0.91530829668045,1.84227681159973
584,1992817717,26.21026802062988,-85.93875885009766,31.81896591186523,9.83471775054932,0.16090169548988,0.68078297376633,-2.43538355827332,-0.50190645456314,2.16303730010986
585,1992834384,25.79947280883789,-85.93702697753906,32.17961120605469,9.78915882110596,0.18235050141811,0.71495628356934,-2.49095010757446,-0.18611466884613,2.02705931663513
586,1992851051,25.43094635009766,-85.94025421142578,32.49754714965820,9.75853919982910,0.18680581450462,0.80648893117905,-2.51638364791870,-0.54172140359879,1.99682378768921
587,1992867718,25.05371093750000,-85.93779754638672,32.82455444335938,9.76872634887695,0.17093306779861,0.85453158617020,-2.50273251533508,-0.23107782006264,1.89193999767303
588,1992884385,24.71343994140625,-85.93341064453125,33.11341476440430,9.83962440490723,0.15757742524147,0.86646598577499,-2.55279231071472,-0.19638538360596,1.70045924186707
589,1992901052,24.45397186279297,-85.92571258544922,33.32718658447266,9.83292579650879,0.20697131752968,0.91020303964615,-2.21432018280029,-0.16032268106937,1.33556771278381
590,1992917719,24.23505210876465,-85.91539001464844,33.50075912475586,9.79800224304199,0.25101250410080,0.88782316446304,-2.18715810775757,-0.08754421025515,1.11901247501373
591,1992934386,24.00547981262207,-85.91049957275391,33.67970275878906,9.78468608856201,0.26749300956726,0.85078859329224,-2.49926161766052,-0.37489306926727,1.27747821807861
592,1992951053,23.83971595764160,-85.91644287109375,33.78204727172852,9.82013797760010,0.24697124958038,0.82713764905930,-3.24658918380737,-1.10079550743103,1.24227368831635
593,1992967720,23.73299598693848,-85.92734527587891,33.82250976562500,9.83335685729980,0.21430650353432,0.77197843790054,-3.42981004714966,-1.49301576614380,1.12464737892151
594,1992984387,23.68483734130859,-85.93172454833984,33.79816055297852,9.86792373657227,0.17767745256424,0.71286714076996,-3.77337861061096,-1.23280334472656,0.70935016870499
595,1993001054,23.58511543273926,-85.92335510253906,33.83256912231445,9.85126590728760,0.20879209041595,0.68510478734970,-3.36297321319580,-0.43519821763039,0.63105213642120
596,1993017721,23.47447395324707,-85.92234802246094,33.87034988403320,9.80947685241699,0.26456227898598,0.74013721942902,-3.81320667266846,-0.83567845821381,0.82304501533508
597,1993034388,23.33999443054199,-85.93181610107422,33.91276550292969,9.81083202362061,0.27213907241821,0.71947997808456,-4.95489263534546,-1.39885056018829,1.08919942378998
598,1993051055,23.13838577270508,-85.93615722656250,34.01749801635742,9.83590698242188,0.20736593008041,0.70325607061386,-5.27590894699097,-1.02910554409027,1.21488082408905
599,1993067722,22.99723434448242,-85.93148803710938,34.06845855712891,9.85027027130127,0.14407786726952,0.84594833850861,-4.85618066787720,-0.61473035812378,0.78983795642853
600,1993084389,23.03308296203613,-85.92523193359375,33.96066284179688,9.84403896331787,0.09399821609259,0.81728523969650,-3.72849225997925,-0.78551596403122,0.12993963062763
601,1993101056,23.09525108337402,-85.91361999511719,33.83533859252930,9.85724067687988,0.12337254732847,0.68541830778122,-3.20370030403137,-0.52083420753479,-0.06588866561651
602,1993117723,23.21862030029297,-85.89392089843750,33.66160583496094,9.82465076446533,0.09510201960802,0.71519237756729,-2.42369127273560,-0.14998798072338,-0.45284539461136
603,1993134390,23.32166671752930,-85.86885833740234,33.53139114379883,9.75848579406738,0.16937677562237,0.72577410936356,-1.05383443832397,0.19575144350529,-0.40521854162216
604,1993151057,23.33937072753906,-85.85433197021484,33.48650741577148,9.72378063201904,0.09064411371946,0.79552209377289,-1.05234897136688,-0.22395741939545,0.17302019894123
605,1993167724,23.34421348571777,-85.85612487792969,33.46452713012695,9.71047115325928,0.07025163620710,0.76708561182022,-0.46855875849724,-1.09843909740448,0.65657514333725
606,1993184391,23.31365585327148,-85.86280059814453,33.49616241455078,9.80699539184570,0.22021369636059,0.71061611175537,0.62886226177216,-1.26526737213135,0.98280411958694
607,1993201058,23.35090065002441,-85.86919403076172,33.45634460449219,9.81087017059326,0.23197986185551,0.76459151506424,0.40715867280960,-1.38176667690277,0.69521188735962
608,1993217725,23.43928527832031,-85.88006591796875,33.36614227294922,9.76843452453613,0.15745951235294,0.77434897422791,0.47604402899742,-1.70695829391479,0.60186642408371
609,1993234392,23.51569747924805,-85.89191436767578,33.29381942749023,9.79209423065186,0.20459344983101,0.74815952777863,0.81571960449219,-1.73159766197205,0.69708156585693
610,1993251059,23.54601669311523,-85.89840698242188,33.26775741577148,9.81793594360352,0.21509340405464,0.74106580018997,0.82782155275345,-1.35337495803833,0.75107318162918
611,1993267726,23.60992240905762,-85.91150665283203,33.20466232299805,9.80598449707031,0.26086899638176,0.82007354497910,0.62544286251068,-1.78401410579681,0.76694023609161
612,1993284393,23.80388450622559,-85.93924713134766,33.00433349609375,9.76760387420654,0.09265198558569,0.80613756179810,0.20205219089985,-2.83065152168274,0.59000778198242
613,1993301060,24.10558891296387,-85.97372436523438,32.70056152343750,9.79196166992188,0.18884983658791,0.75215560197830,0.48375344276428,-3.37138676643372,0.36868834495544
614,1993317727,24.37944602966309,-86.00732421875000,32.42404937744141,9.80969142913818,0.10275840014219,0.70693522691727,0.43514052033424,-3.27555704116821,0.47286802530289
615,1993334394,24.63545799255371,-86.03829193115234,32.16191101074219,9.77423095703125,0.21585969626904,0.70416229963303,0.23929306864738,-3.09489798545837,0.47795221209526
616,1993351061,24.87147903442383,-86.05493927001953,31.90328407287598,9.73505783081055,0.23443338274956,0.74857538938522,-0.74490702152252,-2.30018734931946,0.14330947399139
617,1993367728,25.11627197265625,-86.08233642578125,31.62876892089844,9.77761363983154,0.19698527455330,0.68718475103378,-1.18936407566071,-2.93128371238708,0.37639778852463
618,1993384395,25.36790275573730,-86.12374114990234,31.35047340393066,9.84510612487793,0.25974580645561,0.69352465867996,-1.00155913829803,-3.68913793563843,0.73588496446609
619,1993401062,25.65545845031738,-86.17362213134766,31.02803421020508,9.81155204772949,0.21534985303879,0.68834918737411,-1.48598504066467,-4.21398115158081,0.81694918870926
620,1993417729,25.90434646606445,-86.21250915527344,30.74357223510742,9.80878543853760,0.10366010665894,0.67758661508560,-1.55321836471558,-3.56655621528625,0.70358735322952
621,1993434396,26.08927345275879,-86.24079132080078,30.53119277954102,9.84282112121582,0.10933849215508,0.67657226324081,-1.05384743213654,-2.84735107421875,0.68865513801575
622,1993451063,26.22242164611816,-86.27364349365234,30.37190246582031,9.82405185699463,0.15601004660130,0.67276120185852,-0.99019974470139,-3.00580382347107,1.01211786270142
623,1993467730,26.34640121459961,-86.31230926513672,30.22215652465820,9.82025527954102,0.20212186872959,0.68141651153564,-0.97713720798492,-3.30744481086731,1.21330559253693
624,1993484397,26.46415138244629,-86.35153961181641,30.07937431335449,9.79141616821289,0.13460525870323,0.67626529932022,-0.91432213783264,-3.30124616622925,1.25396549701691
625,1993501064,26.50186729431152,-86.38897705078125,30.02247238159180,9.81203174591064,0.07342538982630,0.67389196157455,-0.57782250642776,-3.06156277656555,1.50695514678955
626,1993517731,26.51496887207031,-86.42708587646484,29.99748802185059,9.84883880615234,0.15511123836040,0.68413352966309,-0.15326638519764,-3.05095934867859,1.63801550865173
627,1993534398,26.55047607421875,-86.46011352539062,29.94797897338867,9.84753704071045,0.14122666418552,0.59725385904312,-0.27301856875420,-2.81710243225098,1.42215144634247
628,1993551065,26.48726844787598,-86.47975158691406,30.00289344787598,9.83386325836182,0.14972263574600,0.61555027961731,0.06261665374041,-1.91399872303009,1.40450453758240
629,1993567732,26.43300247192383,-86.49993896484375,30.04492378234863,9.89549160003662,0.15776772797108,0.72235971689224,-0.18880401551723,-1.98449766635895,1.38255417346954
630,1993584399,26.46019363403320,-86.52396392822266,30.01465606689453,9.93049144744873,0.17060083150864,0.62225383520126,0.38414567708969,-2.29150414466858,1.23959696292877
631,1993601066,26.41094970703125,-86.53501892089844,30.05209922790527,9.95193958282471,0.17952960729599,0.52029156684875,-0.13540153205395,-1.48538267612457,1.11369776725769
632,1993617733,26.23545265197754,-86.53422546386719,30.21508407592773,9.76138401031494,0.17060652375221,0.57168275117874,-0.21463444828987,-0.66130715608597,1.21056509017944
633,1993634400,26.08671569824219,-86.54917907714844,30.34786987304688,9.73714542388916,0.18927749991417,0.59010028839111,-0.41108381748199,-1.55489575862885,1.52602386474609
634,1993651067,25.83999824523926,-86.56618499755859,30.56947135925293,9.82682514190674,0.17293007671833,0.57015371322632,-0.97169452905655,-1.52334082126617,1.86092257499695
635,1993667734,25.59498214721680,-86.58207702636719,30.79075241088867,9.83194732666016,0.16035923361778,0.56959807872772,-0.88106411695480,-1.47041237354279,1.82373309135437
636,1993684401,25.45254135131836,-86.59929656982422,30.90984725952148,9.78726005554199,0.13030257821083,0.58747202157974,-0.84895861148834,-1.71142768859863,1.52934074401855
637,1993701068,25.43552017211914,-86.61424255371094,30.90832710266113,9.80220890045166,0.11504347622395,0.55295002460480,-0.55930453538895,-1.77925026416779,1.08362853527069
638,1993717735,25.41823768615723,-86.62246704101562,30.91016578674316,9.82339668273926,0.12343613058329,0.53885239362717,-0.35205939412117,-1.38658201694489,0.91075581312180
639,1993734402,25.35869026184082,-86.62919616699219,30.95715713500977,9.79272270202637,0.15169219672680,0.56327348947525,-0.19487421214581,-1.25094985961914,1.02153050899506
640,1993751069,25.35983657836914,-86.64234924316406,30.94539070129395,9.74123859405518,0.13566908240318,0.54284071922302,-0.06821941584349,-1.68343305587769,0.99787712097168
641,1993767736,25.45401763916016,-86.66017913818359,30.84445190429688,9.78286838531494,0.09572730958462,0.59020340442657,0.16516990959644,-2.07389879226685,0.83851498365402
642,1993784403,25.58270263671875,-86.68206024169922,30.72108840942383,9.81127834320068,0.06402338296175,0.56005924940109,0.89182764291763,-2.33126759529114,0.87944400310516
643,1993801070,25.68140411376953,-86.70366668701172,30.63272666931152,9.82178783416748,0.14441972970963,0.56974309682846,1.18295466899872,-2.26683926582336,0.98907929658890
644,1993817737,25.84967994689941,-86.72811126708984,30.46991729736328,9.75233745574951,0.15184366703033,0.58112746477127,0.90980798006058,-2.52136540412903,0.83387905359268
645,1993834404,26.13823699951172,-86.76275634765625,30.18536949157715,9.74682521820068,0.16152776777744,0.55016088485718,0.81527149677277,-3.25888323783875,0.74493902921677
646,1993851071,26.44531822204590,-86.79246520996094,29.88674926757812,9.78357028961182,0.13060641288757,0.54058223962784,1.08074700832367,-3.01484513282776,0.59483569860458
647,1993867738,26.71626281738281,-86.82164764404297,29.62404060363770,9.78915882110596,0.15801340341568,0.56722265481949,1.09935462474823,-2.90173959732056,0.69311171770096
648,1993884405,27.06214904785156,-86.85832977294922,29.28494453430176,9.79509258270264,0.17131087183952,0.52888011932373,1.01277101039886,-3.41635012626648,0.69176703691483
649,1993901072,27.41805648803711,-86.89720153808594,28.93540382385254,9.81287956237793,0.18904250860214,0.52901268005371,0.94576817750931,-3.57637834548950,0.76412296295166
650,1993917739,27.73840141296387,-86.93113708496094,28.62058639526367,9.81587982177734,0.12206037342548,0.54195451736450,0.93115609884262,-3.21982359886169,0.73679405450821
651,1993934406,28.10112571716309,-86.96358489990234,28.27159690856934,9.82622528076172,0.12249596416950,0.52673602104187,1.40538811683655,-3.21212720870972,0.63453549146652
652,1993951073,28.37024688720703,-86.99163055419922,28.01684951782227,9.88304710388184,0.12989220023155,0.50755947828293,1.44539511203766,-2.82382559776306,0.78865981101990
653,1993967740,28.69377136230469,-87.01981353759766,27.70756149291992,9.86648559570312,0.16288162767887,0.52983081340790,1.43449687957764,-2.90947461128235,0.65923881530762
654,1993984407,29.01920700073242,-87.04567718505859,27.39089202880859,9.81888580322266,0.16012200713158,0.50249946117401,1.11721956729889,-2.78433108329773,0.58587133884430
655,1994001074,29.30508041381836,-87.07202911376953,27.11361503601074,9.80804824829102,0.14671897888184,0.55978786945343,1.10176229476929,-2.75645160675049,0.72690767049789
656,1994017741,29.58243370056152,-87.09613800048828,26.84208106994629,9.85163307189941,0.14589096605778,0.51007646322250,0.91792714595795,-2.63739061355591,0.69896417856216
657,1994034408,29.82476234436035,-87.11473083496094,26.60067176818848,9.79746723175049,0.15308794379234,0.48374366760254,0.63394629955292,-2.28425574302673,0.61542838811874
658,1994051075,30.16579437255859,-87.12996673583984,26.25888633728027,9.81974983215332,0.13539567589760,0.51879256963730,0.54924511909485,-2.26242089271545,0.26800489425659
659,1994067742,30.63222122192383,-87.14480590820312,25.79893875122070,9.85255146026611,0.11264798790216,0.60235422849655,0.98532694578171,-2.41913247108459,-0.03716402873397
660,1994084409,31.13729858398438,-87.16945648193359,25.31376647949219,9.85900783538818,0.16062711179256,0.45373371243477,1.78719627857208,-2.97154688835144,0.22626899182796
661,1994101076,31.33252716064453,-87.18297576904297,25.12432289123535,9.88264083862305,0.13822045922279,0.43698284029961,0.92663556337357,-1.93853580951691,0.64060568809509
662,1994117743,31.47914695739746,-87.19781494140625,24.98362541198730,9.78767490386963,0.13017247617245,0.44420868158340,0.93438333272934,-1.92665147781372,0.80661439895630
663,1994134410,31.53442001342773,-87.21083831787109,24.93280029296875,9.80727386474609,0.13568039238453,0.45346212387085,0.82620811462402,-1.70540893077850,0.98230469226837
664,1994151077,31.50995826721191,-87.21864318847656,24.95943260192871,9.82941722869873,0.14195309579372,0.49336293339729,0.70016795396805,-1.31193363666534,1.00597071647644
665,1994167744,31.49563598632812,-87.23233032226562,24.97480201721191,9.78469276428223,0.14379155635834,0.52380609512329,0.60542654991150,-1.64778029918671,1.17251741886139
666,1994184411,31.65919685363770,-87.25334167480469,24.81241035461426,9.75765991210938,0.12208063900471,0.51401942968369,0.64061838388443,-2.27987575531006,0.96186566352844
667,1994201078,31.85342025756836,-87.27595520019531,24.62527656555176,9.79234027862549,0.11770082265139,0.48016509413719,0.99544405937195,-2.40261220932007,0.96445268392563
668,1994217745,32.03693389892578,-87.29195404052734,24.45120620727539,9.83151054382324,0.13943162560463,0.46944150328636,1.14924824237823,-2.02692508697510,0.78269207477570
669,1994234412,32.22344207763672,-87.31008148193359,24.27522087097168,9.80906105041504,0.10606014728546,0.46028065681458,1.19595277309418,-2.14648485183716,0.85895377397537
670,1994251079,32.36746215820312,-87.32344055175781,24.14762115478516,9.84524631500244,0.10692158341408,0.48431080579758,1.55103468894958,-1.82832407951355,0.82642573118210
671,1994267746,32.58121871948242,-87.34185791015625,23.95830345153809,9.84991359710693,0.12791875004768,0.49514222145081,2.03447484970093,-2.18026852607727,0.85141098499298
672,1994284413,32.76165008544922,-87.35721588134766,23.80986595153809,9.83152008056641,0.17117267847061,0.44807377457619,2.50358343124390,-1.95058619976044,0.84626269340515
673,1994301080,32.82907485961914,-87.36425781250000,23.77188873291016,9.83305454254150,0.19485324621201,0.45159974694252,2.34901118278503,-1.35384881496429,0.82870531082153
674,1994317747,32.86076354980469,-87.37050628662109,23.76792526245117,9.84410095214844,0.16290909051895,0.51016110181808,2.19190287590027,-1.30369925498962,0.90752840042114
675,1994334414,32.95829772949219,-87.38057708740234,23.69389915466309,9.82606792449951,0.17955751717091,0.49845865368843,1.97981679439545,-1.57903575897217,0.85755807161331
676,1994351081,33.06608581542969,-87.38843536376953,23.60632133483887,9.80190563201904,0.13231801986694,0.43590965867043,1.77960252761841,-1.48225831985474,0.75415962934494
677,1994367748,33.04109954833984,-87.39045715332031,23.65767860412598,9.84588050842285,0.14396023750305,0.45234519243240,2.15380382537842,-0.97013223171234,0.87256705760956
678,1994384415,32.93131256103516,-87.38671112060547,23.79986190795898,9.86590099334717,0.11377848684788,0.45633912086487,2.50737452507019,-0.55725550651550,0.89832067489624
679,1994401082,32.79920578002930,-87.37803649902344,23.96718215942383,9.87401294708252,0.13571113348007,0.45335471630096,2.66482853889465,-0.27218616008759,0.79839265346527
680,1994417749,32.68684387207031,-87.36596679687500,24.11829948425293,9.84785366058350,0.14992603659630,0.45157110691071,2.86168742179871,-0.12980516254902,0.65631896257401
681,1994434416,32.51081466674805,-87.34775543212891,24.33927345275879,9.79609203338623,0.15386417508125,0.43213889002800,3.25285768508911,0.29295164346695,0.61988490819931
682,1994451083,32.37447738647461,-87.33471679687500,24.52137756347656,9.79780387878418,0.14566682279110,0.43221592903137,3.30946159362793,-0.01757031120360,0.69827258586884
683,1994467750,32.23086547851562,-87.31707763671875,24.71500205993652,9.78565311431885,0.15118131041527,0.41964134573936,3.55782794952393,0.24033035337925,0.57867413759232
684,1994484417,32.02435684204102,-87.29514312744141,24.97808837890625,9.80826473236084,0.18112266063690,0.43905687332153,3.96482706069946,0.56415188312531,0.61410939693451
685,1994501084,31.89072799682617,-87.27868652343750,25.16626739501953,9.79716014862061,0.18739736080170,0.49635416269302,3.81034398078918,0.14426994323730,0.63555991649628
686,1994517751,31.82267761230469,-87.27108001708984,25.28266143798828,9.83315467834473,0.19198141992092,0.42465469241142,3.46549415588379,-0.38416486978531,0.73050618171692
