sep=,
DeviceTag:,Xsens_DOT_3
FirmwareVersion:,3.0.0
AppVersion:,2023.6.0
StartTime: ,2025-04-09_10:55:28_000 CEST
© Movella Technologies B. V. 2005-2025

PacketCounter,SampleTimeFine,Euler_X,Euler_Y,Euler_Z,Acc_X,Acc_Y,Acc_Z,Gyr_X,Gyr_Y,Gyr_Z
0,1983100856,56.91071701049805,-89.85064697265625,-66.94967651367188,0.00000000000000,0.00000000000000,0.00000000000000,0.00000000000000,0.00000000000000,0.00000000000000
1,1983117523,60.76536560058594,-89.87028503417969,-70.80332183837891,9.78174304962158,0.01869091205299,0.03002546913922,0.75910276174545,-0.75148934125900,0.27978673577309
2,1983134190,65.08779144287109,-89.88809967041016,-75.15066528320312,9.79045772552490,0.01974095031619,0.03531487286091,0.39496701955795,-0.76501291990280,0.20972317457199
3,1983150857,68.95204162597656,-89.90934753417969,-79.02837371826172,9.77791690826416,0.00209095398895,0.05219161510468,0.60282689332962,-0.59276753664017,0.27944096922874
4,1983167524,73.11122131347656,-89.91152954101562,-83.19309997558594,9.78845119476318,0.01047113537788,0.03701732307673,0.55000066757202,-0.58541661500931,0.18190778791904
5,1983184191,77.18325805664062,-89.92338562011719,-87.27214050292969,9.79180812835693,0.01102234888822,0.01348609384149,0.81706428527832,-0.51781189441681,0.12481708079576
6,1983200858,81.08518981933594,-89.92867279052734,-91.18232727050781,9.78895092010498,0.02264285273850,0.05326476693153,0.94695907831192,-0.47474414110184,0.19211444258690
7,1983217525,85.05023193359375,-89.91607666015625,-95.13548278808594,9.78514766693115,0.00723363598809,0.06259615719318,0.98637706041336,-0.46475526690483,-0.00349613325670
8,1983234192,89.16041564941406,-89.89913177490234,-99.25639343261719,9.79513549804688,0.04368377476931,0.05277055129409,0.55460458993912,-0.53191816806793,-0.03161247819662
9,1983250859,93.51442718505859,-89.88809967041016,-103.63954162597656,9.78590488433838,-0.02273037284613,0.04201686009765,-0.41484886407852,-0.64458203315735,-0.02948021702468
10,1983267526,97.76866149902344,-89.86878204345703,-107.90887451171875,9.79532814025879,-0.03744288906455,0.02494047023356,0.44114670157433,-0.68127214908600,-0.10512731969357
11,1983284193,101.53358459472656,-89.85872650146484,-111.65428161621094,9.77600765228271,0.00758016156033,0.06634805351496,1.15781569480896,-0.61693310737610,-0.07727351039648
12,1983300860,105.28153991699219,-89.84051513671875,-115.39530944824219,9.78542804718018,0.06127617508173,0.07085070014000,1.25396573543549,-0.64447963237762,0.08593702316284
13,1983317527,109.78765106201172,-89.82306671142578,-119.91744232177734,9.78365898132324,0.07346101105213,0.03476982191205,0.16852517426014,-0.96964567899704,0.04974626749754
14,1983334194,115.05323791503906,-89.80119323730469,-125.20491027832031,9.76573181152344,0.02543257549405,0.06909004598856,0.35035607218742,-1.34074151515961,0.07959145307541
15,1983350861,120.30413818359375,-89.77015686035156,-130.48245239257812,9.77379703521729,0.02533218078315,0.01682176254690,-0.06341063976288,-1.58775055408478,0.00092205719557
16,1983367528,125.40284729003906,-89.73905944824219,-135.58781433105469,9.77348613739014,0.01504664123058,0.02109405957162,-0.45932531356812,-1.80468344688416,0.01625766046345
17,1983384195,130.20242309570312,-89.70064544677734,-140.40399169921875,9.76797389984131,0.02192826569080,0.00321772042662,-0.04419470950961,-1.98919725418091,0.04074339941144
18,1983400862,134.71389770507812,-89.66023254394531,-144.93046569824219,9.79551029205322,0.04312818124890,0.00755624193698,0.04742832109332,-2.20306372642517,0.07583280652761
19,1983417529,138.49220275878906,-89.61589813232422,-148.73106384277344,9.77314567565918,0.02393141947687,-0.01280359271914,-0.28212389349937,-2.26564836502075,0.00299028283916
20,1983434196,142.01708984375000,-89.57295989990234,-152.27035522460938,9.78140830993652,0.01586141064763,-0.04189316928387,0.05141109228134,-2.46237945556641,0.06407657265663
21,1983450863,144.78886413574219,-89.52646636962891,-155.06394958496094,9.77280044555664,0.02015694603324,-0.05779011547565,0.08957401663065,-2.30363178253174,0.03888648003340
22,1983467530,147.40020751953125,-89.48224639892578,-157.69805908203125,9.77991104125977,0.01372528169304,-0.05587024986744,-0.18118426203728,-2.37498903274536,0.16388928890228
23,1983484197,149.53933715820312,-89.43768310546875,-159.83859252929688,9.79559421539307,0.01251744013280,-0.09945364296436,0.03939873725176,-2.29569196701050,0.12395904958248
24,1983500864,151.48855590820312,-89.39672088623047,-161.77618408203125,9.79523944854736,0.01572354324162,-0.07162077724934,0.59420824050903,-2.12047553062439,0.27758404612541
25,1983517531,153.12675476074219,-89.35472106933594,-163.41232299804688,9.77788925170898,0.03237324580550,-0.07482489943504,0.72850847244263,-2.16846060752869,0.17928251624107
26,1983534198,154.55639648437500,-89.31472015380859,-164.84756469726562,9.77093410491943,0.02913492359221,-0.06158257275820,0.67893505096436,-2.00461626052856,0.23674459755421
27,1983550865,155.65380859375000,-89.27503204345703,-165.95979309082031,9.78391456604004,-0.00364503148012,-0.09109520912170,0.49542003870010,-1.92535781860352,0.11170338094234
28,1983567532,156.53967285156250,-89.23613739013672,-166.85716247558594,9.81104946136475,0.04894398152828,-0.09243200719357,0.19931159913540,-1.86634576320648,0.04413707926869
29,1983584199,157.39274597167969,-89.19838714599609,-167.72071838378906,9.78287124633789,-0.00968362856656,-0.11959922313690,0.19169183075428,-1.81013906002045,0.11275349557400
30,1983600866,158.15586853027344,-89.15767669677734,-168.48912048339844,9.77035713195801,0.03500242158771,-0.10097455978394,0.30026406049728,-1.94099426269531,0.04152458906174
31,1983617533,158.86619567871094,-89.11973571777344,-169.20727539062500,9.77761077880859,-0.00563999451697,-0.11623451113701,0.69469952583313,-1.81277704238892,0.09787251800299
32,1983634200,159.56262207031250,-89.08080291748047,-169.90495300292969,9.78576183319092,0.04852420836687,-0.11898969113827,1.01941752433777,-1.85214412212372,0.12239670008421
33,1983650867,160.04064941406250,-89.04100799560547,-170.39100646972656,9.78628635406494,0.01086736936122,-0.11160085350275,0.39567130804062,-1.91517651081085,-0.06998669356108
34,1983667534,160.49140930175781,-88.99986267089844,-170.85313415527344,9.78553009033203,0.03188801929355,-0.12771904468536,0.33377188444138,-1.92354559898376,-0.06027308478951
35,1983684201,160.85575866699219,-88.95657348632812,-171.23925781250000,9.80050373077393,0.03724787756801,-0.10633289813995,0.06871886551380,-2.03931498527527,-0.15602615475655
36,1983700868,161.30552673339844,-88.91088104248047,-171.69679260253906,9.76537322998047,0.02851220965385,-0.14934487640858,0.27500993013382,-2.23644971847534,-0.08756982535124
37,1983717535,161.83041381835938,-88.85961914062500,-172.23858642578125,9.76104736328125,0.06297107785940,-0.12660025060177,0.32779771089554,-2.60789775848389,-0.06933356821537
38,1983734202,162.28996276855469,-88.80629730224609,-172.72734069824219,9.76777553558350,0.04179751500487,-0.14019307494164,-0.46212357282639,-2.68043947219849,-0.10384029895067
39,1983750869,162.69068908691406,-88.75149536132812,-173.14682006835938,9.78529930114746,0.01651333458722,-0.15396748483181,-0.25531378388405,-2.74453496932983,-0.15523216128349
40,1983767536,163.19142150878906,-88.69509124755859,-173.66918945312500,9.77630710601807,0.04195699095726,-0.20515520870686,0.11964972317219,-2.92884397506714,-0.02614416182041
41,1983784203,163.53337097167969,-88.63829040527344,-174.02058410644531,9.76825046539307,0.04039278253913,-0.19649256765842,0.15517453849316,-2.85693645477295,-0.18387998640537
42,1983800870,163.69224548339844,-88.58805847167969,-174.20446777343750,9.79501247406006,0.02488845027983,-0.20197580754757,-0.55256837606430,-2.43593430519104,-0.28588896989822
43,1983817537,163.81295776367188,-88.54129028320312,-174.33970642089844,9.81148815155029,0.03827231749892,-0.24973917007446,0.14444923400879,-2.23323535919189,-0.28878322243690
44,1983834204,163.82145690917969,-88.50158691406250,-174.37699890136719,9.81306457519531,0.04708747565746,-0.26367199420929,-0.18748494982719,-1.78150403499603,-0.32155463099480
45,1983850871,163.79727172851562,-88.47312927246094,-174.36997985839844,9.80380344390869,0.04131599888206,-0.27656558156013,0.35143822431564,-1.16107499599457,-0.20962712168694
46,1983867538,163.61592102050781,-88.45085906982422,-174.20486450195312,9.80756473541260,0.00650946702808,-0.28249815106392,0.42946732044220,-0.71374899148941,-0.35167512297630
47,1983884205,163.30749511718750,-88.43476867675781,-173.89672851562500,9.79351139068604,0.03932039812207,-0.27476000785828,0.53943544626236,-0.24770040810108,-0.44472607970238
48,1983900872,162.99961853027344,-88.42356109619141,-173.57960510253906,9.78107833862305,0.03964069858193,-0.25086319446564,1.31532096862793,-0.01100065466017,-0.40388667583466
49,1983917539,162.77445983886719,-88.41464996337891,-173.34550476074219,9.78926753997803,0.08155287057161,-0.25780498981476,0.86908370256424,0.09148216247559,-0.22181877493858
50,1983934206,162.59312438964844,-88.40848541259766,-173.16622924804688,9.80823612213135,0.07889897376299,-0.21428397297859,0.94354611635208,0.23694308102131,-0.10455744713545
51,1983950873,162.32582092285156,-88.40431213378906,-172.89352416992188,9.78358936309814,0.04961657896638,-0.24640822410583,1.06594932079315,0.38220545649529,-0.21674105525017
52,1983967540,162.15890502929688,-88.39904785156250,-172.72839355468750,9.78102302551270,0.06364504992962,-0.22383263707161,0.98753607273102,0.27304419875145,-0.07305382192135
53,1983984207,162.00462341308594,-88.39221954345703,-172.57667541503906,9.74598693847656,0.09003102034330,-0.24143691360950,0.67238456010818,0.18082566559315,-0.07373255491257
54,1984000874,161.91934204101562,-88.38202667236328,-172.48956298828125,9.74911499023438,0.04121921584010,-0.23009945452213,1.13395106792450,-0.04311257973313,-0.03818212822080
55,1984017541,161.90666198730469,-88.36793518066406,-172.48762512207031,9.76737880706787,0.10496739298105,-0.22091612219810,1.47978019714355,-0.30392032861710,-0.00409803213552
56,1984034208,161.94873046875000,-88.35051727294922,-172.54533386230469,9.78677368164062,0.09034214913845,-0.20895063877106,0.33905452489853,-0.51993775367737,0.05987608805299
57,1984050875,161.96885681152344,-88.33071136474609,-172.56704711914062,9.78847694396973,0.03772887960076,-0.21947012841702,0.78358852863312,-0.64574730396271,-0.03407770022750
58,1984067542,162.04124450683594,-88.31101226806641,-172.64311218261719,9.78579044342041,0.07107707113028,-0.21580320596695,1.04310929775238,-0.66596865653992,0.05091163888574
59,1984084209,162.10015869140625,-88.29395294189453,-172.68402099609375,9.80544853210449,0.07910960912704,-0.23718781769276,0.73863822221756,-0.51936149597168,0.08447708189487
60,1984100876,162.19198608398438,-88.27739715576172,-172.77662658691406,9.78723144531250,0.04214953631163,-0.28851428627968,0.50457662343979,-0.52226859331131,0.15720434486866
61,1984117543,162.29859924316406,-88.25965118408203,-172.87890625000000,9.78083705902100,0.05631973594427,-0.28558298945427,1.28391993045807,-0.55112129449844,0.15486079454422
62,1984134210,162.40277099609375,-88.24487304687500,-172.97755432128906,9.78497409820557,0.08952035009861,-0.25316837430000,1.41959023475647,-0.39837995171547,0.19773645699024
63,1984150877,162.49984741210938,-88.23210144042969,-173.07791137695312,9.79165267944336,0.07769587635994,-0.24298058450222,0.92876124382019,-0.28870636224747,0.23830695450306
64,1984167544,162.57528686523438,-88.21775817871094,-173.15501403808594,9.79116439819336,0.04979931563139,-0.27691131830215,1.19823884963989,-0.37562945485115,0.16281993687153
65,1984184211,162.68716430664062,-88.20267486572266,-173.26509094238281,9.74943447113037,0.06064784899354,-0.24019567668438,1.20313739776611,-0.44329181313515,0.21643370389938
66,1984200878,162.70578002929688,-88.18554687500000,-173.27069091796875,9.78190803527832,0.05209533125162,-0.26234477758408,1.28923439979553,-0.47651150822639,0.01869086548686
67,1984217545,162.77613830566406,-88.16709136962891,-173.35041809082031,9.80293178558350,0.10900637507439,-0.24464476108551,0.52332502603531,-0.60479271411896,0.11084535717964
68,1984234212,162.83999633789062,-88.14945220947266,-173.42332458496094,9.79213142395020,0.07697489857674,-0.26138472557068,0.91381627321243,-0.57036918401718,0.09807742387056
69,1984250879,163.01910400390625,-88.12873840332031,-173.60284423828125,9.77399539947510,0.09168663620949,-0.28156599402428,1.21288931369781,-0.78690528869629,0.26200509071350
70,1984267546,163.21733093261719,-88.10534667968750,-173.81239318847656,9.77270698547363,0.06183617189527,-0.27999019622803,0.71201384067535,-0.98954659700394,0.26642969250679
71,1984284213,163.33966064453125,-88.07878875732422,-173.94436645507812,9.78190135955811,0.08723685890436,-0.25337591767311,1.02614068984985,-1.08750236034393,0.07625540345907
72,1984300880,163.51066589355469,-88.05298614501953,-174.11729431152344,9.79865837097168,0.07924350351095,-0.28639963269234,0.58684450387955,-1.08327639102936,0.20356333255768
73,1984317547,163.67027282714844,-88.02742004394531,-174.27636718750000,9.77659225463867,0.08006852120161,-0.33098748326302,0.72164422273636,-1.07679641246796,0.18610829114914
74,1984334214,163.83279418945312,-88.00247192382812,-174.44044494628906,9.78711414337158,0.09258702397346,-0.31836509704590,0.94731116294861,-1.03910076618195,0.20418442785740
75,1984350881,164.03636169433594,-87.97929382324219,-174.65132141113281,9.78003787994385,0.07775874435902,-0.29461440443993,0.69534635543823,-0.94879043102264,0.33917611837387
76,1984367548,164.22645568847656,-87.95962524414062,-174.85258483886719,9.78555774688721,0.06074164062738,-0.34310659766197,0.71551632881165,-0.78018200397491,0.36685070395470
77,1984384215,164.37121582031250,-87.93910980224609,-174.99411010742188,9.78110694885254,0.10076382011175,-0.31519258022308,0.59945881366730,-0.77249181270599,0.27930006384850
78,1984400882,164.50773620605469,-87.91860198974609,-175.14894104003906,9.77428245544434,0.08179822564125,-0.30893132090569,0.37171068787575,-0.76969999074936,0.27684125304222
79,1984417549,164.64198303222656,-87.90100097656250,-175.29414367675781,9.78163146972656,0.05229488015175,-0.36592110991478,0.41935673356056,-0.59571939706802,0.32324507832527
80,1984434216,164.75683593750000,-87.88724517822266,-175.42195129394531,9.78539562225342,0.08944204449654,-0.36837199330330,0.66619271039963,-0.39138764142990,0.33126825094223
81,1984450883,164.87203979492188,-87.87440490722656,-175.55175781250000,9.78554725646973,0.08713429421186,-0.33428597450256,0.35034972429276,-0.31060519814491,0.36818894743919
82,1984467550,165.02288818359375,-87.86210632324219,-175.72685241699219,9.77666854858398,0.07518596202135,-0.32559910416603,0.49917873740196,-0.32802823185921,0.44544324278831
83,1984484217,165.19064331054688,-87.84768676757812,-175.90193176269531,9.78627014160156,0.09482228010893,-0.32414463162422,0.77667301893234,-0.44718489050865,0.44690957665443
84,1984500884,165.39524841308594,-87.83319091796875,-176.11250305175781,9.78344535827637,0.06658557057381,-0.32098183035851,0.89616906642914,-0.46038833260536,0.53031736612320
85,1984517551,165.56851196289062,-87.81761932373047,-176.28614807128906,9.77046394348145,0.06883340328932,-0.31703728437424,0.94243848323822,-0.51443105936050,0.44643574953079
86,1984534218,165.76817321777344,-87.80020141601562,-176.48977661132812,9.79473686218262,0.10164608806372,-0.32304185628891,0.70142298936844,-0.62889415025711,0.49639329314232
87,1984550885,165.94085693359375,-87.78583526611328,-176.66378784179688,9.80346488952637,0.04826337844133,-0.35130271315575,0.58315634727478,-0.45594441890717,0.48681417107582
88,1984567552,166.21038818359375,-87.77033233642578,-176.90104675292969,9.77710151672363,0.07033796608448,-0.32955309748650,1.58296728134155,-0.55973356962204,0.66051316261292
89,1984584219,166.50120544433594,-87.75066375732422,-177.19587707519531,9.75891685485840,0.08079560846090,-0.33792698383331,1.48544681072235,-0.80560266971588,0.66713392734528
90,1984600886,166.75831604003906,-87.73229217529297,-177.45507812500000,9.78603649139404,0.08071906864643,-0.33232194185257,0.91240763664246,-0.71397966146469,0.64102828502655
91,1984617553,167.01948547363281,-87.71347808837891,-177.73614501953125,9.75746822357178,0.06043721735477,-0.36961805820465,0.54102993011475,-0.75174558162689,0.66763341426849
92,1984634220,167.23190307617188,-87.69496917724609,-177.96279907226562,9.76847267150879,0.06971122324467,-0.34504246711731,0.76113259792328,-0.70252442359924,0.55963754653931
93,1984650887,167.42919921875000,-87.67737579345703,-178.17799377441406,9.77054023742676,0.06497304886580,-0.36120688915253,0.72155463695526,-0.65020400285721,0.54396891593933
94,1984667554,167.62648010253906,-87.66393280029297,-178.38188171386719,9.80793094635010,0.06582356989384,-0.36859309673309,0.49860876798630,-0.40771570801735,0.61305916309357
95,1984684221,167.82676696777344,-87.65273284912109,-178.58993530273438,9.78674316406250,0.03144259378314,-0.36976087093353,0.71037465333939,-0.27677085995674,0.64604836702347
96,1984700888,167.99647521972656,-87.64216613769531,-178.76904296875000,9.77046203613281,0.05636634677649,-0.37288910150528,1.24123632907867,-0.20515774190426,0.56646966934204
97,1984717555,168.18074035644531,-87.63090515136719,-178.94128417968750,9.77237129211426,0.07200915366411,-0.39195147156715,1.02652502059937,-0.27395343780518,0.60135418176651
98,1984734222,168.35159301757812,-87.61788940429688,-179.11581420898438,9.78389072418213,0.05680648982525,-0.38584515452385,1.01010084152222,-0.36178576946259,0.55464297533035
99,1984750889,168.54605102539062,-87.60437011718750,-179.31446838378906,9.77661323547363,0.06290315836668,-0.37691414356232,0.83215028047562,-0.41180098056793,0.61751580238342
100,1984767556,168.78047180175781,-87.59239196777344,-179.52491760253906,9.75746822357178,0.04221201688051,-0.39450514316559,0.78745597600937,-0.32841882109642,0.74424743652344
101,1984784223,169.04611206054688,-87.58030700683594,-179.78472900390625,9.76106929779053,0.07172261923552,-0.39205789566040,1.25040543079376,-0.34915229678154,0.80804860591888
102,1984800890,169.27784729003906,-87.56916809082031,179.96958923339844,9.78091812133789,0.09475065022707,-0.39540871977806,0.94832938909531,-0.27021396160126,0.75520962476730
103,1984817557,169.50920104980469,-87.56201171875000,179.73045349121094,9.79107189178467,0.02261177450418,-0.43603035807610,0.53091919422150,-0.05372263491154,0.81728190183640
104,1984834224,169.74490356445312,-87.55744171142578,179.52865600585938,9.77434253692627,0.01855972968042,-0.47009488940239,1.41909086704254,0.10964157432318,0.82263511419296
105,1984850891,169.97648620605469,-87.56000518798828,179.29223632812500,9.77967929840088,0.04898403957486,-0.44100111722946,1.99928259849548,0.55603253841400,0.86903256177902
106,1984867558,170.20828247070312,-87.57029724121094,179.05738830566406,9.78913688659668,0.03760190308094,-0.42755675315857,2.04138994216919,0.99815893173218,0.94284838438034
107,1984884225,170.41439819335938,-87.58848571777344,178.88047790527344,9.80771255493164,0.01790031604469,-0.42458501458168,2.81585383415222,1.48613214492798,0.92024505138397
108,1984900892,170.60049438476562,-87.61263275146484,178.71520996093750,9.81342124938965,0.07541739195585,-0.35214975476265,2.81757616996765,1.83363854885101,0.91957283020020
109,1984917559,170.71549987792969,-87.64125061035156,178.62458801269531,9.80466747283936,0.04639667645097,-0.36975622177124,2.16643762588501,2.14665174484253,0.81011700630188
110,1984934226,170.77764892578125,-87.66955566406250,178.58143615722656,9.77761554718018,0.04201238229871,-0.34063854813576,2.19664120674133,2.12742280960083,0.66807532310486
111,1984950893,170.80453491210938,-87.69744110107422,178.57661437988281,9.77704620361328,0.03080635704100,-0.33776712417603,1.98884546756744,2.13094472885132,0.58804839849472
112,1984967560,170.78514099121094,-87.72058868408203,178.59919738769531,9.77183341979980,0.04103525727987,-0.29902184009552,2.02636790275574,1.85934758186340,0.42866057157516
113,1984984227,170.79209899902344,-87.73937988281250,178.62046813964844,9.78172969818115,0.06383181363344,-0.32202047109604,2.44358611106873,1.59996771812439,0.43480756878853
114,1985000894,170.83245849609375,-87.75406646728516,178.58937072753906,9.76246929168701,0.05472139641643,-0.30215191841125,1.64619874954224,1.35970795154572,0.50688171386719
115,1985017561,170.89952087402344,-87.76183319091797,178.52049255371094,9.75805664062500,0.03565908968449,-0.30904465913773,1.58356273174286,0.95133882761002,0.50738108158112
116,1985034228,170.93699645996094,-87.76673889160156,178.47561645507812,9.74882793426514,0.05951540544629,-0.29040697216988,1.71665906906128,0.74012374877930,0.39783564209938
117,1985050895,170.95568847656250,-87.76779174804688,178.44003295898438,9.77129364013672,0.04947505518794,-0.30438303947449,0.83238077163696,0.53803962469101,0.35543382167816
118,1985067562,171.00225830078125,-87.76795959472656,178.38323974609375,9.80576896667480,0.04215328395367,-0.32181474566460,0.98512214422226,0.48618662357330,0.40704342722893
119,1985084229,171.07713317871094,-87.76428222656250,178.31095886230469,9.79033565521240,0.04573556035757,-0.32434356212616,1.05519199371338,0.24297486245632,0.43346932530403
120,1985100896,171.13569641113281,-87.76095581054688,178.24884033203125,9.74888038635254,0.04233576729894,-0.30404457449913,1.10981750488281,0.27267920970917,0.39756673574448
121,1985117563,171.20733642578125,-87.75703430175781,178.16168212890625,9.77040863037109,0.04194829240441,-0.34096312522888,0.81892126798630,0.22986759245396,0.43452587723732
122,1985134230,171.24278259277344,-87.75527954101562,178.12367248535156,9.78875923156738,0.06862026453018,-0.37039136886597,0.37777447700500,0.36233004927635,0.38552233576775
123,1985150897,171.31883239746094,-87.75807952880859,178.04470825195312,9.78556060791016,0.01504180673510,-0.36782056093216,1.06882441043854,0.62842684984207,0.49730262160301
124,1985167564,171.42478942871094,-87.76410675048828,177.92674255371094,9.78423118591309,0.03926734626293,-0.38714584708214,1.03974115848541,0.79995501041412,0.59483569860458
125,1985184231,171.53388977050781,-87.77130126953125,177.81900024414062,9.77386283874512,0.04174875468016,-0.37159615755081,1.38108789920807,0.89947956800461,0.60155260562897
126,1985200898,171.63453674316406,-87.77860260009766,177.71302795410156,9.81122112274170,0.06146614998579,-0.34680283069611,1.23019719123840,0.87970012426376,0.58420640230179
127,1985217565,171.75695800781250,-87.78610229492188,177.59770202636719,9.79147624969482,0.07071977853775,-0.31952649354935,1.02425825595856,0.88747358322144,0.64207839965820
128,1985234232,171.83560180664062,-87.79211425781250,177.51954650878906,9.77236461639404,0.01577924564481,-0.32140874862671,1.22870528697968,0.80596768856049,0.51836264133453
129,1985250899,171.98876953125000,-87.79611206054688,177.37094116210938,9.77666187286377,0.03751748800278,-0.31618106365204,1.15531194210052,0.68387186527252,0.67748153209686
130,1985267566,172.10690307617188,-87.79948425292969,177.24682617187500,9.80541992187500,0.02826584875584,-0.33223050832748,0.74778193235397,0.64890402555466,0.60552901029587
131,1985284233,172.25286865234375,-87.80420684814453,177.09881591796875,9.79242324829102,0.01465904153883,-0.36032301187515,1.01542818546295,0.71495288610458,0.66797918081284
132,1985300900,172.44792175292969,-87.80912017822266,176.91430664062500,9.78135204315186,0.07606220990419,-0.34282350540161,1.35531532764435,0.72343713045120,0.76847708225250
133,1985317567,172.63583374023438,-87.81296539306641,176.73217773437500,9.76291179656982,0.03512427210808,-0.35868269205093,1.17185139656067,0.64025980234146,0.74592500925064
134,1985334234,172.86737060546875,-87.81475067138672,176.50015258789062,9.78461074829102,0.03249758481979,-0.34987735748291,1.24696075916290,0.54215043783188,0.83157390356064
135,1985350901,173.05435180664062,-87.81752777099609,176.30165100097656,9.77597236633301,0.01597068831325,-0.35380381345749,0.92755740880966,0.61081802845001,0.74819171428680
136,1985367568,173.22207641601562,-87.82318878173828,176.13327026367188,9.78846263885498,0.03540959954262,-0.34159100055695,1.11535620689392,0.76088929176331,0.71218669414520
137,1985384235,173.35620117187500,-87.83119964599609,175.99169921875000,9.80285930633545,0.03421974182129,-0.35845202207565,0.65449416637421,0.94183027744293,0.67242306470871
138,1985400902,173.50358581542969,-87.84051513671875,175.84744262695312,9.77015876770020,0.03606780618429,-0.31076177954674,1.13549423217773,0.99500852823257,0.68800199031830
139,1985417569,173.67568969726562,-87.84914398193359,175.69403076171875,9.79072952270508,0.00826983619481,-0.35953193902969,1.18563115596771,0.95496314764023,0.73460429906845
140,1985434236,173.81550598144531,-87.85625457763672,175.54177856445312,9.76218509674072,0.02116771787405,-0.34750580787659,0.87699812650681,0.87197804450989,0.66186416149139
141,1985450903,173.96440124511719,-87.86238098144531,175.37545776367188,9.77572441101074,0.04362713173032,-0.33533194661140,0.45948541164398,0.82636165618896,0.69116503000259
142,1985467570,174.13629150390625,-87.86925506591797,175.20814514160156,9.79853534698486,0.01293095853180,-0.32052141427994,0.93125861883163,0.84544330835342,0.72507631778717
143,1985484237,174.32102966308594,-87.87578582763672,175.02680969238281,9.78279590606689,0.04814029484987,-0.30638816952705,1.22105348110199,0.85251224040985,0.74062323570251
144,1985500904,174.52357482910156,-87.88105010986328,174.82296752929688,9.77155113220215,0.00969723984599,-0.30675375461578,1.13481557369232,0.73712712526321,0.77116632461548
145,1985517571,174.69635009765625,-87.88659667968750,174.64843750000000,9.77547550201416,0.02798366360366,-0.32164251804352,1.00071382522583,0.77976590394974,0.71111106872559
146,1985534238,174.80200195312500,-87.89151000976562,174.54061889648438,9.76622772216797,0.00667207594961,-0.34181776642799,1.02265751361847,0.76139521598816,0.55680090188980
147,1985550905,174.94520568847656,-87.89653015136719,174.40153503417969,9.79077148437500,0.02615543268621,-0.33688709139824,1.07601523399353,0.76494896411896,0.63805079460144
148,1985567572,175.09387207031250,-87.90341949462891,174.26216125488281,9.79212665557861,0.01134252455086,-0.33048400282860,1.32475292682648,0.89877533912659,0.65080589056015
149,1985584239,175.25930786132812,-87.91109466552734,174.10668945312500,9.76239871978760,0.00501182023436,-0.34677898883820,1.63677954673767,0.91710102558136,0.67518913745880
150,1985600906,175.42887878417969,-87.91851043701172,173.94187927246094,9.77534198760986,0.00384911592118,-0.31065034866333,1.45393657684326,0.88525801897049,0.68675965070724
151,1985617573,175.59849548339844,-87.92481231689453,173.78897094726562,9.80371665954590,0.01770727522671,-0.30134853720665,1.03597605228424,0.83378946781158,0.69439232349396
152,1985634240,175.73657226562500,-87.93199920654297,173.64788818359375,9.76655006408691,-0.01095279306173,-0.32001566886902,1.14066803455353,0.86257815361023,0.62284326553345
153,1985650907,175.94287109375000,-87.93711853027344,173.44599914550781,9.76683139801025,0.01629545539618,-0.31259885430336,1.53858673572540,0.77131992578506,0.74884486198425
154,1985667574,176.15107727050781,-87.94139099121094,173.25889587402344,9.78233718872070,0.00487659918144,-0.31841370463371,1.59543418884277,0.71686744689941,0.74381196498871
155,1985684241,176.35736083984375,-87.94738769531250,173.04826354980469,9.76103878021240,-0.00806512311101,-0.33064496517181,1.56006276607513,0.81309425830841,0.74650120735168
156,1985700908,176.56773376464844,-87.95263671875000,172.84309387207031,9.75284576416016,-0.00398251134902,-0.32293468713760,1.58524680137634,0.78277528285980,0.74936354160309
157,1985717575,176.84373474121094,-87.95761108398438,172.56892395019531,9.78041648864746,0.05572918802500,-0.30382460355759,1.51848077774048,0.74728238582611,0.88933038711548
158,1985734242,177.11325073242188,-87.96568298339844,172.29292297363281,9.81931400299072,-0.00925112422556,-0.33448162674904,1.12179148197174,0.93170696496964,0.89601552486420
159,1985750909,177.47964477539062,-87.97686767578125,171.94094848632812,9.81430339813232,-0.00374655984342,-0.36469131708145,1.96779179573059,1.13457238674164,1.07776331901550
160,1985767576,177.86976623535156,-87.99640655517578,171.57444763183594,9.80246162414551,-0.02537627704442,-0.37062048912048,2.00045442581177,1.59975659847260,1.13514208793640
161,1985784243,178.26779174804688,-88.02077484130859,171.20516967773438,9.79761505126953,-0.01488895807415,-0.38915345072746,2.53382611274719,1.93081355094910,1.12830364704132
162,1985800910,178.74368286132812,-88.05067443847656,170.75511169433594,9.80284595489502,-0.02681100741029,-0.32352346181870,3.02166533470154,2.23043727874756,1.25860190391541
163,1985817577,179.22773742675781,-88.08419036865234,170.27857971191406,9.77948474884033,0.01366339623928,-0.33036556839943,2.92100715637207,2.48291492462158,1.25423479080200
164,1985834244,179.73214721679688,-88.12028503417969,169.80566406250000,9.77052593231201,-0.01438013650477,-0.30081483721733,3.04532408714294,2.62795257568359,1.25755786895752
165,1985850911,-179.74792480468750,-88.15634155273438,169.31744384765625,9.75658035278320,-0.00278250733390,-0.28391349315643,3.06824111938477,2.63233900070190,1.25067448616028
166,1985867578,-179.21153259277344,-88.19300842285156,168.80320739746094,9.76401996612549,0.00437043886632,-0.25459003448486,3.06048059463501,2.67755794525146,1.24468111991882
167,1985884245,-178.66708374023438,-88.22645568847656,168.28370666503906,9.77324771881104,-0.03227744624019,-0.22915454208851,2.83546090126038,2.49660444259644,1.23150360584259
168,1985900912,-178.22567749023438,-88.25616455078125,167.86875915527344,9.74353694915771,-0.03185393661261,-0.20355029404163,2.66061544418335,2.27190399169922,1.01679217815399
169,1985917579,-177.83410644531250,-88.27864837646484,167.48365783691406,9.74684619903564,-0.00237512448803,-0.16623577475548,2.21736836433411,1.86136472225189,0.92962580919266
170,1985934246,-177.53417968750000,-88.29498291015625,167.20202636718750,9.75858879089355,-0.00135738297831,-0.16542790830135,1.43158984184265,1.46118533611298,0.78773778676987
171,1985950913,-177.26274108886719,-88.30291748046875,166.92520141601562,9.78173160552979,-0.01851514168084,-0.18777166306973,1.14844143390656,0.99879926443100,0.75747638940811
172,1985967580,-177.10519409179688,-88.30591583251953,166.77995300292969,9.76185321807861,-0.03570274263620,-0.18657332658768,1.02692186832428,0.68351966142654,0.56909495592117
173,1985984247,-176.98942565917969,-88.30291748046875,166.65658569335938,9.79021453857422,-0.02358927577734,-0.18027448654175,0.92007857561111,0.30441328883171,0.51670420169830
174,1986000914,-176.90853881835938,-88.29658508300781,166.56399536132812,9.78552913665771,-0.03422439470887,-0.20976988971233,0.46211710572243,0.12997163832188,0.47751033306122
175,1986017581,-176.85682678222656,-88.28856658935547,166.49861145019531,9.77434349060059,-0.02333832532167,-0.22309067845345,0.24791169166565,0.00284941261634,0.43981486558914
176,1986034248,-176.82012939453125,-88.27819824218750,166.45036315917969,9.77434062957764,-0.02697895094752,-0.28186213970184,0.20622704923153,-0.08297234028578,0.41894051432610
177,1986050915,-176.78134155273438,-88.27014160156250,166.40057373046875,9.79732704162598,-0.05997299775481,-0.31118369102478,0.36397570371628,0.00597416283563,0.41476565599442
178,1986067582,-176.72994995117188,-88.26416015625000,166.33613586425781,9.80379962921143,-0.04100185632706,-0.25895571708679,1.25534892082214,0.15573163330555,0.40370100736618
179,1986084249,-176.74034118652344,-88.26111602783203,166.33383178710938,9.79017829895020,-0.03081975504756,-0.29317748546600,0.49308928847313,0.27831399440765,0.30580919981003
180,1986100916,-176.69479370117188,-88.26178741455078,166.28527832031250,9.76966953277588,-0.04630076140165,-0.32035958766937,0.74269777536392,0.54224002361298,0.38586166501045
181,1986117583,-176.57182312011719,-88.26336669921875,166.16510009765625,9.76682567596436,-0.04002773016691,-0.29335170984268,1.09680604934692,0.57998037338257,0.51411724090576
182,1986134250,-176.44029235839844,-88.27002716064453,166.03863525390625,9.80432510375977,-0.05648237094283,-0.29105097055435,1.33501720428467,0.89038074016571,0.50412839651108
183,1986150917,-176.31922912597656,-88.27660369873047,165.91104125976562,9.80454921722412,-0.02965343184769,-0.27430042624474,1.56797742843628,0.89258331060410,0.47641542553902
184,1986167584,-176.21726989746094,-88.28194427490234,165.80586242675781,9.78348541259766,-0.02110763825476,-0.24436961114407,1.60030698776245,0.82904464006424,0.44316369295120
185,1986184251,-176.08172607421875,-88.28719329833984,165.67428588867188,9.76030921936035,-0.03258727863431,-0.24037128686905,1.31756210327148,0.81884437799454,0.51187616586685
186,1986200918,-176.00411987304688,-88.29325866699219,165.59768676757812,9.78136539459229,-0.03324532881379,-0.26946645975113,1.43137228488922,0.85685372352600,0.39967980980873
187,1986217585,-175.89469909667969,-88.29750823974609,165.48582458496094,9.77765846252441,-0.02753262221813,-0.22678855061531,1.01618385314941,0.76231074333191,0.47492343187332
188,1986234252,-175.88378906250000,-88.29912567138672,165.47808837890625,9.77524280548096,-0.05571885034442,-0.23478287458420,1.01924443244934,0.57818114757538,0.30977278947830
189,1986250919,-175.81199645996094,-88.29877471923828,165.41273498535156,9.77693748474121,-0.05460103601217,-0.24564284086227,1.42328500747681,0.47949540615082,0.41446471214294
190,1986267586,-175.73921203613281,-88.29820251464844,165.35842895507812,9.77992725372314,-0.02010748535395,-0.24924647808075,1.16785585880280,0.46691313385963,0.42517718672752
191,1986284253,-175.73789978027344,-88.29682159423828,165.37576293945312,9.77300548553467,-0.04771700501442,-0.26275438070297,0.61289262771606,0.39464685320854,0.31768068671227
192,1986300920,-175.72894287109375,-88.29360198974609,165.35093688964844,9.78127384185791,-0.03629635646939,-0.26054060459137,0.77809458971024,0.32058775424957,0.33358618617058
193,1986317587,-175.75064086914062,-88.29222869873047,165.35421752929688,9.81849098205566,-0.01912512443960,-0.25984689593315,0.40090918540955,0.39933398365974,0.28361582756042
194,1986334254,-175.75576782226562,-88.29039764404297,165.34721374511719,9.77953720092773,-0.07752861082554,-0.23953929543495,0.90056174993515,0.37016111612320,0.30035370588303
195,1986350921,-175.76640319824219,-88.28742218017578,165.36181640625000,9.77758121490479,-0.01986313052475,-0.24101173877716,0.98065263032913,0.29779246449471,0.29279801249504
196,1986367588,-175.83802795410156,-88.28525543212891,165.42030334472656,9.77951431274414,0.01549570634961,-0.24014231562614,0.32485228776932,0.35519051551819,0.19847925007343
197,1986384255,-175.89297485351562,-88.28650665283203,165.45745849609375,9.79207038879395,-0.05596406757832,-0.31621181964874,0.13917300105095,0.54245775938034,0.21991705894470
198,1986400922,-175.87606811523438,-88.28936767578125,165.43504333496094,9.78335762023926,-0.04648722708225,-0.29310995340347,0.65139496326447,0.68256562948227,0.32524284720421
199,1986417589,-175.85444641113281,-88.29371643066406,165.40731811523438,9.77836704254150,-0.06435405462980,-0.27729934453964,1.53185725212097,0.76339930295944,0.30174320936203
200,1986434256,-175.88177490234375,-88.30361175537109,165.43179321289062,9.78938293457031,-0.02323575504124,-0.29953414201736,0.81863319873810,1.08112490177155,0.21108707785606
201,1986450923,-175.87165832519531,-88.31646728515625,165.41581726074219,9.78209400177002,-0.04897077381611,-0.28644001483917,0.80719703435898,1.20337438583374,0.26998347043991
202,1986467590,-175.84468078613281,-88.33141326904297,165.39103698730469,9.77396583557129,-0.03584064170718,-0.27744477987289,1.49181818962097,1.38619136810303,0.26613515615463
203,1986484257,-175.80122375488281,-88.35111236572266,165.31925964355469,9.76671886444092,-0.01018109731376,-0.25646689534187,0.90439081192017,1.66795659065247,0.29214483499527
204,1986500924,-175.78916931152344,-88.37153625488281,165.30369567871094,9.79264068603516,-0.02619278617203,-0.25089398026466,0.75739943981171,1.70143210887909,0.23655244708061
205,1986517591,-175.76321411132812,-88.39173126220703,165.28436279296875,9.78682518005371,-0.05790537968278,-0.25884252786636,1.12262368202209,1.69707822799683,0.24948686361313
206,1986534258,-175.70335388183594,-88.41464996337891,165.22537231445312,9.78309726715088,-0.02344753220677,-0.24995295703411,1.18506765365601,1.83911359310150,0.29259309172630
207,1986550925,-175.64329528808594,-88.43740081787109,165.14402770996094,9.78242111206055,-0.05055019631982,-0.21755261719227,0.98194611072540,1.86248528957367,0.29553854465485
208,1986567592,-175.60494995117188,-88.45909118652344,165.09706115722656,9.76579952239990,-0.02233322337270,-0.24647629261017,0.74025177955627,1.77138066291809,0.26975932717323
209,1986584259,-175.52108764648438,-88.47825622558594,165.01780700683594,9.78572654724121,-0.00924450624734,-0.17148602008820,1.41565859317780,1.62578535079956,0.33453390002251
210,1986600926,-175.51873779296875,-88.49559020996094,165.00375366210938,9.77131366729736,-0.05812685936689,-0.22425210475922,0.76947593688965,1.53697335720062,0.22598727047443
211,1986617593,-175.47302246093750,-88.51194000244141,164.95382690429688,9.77389717102051,-0.00883078761399,-0.20467290282249,0.93071442842484,1.43817889690399,0.29714578390121
212,1986634260,-175.43559265136719,-88.52700805664062,164.91484069824219,9.76677703857422,-0.05719131603837,-0.24011562764645,1.00630390644073,1.38735663890839,0.28594660758972
213,1986650927,-175.40580749511719,-88.54263305664062,164.89393615722656,9.77818584442139,-0.06748008728027,-0.24297666549683,1.37027275562286,1.42393147945404,0.25898918509483
214,1986667594,-175.38899230957031,-88.56060028076172,164.88377380371094,9.78798866271973,-0.02670056745410,-0.22545857727528,1.50558495521545,1.54484915733337,0.22583359479904
215,1986684261,-175.41137695312500,-88.58017730712891,164.91001892089844,9.79861354827881,-0.03292077407241,-0.19758318364620,0.98024284839630,1.66647088527679,0.16920389235020
216,1986700928,-175.45268249511719,-88.60450744628906,164.94247436523438,9.78071784973145,-0.04678692296147,-0.18442252278328,0.55261313915253,1.88744449615479,0.13470357656479
217,1986717595,-175.45205688476562,-88.62599182128906,164.94644165039062,9.76331806182861,-0.02831325121224,-0.17014028131962,1.12249588966370,1.76554119586945,0.19357439875603
218,1986734262,-175.55021667480469,-88.64968872070312,165.03755187988281,9.79746818542480,-0.05981098860502,-0.20070411264896,1.23657488822937,1.85617160797119,0.04245945438743
219,1986750929,-175.50785827636719,-88.67440795898438,164.99847412109375,9.76978683471680,0.01010853145272,-0.18906645476818,1.32392692565918,1.96064591407776,0.23538713157177
220,1986767596,-175.55528259277344,-88.69749450683594,165.05393981933594,9.75764465332031,-0.05485718697309,-0.18591973185539,1.24169743061066,1.84463310241699,0.11909265816212
221,1986784263,-175.61291503906250,-88.72129821777344,165.11718750000000,9.77542114257812,-0.02583574317396,-0.15596267580986,1.68591105937958,1.87124478816986,0.09604122489691
222,1986800930,-175.65098571777344,-88.74337005615234,165.16812133789062,9.79506778717041,-0.03391890972853,-0.18172700703144,1.78441762924194,1.76054668426514,0.13096414506435
223,1986817597,-175.67280578613281,-88.76156616210938,165.20397949218750,9.77254676818848,-0.03819280490279,-0.16251322627068,1.68098080158234,1.62774467468262,0.16755189001560
224,1986834264,-175.75657653808594,-88.77954864501953,165.29138183593750,9.78677272796631,-0.02706702798605,-0.15117929875851,1.54286420345306,1.50516235828400,0.09940929710865
225,1986850931,-175.82887268066406,-88.79342651367188,165.37240600585938,9.78364849090576,-0.03539160266519,-0.14553977549076,1.68037879467010,1.31637108325958,0.12839007377625
226,1986867598,-175.92510986328125,-88.80466461181641,165.47207641601562,9.79092502593994,-0.01404607575387,-0.10824808478355,1.29757153987885,1.15415310859680,0.11973297595978
227,1986884265,-176.04096984863281,-88.81122589111328,165.60119628906250,9.79160022735596,-0.02617250382900,-0.15234802663326,1.34788763523102,0.85215377807617,0.11664664000273
228,1986900932,-176.12945556640625,-88.81468963623047,165.70002746582031,9.77415466308594,-0.01066991686821,-0.15819263458252,1.54180133342743,0.66448950767517,0.16169939935207
229,1986917599,-176.19642639160156,-88.81832885742188,165.76969909667969,9.78431320190430,-0.03230273723602,-0.15175341069698,1.34157395362854,0.65054333209991,0.19430433213711
230,1986934266,-176.18606567382812,-88.82180786132812,165.75891113281250,9.80771160125732,-0.02261353656650,-0.19024057686329,1.60613405704498,0.73224151134491,0.28255933523178
231,1986950933,-176.16018676757812,-88.82780456542969,165.74662780761719,9.80106163024902,-0.02739239670336,-0.16253399848938,1.73301899433136,0.84789550304413,0.29080653190613
232,1986967600,-176.16241455078125,-88.83584594726562,165.76216125488281,9.78585433959961,-0.02088079974055,-0.19445532560349,1.86395800113678,0.97093254327774,0.24410824477673
233,1986984267,-176.15739440917969,-88.84750366210938,165.77355957031250,9.78334236145020,0.01734787411988,-0.22156701982021,1.49558305740356,1.16013360023499,0.24821905791759
234,1987000934,-176.06793212890625,-88.86391448974609,165.69831848144531,9.79523658752441,-0.02454927004874,-0.20608936250210,1.50647497177124,1.44978129863739,0.33133873343468
235,1987017601,-175.87290954589844,-88.88215637207031,165.51196289062500,9.79080772399902,-0.03738933429122,-0.18736542761326,1.97579526901245,1.55464589595795,0.43788108229637
236,1987034268,-175.66645812988281,-88.90140533447266,165.32595825195312,9.76646041870117,-0.02588338032365,-0.13328722119331,2.41787075996399,1.63747751712799,0.43038943409920
237,1987050935,-175.45353698730469,-88.92135620117188,165.13652038574219,9.78658008575439,-0.00466741807759,-0.16103665530682,2.01682734489441,1.67076134681702,0.43429532647133
238,1987067602,-175.22482299804688,-88.93486022949219,164.91809082031250,9.75242424011230,-0.01794720813632,-0.12222652137280,2.01988792419434,1.32031548023224,0.47354683279991
239,1987084269,-175.12193298339844,-88.94612884521484,164.82112121582031,9.76392650604248,-0.05224505066872,-0.11879956722260,1.92568433284760,1.13701820373535,0.34244820475578
240,1987100936,-174.98579406738281,-88.95152282714844,164.70777893066406,9.76675128936768,0.00455780280754,-0.09428035467863,2.43944311141968,0.77557814121246,0.39969897270203
241,1987117603,-175.04370117187500,-88.95077514648438,164.76719665527344,9.76903629302979,-0.04272100701928,-0.06468297541142,1.20272111892700,0.47964903712273,0.22979715466499
242,1987134270,-175.05354309082031,-88.94593811035156,164.79597473144531,9.77516651153564,-0.04726869612932,-0.07562451064587,1.90479719638824,0.21799607574940,0.29311811923981
243,1987150937,-175.15100097656250,-88.93486022949219,164.90637207031250,9.78529262542725,0.02269391529262,-0.08313311636448,1.76478552818298,-0.21423743665218,0.23208308219910
244,1987167604,-175.34927368164062,-88.91809082031250,165.11364746093750,9.79287624359131,-0.01735231094062,-0.10671315342188,1.20646047592163,-0.47870773077011,0.14541609585285
245,1987184271,-175.60321044921875,-88.89500427246094,165.37554931640625,9.72582149505615,-0.06984904408455,-0.11695539951324,1.75923383235931,-0.86052900552750,0.09306373447180
246,1987200938,-175.87615966796875,-88.87169647216797,165.65272521972656,9.78860569000244,-0.00038193477667,-0.12970893085003,1.20995032787323,-0.93068861961365,0.07307942956686
247,1987217605,-176.21903991699219,-88.84818267822266,166.00166320800781,9.79641151428223,-0.00290443375707,-0.16442653536797,0.56809604167938,-0.94148439168930,-0.01351069752127
248,1987234272,-176.54158020019531,-88.82397460937500,166.31784057617188,9.77234077453613,-0.04280084744096,-0.18871258199215,0.72384697198868,-0.96657210588455,-0.00523779727519
249,1987250939,-176.80427551269531,-88.79992675781250,166.57232666015625,9.76277923583984,-0.02675767242908,-0.15012520551682,0.72578060626984,-0.93345475196838,0.05430532246828
250,1987267606,-177.03750610351562,-88.77699279785156,166.79649353027344,9.79850387573242,0.02963711507618,-0.17503437399864,0.69204872846603,-0.89024615287781,0.07797146588564
251,1987284273,-177.21340942382812,-88.75872802734375,166.95907592773438,9.79982376098633,-0.03091631270945,-0.22152815759182,0.43535819649696,-0.58115208148956,0.13360223174095
252,1987300940,-177.40429687500000,-88.74414825439453,167.14088439941406,9.79192256927490,-0.03746587783098,-0.20784690976143,0.77277994155884,-0.40108203887939,0.09195598959923
253,1987317607,-177.51583862304688,-88.73298645019531,167.24038696289062,9.78660297393799,-0.02406609430909,-0.21228367090225,1.14512455463409,-0.17410230636597,0.17459537088871
254,1987334274,-177.59681701660156,-88.72543334960938,167.32389831542969,9.79092216491699,0.00415912922472,-0.21850268542767,0.71198827028275,0.03481406345963,0.21480731666088
255,1987350941,-177.76217651367188,-88.72160339355469,167.48580932617188,9.79140567779541,-0.02590220794082,-0.20737341046333,0.71055394411087,0.26609677076340,0.09038081020117
256,1987367608,-177.83415222167969,-88.71916198730469,167.55064392089844,9.78198242187500,-0.03214832395315,-0.20285469293594,1.20709455013275,0.32706776261330,0.20265409350395
257,1987384275,-177.84924316406250,-88.71549987792969,167.56108093261719,9.77038764953613,-0.01707308366895,-0.16308480501175,1.03704535961151,0.26881808042526,0.28608101606369
258,1987400942,-177.91891479492188,-88.70941925048828,167.63320922851562,9.74688911437988,-0.03985931351781,-0.16045640408993,1.27710688114166,0.11341944336891,0.21083734929562
259,1987417609,-177.96484375000000,-88.70005035400391,167.68357849121094,9.79963874816895,-0.02030527591705,-0.16910201311111,1.10221064090729,-0.06003616377711,0.25245797634125
260,1987434276,-178.00727844238281,-88.68955993652344,167.72171020507812,9.77638721466064,-0.02183400653303,-0.19069273769855,1.07753252983093,-0.13053512573242,0.25997528433800
261,1987450943,-177.99092102050781,-88.68003082275391,167.71020507812500,9.78204917907715,-0.00676796445623,-0.16345502436161,1.24598729610443,-0.04620530828834,0.33449548482895
262,1987467610,-178.00576782226562,-88.67397308349609,167.70613098144531,9.80811977386475,-0.02360699884593,-0.17995640635490,0.97740614414215,0.10743246227503,0.29327821731567
263,1987484277,-177.93164062500000,-88.66954040527344,167.62429809570312,9.80127906799316,0.04642261192203,-0.17498409748077,0.45155826210976,0.22626899182796,0.42522841691971
264,1987500944,-177.94189453125000,-88.67205047607422,167.62780761718750,9.82040500640869,-0.08222636580467,-0.27415266633034,0.61147123575211,0.64293640851974,0.28869995474815
265,1987517611,-177.86683654785156,-88.67854309082031,167.55599975585938,9.78476905822754,0.00908317044377,-0.25950443744659,1.39833176136017,0.86990338563919,0.38112339377403
266,1987534278,-177.77186584472656,-88.68880462646484,167.46527099609375,9.77924346923828,-0.02364817261696,-0.22339582443237,1.17392623424530,1.09414255619049,0.40462306141853
267,1987550945,-177.67211914062500,-88.70547485351562,167.36688232421875,9.78924942016602,-0.02992223948240,-0.21313492953777,0.93630433082581,1.45165741443634,0.39971822500229
268,1987567612,-177.54956054687500,-88.72206115722656,167.23007202148438,9.77640724182129,-0.02862505055964,-0.19155168533325,1.49313724040985,1.48448014259338,0.41497057676315
269,1987584279,-177.47167968750000,-88.74057006835938,167.14944458007812,9.78070640563965,-0.00226203212515,-0.20043450593948,1.17512333393097,1.59468507766724,0.35261002182961
270,1987600946,-177.41229248046875,-88.75983428955078,167.09111022949219,9.78970813751221,-0.01601331681013,-0.15156152844429,1.24646115303040,1.60748493671417,0.32262396812439
271,1987617613,-177.42059326171875,-88.77778625488281,167.09681701660156,9.79969978332520,-0.00687816739082,-0.10725975781679,1.12559485435486,1.55551683902740,0.23705193400383
272,1987634280,-177.29248046875000,-88.79357910156250,166.97154235839844,9.78885555267334,-0.02051183395088,-0.13091024756432,1.03568160533905,1.43767297267914,0.42005470395088
273,1987650947,-177.20106506347656,-88.80352020263672,166.88026428222656,9.76437950134277,-0.02338495105505,-0.17461487650871,1.29326832294464,1.07036113739014,0.38193017244339
274,1987667614,-177.14721679687500,-88.80777740478516,166.83969116210938,9.76523971557617,-0.00446020904928,-0.15186916291714,1.71608257293701,0.73342597484589,0.34033510088921
275,1987684281,-177.02127075195312,-88.80958557128906,166.72665405273438,9.75421714782715,-0.00688534975052,-0.16868899762630,1.49598646163940,0.60255157947540,0.44290760159492
276,1987700948,-176.89869689941406,-88.80810546875000,166.61314392089844,9.75654792785645,0.00203409511596,-0.13626366853714,1.39190304279327,0.43373188376427,0.44926595687866
277,1987717615,-176.85447692871094,-88.80483245849609,166.56398010253906,9.78932762145996,-0.01907979510725,-0.17036026716232,1.33240473270416,0.28379514813423,0.35965994000435
278,1987734282,-176.86067199707031,-88.79895019531250,166.57464599609375,9.78169345855713,-0.01293006166816,-0.14893157780170,0.92418307065964,0.16988906264305,0.31009298563004
279,1987750949,-176.84503173828125,-88.79650115966797,166.54095458984375,9.77123165130615,-0.01819574274123,-0.21175795793533,0.42714941501617,0.32594081759453,0.34075775742531
280,1987767616,-176.87667846679688,-88.79325866699219,166.55233764648438,9.80777359008789,-0.00437053618953,-0.20274274051189,0.49897375702858,0.30420202016830,0.28065115213394
281,1987784283,-176.96597290039062,-88.79017639160156,166.62768554687500,9.78940963745117,-0.03350906074047,-0.17558462917805,0.71201384067535,0.31328812241554,0.19995193183422
282,1987800950,-176.90802001953125,-88.78759765625000,166.57025146484375,9.76280307769775,-0.03268184885383,-0.14776600897312,1.17804968357086,0.29719054698944,0.38107213377953
283,1987817617,-176.94851684570312,-88.78308105468750,166.58789062500000,9.77602386474609,-0.01329633872956,-0.11783602833748,0.66034013032913,0.20589408278465,0.26915743947029
284,1987834284,-176.96115112304688,-88.77810668945312,166.59184265136719,9.80558586120605,-0.00433421088383,-0.16103279590607,0.59478443861008,0.18905374407768,0.30819118022919
285,1987850951,-177.00842285156250,-88.77220153808594,166.64337158203125,9.78921699523926,-0.02621717564762,-0.16913314163685,0.73694777488708,0.16232687234879,0.26034668087959
286,1987867618,-177.04948425292969,-88.76758575439453,166.67309570312500,9.77043819427490,-0.05342729389668,-0.21069961786270,1.03669965267181,0.18331010639668,0.26057082414627
287,1987884285,-177.05877685546875,-88.76219940185547,166.70150756835938,9.75109481811523,-0.00610425462946,-0.15280561149120,1.69947314262390,0.18615952134132,0.28784194588661
288,1987900952,-177.13699340820312,-88.75652313232422,166.78359985351562,9.79199218750000,-0.01479735411704,-0.18188048899174,0.81569415330887,0.17989721894264,0.21515309810638
289,1987917619,-177.23152160644531,-88.75243377685547,166.89234924316406,9.79337406158447,-0.01902888342738,-0.14943370223045,1.06363773345947,0.25548025965691,0.18320122361183
290,1987934286,-177.36360168457031,-88.74851989746094,167.02923583984375,9.77134323120117,-0.01005698367953,-0.14878207445145,1.26727795600891,0.22178037464619,0.13062477111816
291,1987950953,-177.49917602539062,-88.74103546142578,167.16572570800781,9.77014255523682,0.02545190043747,-0.12444935739040,1.11230826377869,0.04726823419333,0.13638761639595
292,1987967620,-177.71009826660156,-88.73236083984375,167.36169433593750,9.82020473480225,-0.04365125671029,-0.16468070447445,0.71260291337967,-0.07719668000937,0.04715938493609
293,1987984287,-177.93266296386719,-88.72344207763672,167.57696533203125,9.77306842803955,-0.02629920281470,-0.20850178599358,0.96895402669907,-0.04546894505620,0.01955529488623
294,1988000954,-178.17002868652344,-88.71427154541016,167.81665039062500,9.78666973114014,-0.00449351780117,-0.19543693959713,1.32012331485748,-0.04797258973122,-0.01234532240778
295,1988017621,-178.40429687500000,-88.70880889892578,168.03678894042969,9.78862094879150,-0.02171013876796,-0.21896646916866,0.89415860176086,0.15565480291843,-0.00874673761427
296,1988034288,-178.58200073242188,-88.70456695556641,168.23168945312500,9.79893302917480,-0.04368868842721,-0.22443602979183,1.48405742645264,0.22410470247269,0.05141109600663
297,1988050955,-178.71798706054688,-88.70336914062500,168.37481689453125,9.78906154632568,-0.00693059852347,-0.22208614647388,1.83425974845886,0.38132825493813,0.09645101428032
298,1988067622,-178.86531066894531,-88.70336914062500,168.52735900878906,9.78311252593994,-0.00020057002257,-0.18803663551807,1.80407500267029,0.50156700611115,0.07838124781847
299,1988084289,-179.02154541015625,-88.70366668701172,168.68814086914062,9.75285434722900,-0.02946035750210,-0.20950350165367,1.32822334766388,0.52965784072876,0.07719668745995
300,1988100956,-179.28591918945312,-88.70562744140625,168.95591735839844,9.77621936798096,0.00256221718155,-0.22131301462650,1.26244378089905,0.58206784725189,-0.07168994843960
301,1988117623,-179.56033325195312,-88.70866394042969,169.23333740234375,9.79312324523926,-0.00229224748909,-0.17877228558064,1.21297252178192,0.65424436330795,-0.08365107327700
302,1988134290,-179.77633666992188,-88.71427154541016,169.44795227050781,9.80903911590576,-0.03336862474680,-0.15940184891224,1.07477283477783,0.80591636896133,0.00093486352125
303,1988150957,179.96826171875000,-88.71732330322266,169.71070861816406,9.76385593414307,-0.00680622039363,-0.16330863535404,1.19092023372650,0.68312275409698,-0.05300548672676
304,1988167624,179.73588562011719,-88.71870422363281,169.94340515136719,9.75244903564453,0.00474175252020,-0.18861794471741,1.15811026096344,0.54912984371185,-0.01956810243428
305,1988184291,179.46018981933594,-88.71762847900391,170.22102355957031,9.78157901763916,-0.00302955554798,-0.19725143909454,1.14135944843292,0.45154547691345,-0.07905358076096
306,1988200958,179.17149353027344,-88.72175598144531,170.51092529296875,9.79798698425293,0.00287119229324,-0.17684902250767,1.05850255489349,0.74628365039825,-0.09074579179287
307,1988217625,178.94645690917969,-88.72820281982422,170.73690795898438,9.80506515502930,-0.02374839782715,-0.16257227957249,1.16749739646912,0.86087483167648,-0.00224111112766
308,1988234292,178.68711853027344,-88.73004913330078,171.00129699707031,9.77996253967285,0.00061612261925,-0.17760796844959,1.41214346885681,0.60010558366776,-0.05796794220805
309,1988250959,178.36007690429688,-88.73081970214844,171.33314514160156,9.78271770477295,0.02132511697710,-0.16801644861698,1.29812192916870,0.56334489583969,-0.14523680508137
310,1988267626,178.05718994140625,-88.73113250732422,171.62774658203125,9.78804111480713,-0.00794383976609,-0.15451633930206,1.09699845314026,0.51840746402740,-0.10913570225239
311,1988284293,177.80567932128906,-88.73220825195312,171.90274047851562,9.76857185363770,0.02667375653982,-0.14372031390667,1.29726397991180,0.50695860385895,-0.04548816010356
312,1988300960,177.64099121093750,-88.72943115234375,172.08955383300781,9.76492309570312,0.00057077605743,-0.16422484815121,1.33239185810089,0.38406881690025,0.06506265699863
313,1988317627,177.49934387207031,-88.72512817382812,172.23658752441406,9.76879787445068,-0.00990967359394,-0.19317564368248,1.30177187919617,0.19809502363205,0.08948437869549
314,1988334294,177.30262756347656,-88.71961975097656,172.43914794921875,9.80177688598633,0.00519625423476,-0.18333239853382,1.29585540294647,0.17901358008385,0.01237733755261
315,1988350961,177.10441589355469,-88.71199035644531,172.65133666992188,9.82967853546143,-0.01060896087438,-0.14895784854889,1.29492044448853,0.07488512992859,0.00290063791908
316,1988367628,176.94306945800781,-88.69493865966797,172.82017517089844,9.72616100311279,-0.01636905781925,-0.19257090985775,1.98572015762329,-0.51079398393631,0.00420688558370
317,1988384295,176.71148681640625,-88.66646575927734,173.07325744628906,9.70124435424805,0.02252981439233,-0.11657521128654,2.10992956161499,-1.19155406951904,-0.14376409351826
318,1988400962,176.51426696777344,-88.63327026367188,173.27084350585938,9.76630306243896,0.06896577775478,-0.10348736494780,1.30688130855560,-1.47489416599274,-0.10510169714689
319,1988417629,176.30854797363281,-88.59486389160156,173.46914672851562,9.80413246154785,0.06553103774786,-0.06703104078770,0.95564174652100,-1.74620974063873,-0.14126683771610
320,1988434296,176.03417968750000,-88.55220031738281,173.72029113769531,9.76137924194336,-0.00839595030993,-0.19687098264694,-0.61629921197891,-2.03987860679626,-0.24363441765308
321,1988450963,175.79772949218750,-88.50144958496094,173.95867919921875,9.76383781433105,-0.02187685854733,-0.17023327946663,0.73357969522476,-2.46367263793945,-0.27237823605537
322,1988467630,175.42335510253906,-88.44606781005859,174.31593322753906,9.77405929565430,0.01541066076607,-0.21810679137707,0.02629783749580,-2.75289130210876,-0.52722460031509
323,1988484297,174.97647094726562,-88.38869476318359,174.72821044921875,9.78989315032959,0.04857153818011,-0.18826696276665,-0.88626348972321,-2.88355469703674,-0.67938977479935
324,1988500964,174.49003601074219,-88.32485961914062,175.18832397460938,9.75153160095215,-0.02690568938851,-0.22836235165596,-0.85342794656754,-3.20148468017578,-0.83264321088791
325,1988517631,174.07316589355469,-88.25257873535156,175.58567810058594,9.72813892364502,0.03968719765544,-0.20690894126892,-0.31223163008690,-3.74202847480774,-0.83998137712479
326,1988534298,173.67483520507812,-88.17523193359375,175.95553588867188,9.78910732269287,0.08621347695589,-0.13135801255703,-0.90608769655228,-3.99910259246826,-0.87495541572571
327,1988550965,173.30513000488281,-88.09186553955078,176.27360534667969,9.76291942596436,0.03506346791983,-0.21982207894325,-1.84287214279175,-4.37404680252075,-0.89051508903503
328,1988567632,173.05195617675781,-87.99835968017578,176.49101257324219,9.76614284515381,0.00975066795945,-0.19140195846558,-0.61348825693130,-4.97789287567139,-0.82050293684006
329,1988584299,172.75471496582031,-87.89671325683594,176.74661254882812,9.74065876007080,0.03471356257796,-0.23047474026680,-1.28744184970856,-5.47383832931519,-1.00424206256866
330,1988600966,172.33518981933594,-87.78512573242188,177.12188720703125,9.74147224426270,0.04975211992860,-0.23892144858837,-1.71713316440582,-6.01376676559448,-1.40573406219482
331,1988617633,171.86587524414062,-87.66493988037109,177.52178955078125,9.73689365386963,0.02157921344042,-0.31179133057594,-2.89189171791077,-6.47821998596191,-1.64028847217560
332,1988634300,171.41496276855469,-87.53693389892578,177.92677307128906,9.77519512176514,0.04050228372216,-0.29054498672485,-2.35031127929688,-6.94425630569458,-1.79712820053101
333,1988650967,170.88226318359375,-87.40422058105469,178.38986206054688,9.78157329559326,0.04578847065568,-0.32055914402008,-3.06669878959656,-7.18235301971436,-2.14122200012207
334,1988667634,170.40592956542969,-87.26190185546875,178.80293273925781,9.73222827911377,0.08709416538477,-0.33071026206017,-2.64740586280823,-7.71308612823486,-2.22857379913330
335,1988684301,169.92428588867188,-87.10808563232422,179.21755981445312,9.73411941528320,0.10695691406727,-0.30588456988335,-3.37966728210449,-8.36407947540283,-2.45719981193542
336,1988700968,169.40504455566406,-86.94969940185547,179.62280273437500,9.74506282806396,0.15246464312077,-0.39016956090927,-5.27192831039429,-8.61706352233887,-2.67059874534607
337,1988717635,168.88342285156250,-86.78234863281250,-179.96369934082031,9.77112865447998,0.03980095311999,-0.42871397733688,-5.57159662246704,-9.08782482147217,-2.91299748420715
338,1988734302,168.42236328125000,-86.60990905761719,-179.60748291015625,9.76479148864746,0.05399728938937,-0.51939839124680,-5.01113939285278,-9.38863277435303,-2.95313239097595
339,1988750969,167.94770812988281,-86.43196105957031,-179.20658874511719,9.73273086547852,0.09977472573519,-0.53474539518356,-4.21330356597900,-9.65579891204834,-3.26404500007629
340,1988767636,167.47927856445312,-86.24923706054688,-178.83151245117188,9.72093200683594,0.10263014584780,-0.54504245519638,-4.57509613037109,-9.91448783874512,-3.43594455718994
341,1988784303,167.02787780761719,-86.05821990966797,-178.47009277343750,9.73181819915771,0.13006946444511,-0.52289313077927,-4.52380704879761,-10.34857463836670,-3.63288211822510
342,1988800970,166.51831054687500,-85.86630249023438,-178.07325744628906,9.79142570495605,0.15640661120415,-0.55666339397430,-5.56294012069702,-10.32570171356201,-3.97641229629517
343,1988817637,166.00921630859375,-85.66744995117188,-177.68515014648438,9.76511955261230,0.11083190888166,-0.63161003589630,-5.60167932510376,-10.68248558044434,-4.24802160263062
344,1988834304,165.48838806152344,-85.46499633789062,-177.27590942382812,9.75207138061523,0.17904511094093,-0.58817017078400,-5.47558832168579,-10.79135322570801,-4.54072427749634
345,1988850971,164.89730834960938,-85.25628662109375,-176.85340881347656,9.71812343597412,0.18538071215153,-0.72140169143677,-7.35751485824585,-11.04552936553955,-5.01564216613770
346,1988867638,164.35797119140625,-85.03912353515625,-176.46144104003906,9.71775341033936,0.16652554273605,-0.74592590332031,-6.89717912673950,-11.52045345306396,-5.14660072326660
347,1988884305,163.87982177734375,-84.81185913085938,-176.09176635742188,9.70799255371094,0.12672784924507,-0.76640933752060,-6.14697551727295,-12.09533596038818,-5.26087760925293
348,1988900972,163.45448303222656,-84.57038879394531,-175.77787780761719,9.67098426818848,0.23105260729790,-0.75132191181183,-5.26610898971558,-12.90224742889404,-5.47897672653198
349,1988917639,163.04486083984375,-84.31286621093750,-175.47846984863281,9.64711380004883,0.28540113568306,-0.68136924505234,-5.83292579650879,-13.80712699890137,-5.79533863067627
350,1988934306,162.62054443359375,-84.03704833984375,-175.20031738281250,9.68628025054932,0.33734247088432,-0.68861639499664,-7.73154783248901,-14.81917953491211,-6.20345401763916
351,1988950973,162.18223571777344,-83.74761962890625,-174.94616699218750,9.72231674194336,0.38489696383476,-0.74394547939301,-10.01342582702637,-15.56465244293213,-6.49567031860352
352,1988967640,161.79872131347656,-83.44483184814453,-174.74534606933594,9.72300052642822,0.21910892426968,-0.90055072307587,-9.91158962249756,-16.37300300598145,-6.59584188461304
353,1988984307,161.47207641601562,-83.13082122802734,-174.58561706542969,9.67169952392578,0.28024682402611,-0.96300399303436,-8.95788288116455,-17.03094291687012,-6.69732809066772
354,1989000974,161.11332702636719,-82.81157684326172,-174.39230346679688,9.68611145019531,0.46901491284370,-1.01849722862244,-9.28172969818115,-17.21138191223145,-7.14261770248413
355,1989017641,160.65399169921875,-82.49985504150391,-174.17466735839844,9.66922092437744,0.57001024484634,-1.19897234439850,-13.48566246032715,-16.63053512573242,-7.40040588378906
356,1989034308,160.12135314941406,-82.19989013671875,-173.93145751953125,9.65516948699951,0.43289256095886,-1.32094335556030,-16.37042808532715,-15.81365680694580,-7.57205104827881
357,1989050975,159.59025573730469,-81.92100524902344,-173.65332031250000,9.71069717407227,0.30169093608856,-1.52696466445923,-14.21183013916016,-14.43080520629883,-7.62916517257690
358,1989067642,159.07212829589844,-81.65625762939453,-173.36851501464844,9.76391506195068,0.64769488573074,-1.36794996261597,-13.05049419403076,-13.50854110717773,-7.58959102630615
359,1989084309,158.44705200195312,-81.41265869140625,-173.05142211914062,9.73200702667236,0.70330882072449,-1.43337810039520,-17.56264686584473,-12.11476421356201,-7.60489749908447
360,1989100976,157.78610229492188,-81.18590545654297,-172.70114135742188,9.64626216888428,0.32295566797256,-1.56907165050507,-17.75871467590332,-10.94870567321777,-7.72078275680542
361,1989117643,157.12483215332031,-80.96717071533203,-172.31915283203125,9.61849594116211,0.55587464570999,-1.49844586849213,-15.90676307678223,-10.27203941345215,-8.01751708984375
362,1989134310,156.37602233886719,-80.75975799560547,-171.91516113281250,9.71664714813232,0.73550158739090,-1.45803356170654,-19.87116432189941,-9.42657947540283,-8.15045070648193
363,1989150977,155.59298706054688,-80.56252288818359,-171.48883056640625,9.60618019104004,0.48277410864830,-1.59852874279022,-20.61605834960938,-8.63042068481445,-8.30936527252197
364,1989167644,154.95358276367188,-80.36838531494141,-171.06863403320312,9.65616989135742,0.19216822087765,-1.70443665981293,-12.31270313262939,-8.33957958221436,-8.37694835662842
365,1989184311,154.38108825683594,-80.17839813232422,-170.65596008300781,9.74720764160156,0.90809911489487,-1.38584160804749,-8.80912303924561,-8.02438831329346,-8.36302757263184
366,1989200978,153.66477966308594,-79.99411773681641,-170.24481201171875,9.68123340606689,1.16620242595673,-1.36368012428284,-17.57719039916992,-7.59698057174683,-8.36097049713135
367,1989217645,152.98097229003906,-79.82061767578125,-169.85464477539062,9.62782382965088,0.52411264181137,-1.72413194179535,-16.84960937500000,-6.96825218200684,-8.04111862182617
368,1989234312,152.48849487304688,-79.65753936767578,-169.50076293945312,9.78300285339355,0.67401355504990,-1.70288217067719,-7.53378677368164,-6.47640419006348,-7.54597759246826
369,1989250979,152.00759887695312,-79.49868774414062,-169.14926147460938,9.68740177154541,0.68227487802505,-1.53834640979767,-6.98452186584473,-6.17311191558838,-7.51813697814941
370,1989267646,151.47994995117188,-79.34008026123047,-168.80134582519531,9.76552486419678,1.16314041614532,-1.39065945148468,-10.01366329193115,-6.08385324478149,-7.58570528030396
371,1989284313,150.86242675781250,-79.19216156005859,-168.46165466308594,9.70736312866211,0.82143807411194,-1.72259271144867,-15.90080165863037,-5.45467805862427,-7.30585050582886
372,1989300980,150.50099182128906,-79.04520416259766,-168.18766784667969,9.56605529785156,0.75239974260330,-1.72818279266357,-4.41761589050293,-5.68015575408936,-6.72558975219727
373,1989317647,150.12834167480469,-78.90314483642578,-167.92559814453125,9.42073249816895,1.19947814941406,-1.44805014133453,-5.80165004730225,-5.42554044723511,-6.53518533706665
374,1989334314,149.73202514648438,-78.75451660156250,-167.70967102050781,9.55718421936035,1.11668491363525,-1.51042473316193,-9.94494342803955,-5.97163009643555,-6.34215688705444
375,1989350981,149.35525512695312,-78.59112548828125,-167.58706665039062,9.72365570068359,1.30192971229553,-1.37012207508087,-14.26772785186768,-7.23181104660034,-5.91689157485962
376,1989367648,149.09500122070312,-78.41822814941406,-167.58563232421875,9.66620826721191,1.09815812110901,-1.34728920459747,-14.40471744537354,-8.41613006591797,-5.02273845672607
377,1989384315,148.93132019042969,-78.24252319335938,-167.65876770019531,9.60896682739258,0.92918348312378,-1.53475368022919,-12.99302673339844,-9.00907039642334,-4.36807060241699
378,1989400982,148.87812805175781,-78.05057525634766,-167.78955078125000,9.60472488403320,1.17884433269501,-1.42117965221405,-9.74667644500732,-10.20271110534668,-4.26578521728516
379,1989417649,148.81039428710938,-77.84930419921875,-167.97190856933594,9.62117576599121,1.30229282379150,-1.57752025127411,-13.63681888580322,-11.03465461730957,-3.99626421928406
380,1989434316,148.85250854492188,-77.64956665039062,-168.19607543945312,9.65422534942627,0.71633476018906,-1.81662642955780,-9.49294662475586,-11.24541950225830,-3.46081662178040
381,1989450983,149.02986145019531,-77.45013427734375,-168.42645263671875,9.64408969879150,0.98861861228943,-1.68711745738983,-1.73115026950836,-11.30216026306152,-3.32141804695129
382,1989467650,149.14320373535156,-77.25342559814453,-168.64212036132812,9.58760547637939,1.06793940067291,-1.83278334140778,-4.70330095291138,-11.08960056304932,-3.33001136779785
383,1989484317,149.26757812500000,-77.04577636718750,-168.87644958496094,9.53777790069580,1.18571627140045,-1.68788528442383,-5.11959743499756,-11.82098484039307,-3.39505481719971
384,1989500984,149.48582458496094,-76.82276153564453,-169.15863037109375,9.42582798004150,1.16418218612671,-1.68089103698730,-2.26904320716858,-12.98106193542480,-3.22501230239868
385,1989517651,149.68856811523438,-76.58251953125000,-169.44818115234375,9.45186519622803,1.04133081436157,-1.68871665000916,-3.61862826347351,-13.96299171447754,-3.54844999313354
386,1989534318,149.88803100585938,-76.31890106201172,-169.74314880371094,9.55932521820068,0.98669296503067,-1.75067746639252,-4.11356353759766,-15.27181148529053,-4.07782125473022
387,1989550985,150.09603881835938,-76.02389526367188,-170.04331970214844,9.48371028900146,0.92177569866180,-1.70458757877350,-3.88144254684448,-16.99526023864746,-4.82548904418945
388,1989567652,150.32907104492188,-75.70601654052734,-170.34918212890625,9.52388572692871,1.11620020866394,-1.76274967193604,-2.68713402748108,-18.29569816589355,-5.28783798217773
389,1989584319,150.56341552734375,-75.37521362304688,-170.67395019531250,9.64153289794922,1.32015347480774,-1.95932793617249,-3.68609523773193,-19.17333412170410,-5.25486183166504
390,1989600986,150.90794372558594,-75.03276824951172,-171.04183959960938,9.47353363037109,1.28035593032837,-1.99968504905701,0.45864084362984,-20.20221138000488,-4.83067703247070
391,1989617653,151.33000183105469,-74.66570281982422,-171.43603515625000,9.40983295440674,1.06835019588470,-2.02481698989868,3.61504673957825,-21.78049659729004,-4.92291641235352
392,1989634320,151.79924011230469,-74.26074981689453,-171.88070678710938,9.50228023529053,1.21142792701721,-1.77716982364655,3.57431125640869,-24.28597259521484,-4.98633670806885
393,1989650987,152.30541992187500,-73.80546569824219,-172.35383605957031,9.46443080902100,1.07685470581055,-1.80078172683716,4.20253705978394,-27.30878067016602,-5.60455989837646
394,1989667654,152.89634704589844,-73.28675842285156,-172.86422729492188,9.41503715515137,1.05388450622559,-2.00126719474792,7.21309471130371,-31.13733291625977,-6.32271099090576
395,1989684321,153.46879577636719,-72.71374511718750,-173.40490722656250,9.38274288177490,1.34547603130341,-2.00060367584229,4.44548177719116,-34.47611618041992,-6.74489116668701
396,1989700988,154.13677978515625,-72.07891845703125,-173.99397277832031,9.31849288940430,1.37279367446899,-2.04185223579407,7.51578760147095,-38.41346359252930,-6.92510986328125
397,1989717655,154.78109741210938,-71.40158081054688,-174.58041381835938,9.39125347137451,1.36916673183441,-2.35991740226746,6.36646652221680,-40.93867111206055,-7.27453851699829
398,1989734322,155.45593261718750,-70.69481658935547,-175.18815612792969,9.36471462249756,1.32311367988586,-2.45946025848389,7.12605762481689,-42.97197341918945,-6.79896306991577
399,1989750989,156.15365600585938,-69.95310211181641,-175.79631042480469,9.52713394165039,1.42332530021667,-2.60296463966370,8.62637233734131,-45.14398956298828,-6.73060083389282
400,1989767656,156.81004333496094,-69.17710113525391,-176.37831115722656,9.52265548706055,1.53871190547943,-2.66351270675659,7.78453159332275,-47.07670211791992,-7.10032749176025
401,1989784323,157.53692626953125,-68.37561798095703,-176.95530700683594,9.39424896240234,1.17368388175964,-3.05169868469238,12.46534061431885,-48.70605850219727,-6.80547714233398
402,1989800990,158.24517822265625,-67.55585479736328,-177.52655029296875,9.51735496520996,1.47870206832886,-3.26206421852112,11.84858512878418,-49.92485427856445,-6.29857444763184
403,1989817657,159.00267028808594,-66.71032714843750,-178.09120178222656,9.71635532379150,0.99092620611191,-3.45854902267456,15.35563182830811,-51.56052017211914,-5.93177032470703
404,1989834324,159.82640075683594,-65.78801727294922,-178.63015747070312,10.06579017639160,0.68659460544586,-3.21685957908630,20.94869232177734,-55.90466690063477,-6.96552515029907
405,1989850991,160.77685546875000,-64.70484924316406,-179.14802551269531,11.04301643371582,0.61564296483994,-2.59034228324890,29.93076705932617,-65.09513854980469,-9.35922050476074
406,1989867658,161.99435424804688,-63.35820770263672,-179.65052795410156,12.28787994384766,-0.05705226957798,-1.80013847351074,47.06082534790039,-80.31031799316406,-12.98085689544678
407,1989884325,163.83091735839844,-61.60800552368164,179.85745239257812,13.11453056335449,-0.15554654598236,0.38215500116348,85.12158966064453,-103.91365814208984,-17.52218055725098
408,1989900992,164.99345397949219,-59.45863342285156,179.52308654785156,14.66225051879883,1.09149575233459,0.74509119987488,53.39740753173828,-126.40478515625000,-24.85240936279297
409,1989917659,166.44935607910156,-56.96162414550781,179.32749938964844,17.69922637939453,-2.60206198692322,-0.57619267702103,78.48484039306641,-146.26466369628906,-30.66632461547852
410,1989934326,167.28694152832031,-54.60850906372070,179.76264953613281,23.48954391479492,-3.44611549377441,7.53785133361816,72.95750427246094,-133.71762084960938,-46.08509826660156
411,1989950993,168.22549438476562,-52.13451385498047,-179.74913024902344,24.63597679138184,-1.90024948120117,3.26384496688843,80.93365478515625,-140.94003295898438,-48.27774810791016
412,1989967660,170.11882019042969,-48.01948165893555,-179.87667846679688,21.52328872680664,7.71297359466553,-4.69264554977417,108.79775238037109,-243.03976440429688,-41.27753448486328
413,1989984327,169.14739990234375,-44.01216888427734,-179.51350402832031,15.23339557647705,3.98562026023865,-10.16644477844238,-41.45286178588867,-233.40518188476562,-57.86687469482422
414,1990000994,171.91725158691406,-40.73369216918945,-179.18370056152344,9.90126609802246,-13.30586624145508,-8.42204570770264,180.60726928710938,-191.26599121093750,-46.49367904663086
415,1990017661,178.45835876464844,-38.16272735595703,-179.14009094238281,2.85837292671204,0.60711520910263,1.08659994602203,395.16793823242188,-153.25469970703125,-14.67655658721924
416,1990034328,-178.76539611816406,-36.49466705322266,-178.90798950195312,-3.83056449890137,3.26772761344910,7.89210271835327,176.11929321289062,-99.69653320312500,-11.04460525512695
417,1990050995,-178.30383300781250,-35.94610595703125,-178.36610412597656,-9.10349750518799,3.13445591926575,13.99488353729248,48.02205657958984,-33.20995330810547,-25.07241058349609
418,1990067662,-178.85623168945312,-36.73882675170898,-177.51184082031250,-12.70521926879883,3.00438356399536,19.08859062194824,-1.64241170883179,46.88409423828125,-42.14367294311523
419,1990084329,-179.71389770507812,-38.79809570312500,-176.46020507812500,-13.63958263397217,2.82240653038025,20.20023918151855,-11.67544174194336,123.27790832519531,-51.10734176635742
420,1990100996,178.60960388183594,-41.98667144775391,-175.36370849609375,-16.10609245300293,0.83915084600449,19.91893577575684,-56.78826904296875,192.13706970214844,-47.95703887939453
421,1990117663,176.61999511718750,-46.01411819458008,-174.30247497558594,-16.12832069396973,-1.64532172679901,15.62202262878418,-73.94511413574219,243.68968200683594,-35.40720748901367
422,1990134330,174.12944030761719,-50.59486770629883,-173.41532897949219,-14.89255046844482,-3.09969305992126,7.81650781631470,-108.45865631103516,277.15994262695312,-12.83080291748047
423,1990150997,172.14025878906250,-55.40743255615234,-172.84111022949219,-13.39966964721680,-2.75757455825806,1.29422473907471,-90.62066650390625,289.52297973632812,14.22489261627197
424,1990167664,170.35955810546875,-60.25928497314453,-172.46061706542969,-9.51560306549072,0.71983140707016,-6.04622983932495,-86.31203460693359,289.93801879882812,32.56394195556641
425,1990184331,168.47349548339844,-64.70192718505859,-172.61347961425781,-2.64098691940308,0.74109202623367,-14.73757553100586,-120.10836029052734,261.63427734375000,53.42045974731445
426,1990200998,168.81198120117188,-68.21887969970703,-174.32038879394531,9.47712707519531,6.06677722930908,-18.37350463867188,-72.47306823730469,199.20439147949219,81.94925689697266
427,1990217665,167.95948791503906,-70.36960601806641,-177.10449218750000,14.75989627838135,11.96090602874756,-16.56141090393066,-206.26873779296875,114.91014862060547,84.13306427001953
428,1990234332,167.99125671386719,-71.40229797363281,179.46412658691406,8.90930080413818,1.22986137866974,-13.69574546813965,-191.49017333984375,46.97423934936523,79.15157318115234
429,1990250999,172.05665588378906,-71.87187194824219,175.60639953613281,4.91965961456299,10.38521957397461,-39.98135375976562,25.36577033996582,15.55214595794678,76.99092102050781
430,1990267666,-177.13180541992188,-63.11617279052734,171.49559020996094,36.06278228759766,28.29757499694824,-91.25300598144531,420.41662597656250,-528.44702148437500,71.51399993896484
431,1990284333,168.31753540039062,-60.42878723144531,172.40768432617188,42.41030502319336,11.14869594573975,61.32670974731445,-823.47436523437500,-158.57348632812500,-37.93616485595703
432,1990301000,172.22259521484375,-57.75638198852539,170.81120300292969,107.19435119628906,-21.47540855407715,-35.19436645507812,153.21678161621094,-165.81315612792969,21.77061843872070
433,1990317667,-178.50030517578125,-54.48902893066406,168.40547180175781,33.75938796997070,-11.38694858551025,19.36214447021484,437.72369384765625,-199.74043273925781,69.98875427246094
434,1990334334,177.50366210937500,-51.81709289550781,169.17176818847656,-5.99253082275391,-10.11130905151367,-20.33245468139648,-201.78146362304688,-159.59278869628906,-28.65589523315430
435,1990351001,179.72703552246094,-49.84204483032227,169.61460876464844,-7.31094837188721,5.30868721008301,-6.35985469818115,155.10954284667969,-117.56837463378906,-19.33764648437500
436,1990367668,-179.15084838867188,-48.43546676635742,170.14212036132812,-3.40228748321533,-8.75872993469238,-12.99512195587158,92.38935089111328,-83.99119567871094,-19.97201347351074
437,1990384335,-179.67579650878906,-47.58043289184570,169.92445373535156,10.15097332000732,-1.99601650238037,-11.54807090759277,-40.07812118530273,-50.69785690307617,9.56434249877930
438,1990401002,179.82731628417969,-47.25173950195312,169.60183715820312,13.28942298889160,0.67394101619720,-10.14635181427002,-42.94474029541016,-19.19668006896973,13.42521286010742
439,1990417669,178.75204467773438,-47.47772979736328,169.28056335449219,14.02272319793701,-3.57088470458984,-11.72792625427246,-77.57150268554688,13.90115737915039,13.52520465850830
440,1990434336,178.95573425292969,-48.27401733398438,168.75648498535156,14.17234802246094,-2.66663408279419,-12.86478996276855,-9.98097229003906,47.84453582763672,22.34069061279297
441,1990451003,178.50790405273438,-49.81439971923828,168.22103881835938,13.97846698760986,1.45508801937103,-10.52753257751465,-50.01305770874023,92.42917633056641,23.39483451843262
442,1990467670,178.71850585937500,-52.14853286743164,167.49070739746094,13.54091739654541,1.14813005924225,-12.98692417144775,-20.29363632202148,139.82754516601562,31.26736640930176
443,1990484337,178.09974670410156,-55.77999114990234,166.93853759765625,16.68655967712402,2.83655118942261,-13.11486244201660,-62.78477859497070,217.74783325195312,25.83211135864258
444,1990501004,176.91361999511719,-61.33947753906250,166.73846435546875,24.86479759216309,-4.54114532470703,-14.70257854461670,-80.23109436035156,333.46185302734375,21.06816482543945
445,1990517671,178.57087707519531,-68.49903106689453,165.96922302246094,40.69905471801758,-9.34430313110352,-12.81625461578369,58.59877395629883,428.92126464843750,36.77623367309570
446,1990534338,-173.39323425292969,-77.47194671630859,159.47640991210938,56.78575515747070,-6.64549636840820,-4.00360393524170,109.35563659667969,542.57086181640625,89.94944000244141
447,1990551005,-128.47732543945312,-84.81390380859375,116.70628356933594,36.08234405517578,-4.18946599960327,-12.74214744567871,152.67335510253906,546.83258056640625,138.90228271484375
448,1990567672,-81.97805786132812,-86.60211944580078,70.40665435791016,-8.35219001770020,47.93934631347656,-19.57533264160156,19.72892570495605,221.81753540039062,-41.55287170410156
449,1990584339,-100.34130859375000,-86.86038208007812,92.21421051025391,-19.11068916320801,-15.50793552398682,-17.89589881896973,205.71635437011719,-73.55790710449219,-16.36592483520508
450,1990601006,-148.48236083984375,-84.19009399414062,141.24961853027344,-3.18849682807922,12.26203918457031,-6.37790107727051,47.54370498657227,-265.73571777343750,-5.57982206344604
451,1990617673,-164.49536132812500,-79.22904968261719,158.18109130859375,6.00046110153198,-2.54702472686768,-1.29135501384735,46.64645004272461,-327.65899658203125,-16.19382286071777
452,1990634340,-172.48181152343750,-74.25631713867188,166.76156616210938,9.45527744293213,6.10594034194946,17.14209365844727,23.54452323913574,-314.57583618164062,-55.93964004516602
453,1990651007,-179.57582092285156,-71.79313659667969,170.09857177734375,2.82339787483215,-3.97701549530029,24.92354202270508,-232.91259765625000,-150.95449829101562,-47.76718902587891
454,1990667674,176.40859985351562,-72.22215270996094,170.20407104492188,2.94301414489746,-0.65190410614014,10.26034641265869,-233.77174377441406,26.26544761657715,-0.92513197660446
455,1990684341,177.17304992675781,-74.57196044921875,168.15626525878906,0.39217352867126,-14.67427825927734,10.27393150329590,-70.75598144531250,139.24385070800781,43.26283645629883
456,1990701008,-176.33740234375000,-78.07386779785156,164.68222045898438,2.00898909568787,-10.81129932403564,5.21604061126709,187.80546569824219,210.84809875488281,48.06404876708984
457,1990717675,-166.39768981933594,-81.83964538574219,159.12295532226562,2.43260574340820,0.81414830684662,4.79844951629639,268.76641845703125,232.33206176757812,23.94252395629883
458,1990734342,-154.41439819335938,-85.04291534423828,150.32568359375000,0.17498290538788,5.46145248413086,0.11873145401478,195.46186828613281,201.14384460449219,-7.15151929855347
459,1990751009,-134.28263854980469,-87.20229339599609,131.46708679199219,0.01771396771073,4.41621637344360,-1.76833045482635,79.85391998291016,148.62863159179688,-12.05603981018066
460,1990767676,-93.09827423095703,-88.13670349121094,89.50484466552734,-0.17406409978867,-0.14858222007751,-1.51151323318481,-43.71804046630859,113.52136230468750,-6.98173284530640
461,1990784343,-56.45238876342773,-87.77577972412109,51.62251663208008,0.19597423076630,-3.64902377128601,-3.49315500259399,-71.73927307128906,83.10929107666016,-1.05743956565857
462,1990801010,-40.38493347167969,-87.04939270019531,35.23280334472656,1.51005148887634,-4.79135227203369,-2.71393918991089,-17.23363304138184,62.24277114868164,2.97091865539551
463,1990817677,-31.99625778198242,-86.09535217285156,27.19425582885742,2.65095925331116,-3.37766242027283,-1.90330386161804,22.98972320556641,63.53975296020508,10.63636112213135
464,1990834344,-26.72148513793945,-84.93349456787109,22.46025085449219,2.42911314964294,-2.02867317199707,-2.03144621849060,34.43580627441406,72.02647399902344,15.01224517822266
465,1990851011,-22.43478202819824,-83.68847656250000,19.18212509155273,1.37002849578857,-1.54671394824982,-2.00425982475281,62.60194778442383,76.46544647216797,13.57792854309082
466,1990867678,-19.12046241760254,-82.45430755615234,16.81628417968750,0.57348626852036,0.29636338353157,-1.50859141349792,59.06544876098633,75.76444244384766,10.51847076416016
467,1990884345,-17.20219612121582,-81.31280517578125,15.30054759979248,-0.02133366093040,0.72095173597336,-1.42592370510101,26.18820953369141,69.56082153320312,9.42262554168701
468,1990901012,-16.22644615173340,-80.30986022949219,14.29679203033447,-0.32144099473953,0.46027076244354,-2.02355313301086,0.22033616900444,60.89165115356445,8.37601375579834
469,1990917679,-15.84153270721436,-79.45928955078125,13.55333232879639,0.28348621726036,0.54518753290176,-2.05566310882568,-19.69072532653809,51.71061325073242,6.84949970245361
470,1990934346,-16.05125808715820,-78.67417144775391,13.10731697082520,0.67707175016403,0.15630944073200,-2.31374669075012,-37.72842407226562,47.19125366210938,8.34656429290771
471,1990951013,-16.38124275207520,-77.96871185302734,12.80769157409668,0.44138446450233,-0.42174625396729,-1.96784031391144,-36.27497863769531,42.16854476928711,8.61300563812256
472,1990967680,-16.49862289428711,-77.38842010498047,12.40577602386475,-0.29585760831833,0.03078670799732,-1.83743119239807,-29.47183990478516,35.36713027954102,5.20625638961792
473,1990984347,-17.02066802978516,-77.09055328369141,12.27849674224854,-0.49460035562515,-1.05253732204437,-4.12006902694702,-37.64176559448242,18.11875152587891,3.82749557495117
474,1991001014,-18.07270050048828,-77.27103424072266,12.93396472930908,-1.68700146675110,-1.46146869659424,-6.07839918136597,-23.64270210266113,-12.42511653900146,5.34780454635620
475,1991017681,-20.55533409118652,-78.05073547363281,14.81821537017822,-2.42047166824341,-0.13741834461689,-6.83206129074097,-37.38223266601562,-51.59540176391602,7.62393569946289
476,1991034348,-25.60939598083496,-79.55098724365234,18.77011871337891,-2.38895606994629,0.10370650887489,-7.47476911544800,-69.48979187011719,-100.26246643066406,7.39493513107300
477,1991051015,-35.58478927612305,-81.75733947753906,27.34494590759277,-0.85275691747665,0.04827488586307,-8.17827224731445,-89.60748291015625,-155.57034301757812,4.98979997634888
478,1991067682,-57.50885391235352,-84.24585723876953,47.74070739746094,1.34775924682617,0.50010913610458,-6.81842184066772,-99.20055389404297,-208.22230529785156,-4.25299882888794
479,1991084349,-115.66143035888672,-84.82698822021484,104.68069458007812,13.65167617797852,-5.90574407577515,-56.66607284545898,-84.60531616210938,-313.16760253906250,-11.70526123046875
480,1991101016,-161.55035400390625,-76.82476806640625,157.22070312500000,41.46241760253906,34.68247222900391,1.71759462356567,370.66168212890625,-644.20800781250000,-79.61676025390625
481,1991117683,-176.07797241210938,-73.76775360107422,163.07922363281250,37.39206695556641,2.09597301483154,33.37484359741211,-530.20385742187500,-196.62054443359375,-51.70066452026367
482,1991134350,-174.50541687011719,-68.81561279296875,162.82330322265625,109.98925018310547,-25.97434806823730,25.62007331848145,80.87543487548828,-295.16000366210938,29.62865447998047
483,1991151017,-176.03594970703125,-65.69531250000000,161.87458801269531,8.58761978149414,17.26071357727051,-17.32942581176758,-143.18168640136719,-184.25988769531250,37.68183898925781
484,1991167684,179.39993286132812,-63.74145889282227,161.55366516113281,8.16638660430908,-19.53745269775391,-14.99530696868896,-290.08801269531250,-116.46718597412109,11.98969459533691
485,1991184351,-177.54238891601562,-63.40021896362305,162.01921081542969,-25.44130706787109,-0.57512193918228,-20.76288795471191,209.59255981445312,-20.17084503173828,-11.79561424255371
486,1991201018,-178.85726928710938,-64.30371856689453,164.35906982421875,-2.08367705345154,-5.32470989227295,-16.16079139709473,48.25882720947266,52.74465179443359,-63.23582458496094
487,1991217685,-178.48954772949219,-65.88869476318359,166.01062011718750,12.71266078948975,-7.07270431518555,-10.42077064514160,113.05963897705078,94.62252044677734,-43.62274169921875
488,1991234352,-179.06654357910156,-67.71755218505859,166.52101135253906,12.81862163543701,6.29377937316895,-4.83187961578369,-5.34722900390625,109.96430206298828,-14.10956001281738
489,1991251019,179.38818359375000,-69.60549926757812,167.08517456054688,10.45011997222900,3.65964698791504,-5.03862333297729,-60.05322265625000,113.75714874267578,-12.33954715728760
490,1991267686,179.11927795410156,-71.52665710449219,167.84339904785156,8.93426513671875,0.95912259817123,-5.49543666839600,27.89410972595215,115.96963500976562,-13.33560848236084
491,1991284353,-179.71588134765625,-73.42800903320312,168.10173034667969,8.21541500091553,1.48934745788574,-3.65559768676758,85.78793334960938,114.61862182617188,-3.77358651161194
492,1991301020,-178.34748840332031,-75.37521362304688,167.63879394531250,8.68666839599609,3.51516318321228,-2.40783548355103,56.46622467041016,117.45117187500000,5.79565048217773
493,1991317687,-176.57527160644531,-77.35357666015625,166.45938110351562,8.41791915893555,2.24053001403809,-2.62882328033447,38.67512512207031,119.82286834716797,11.71605873107910
494,1991334354,-173.74792480468750,-79.25785064697266,164.35926818847656,11.34768104553223,-4.52068471908569,-2.13274765014648,47.35536193847656,116.49037933349609,16.12446403503418
495,1991351021,-167.72108459472656,-80.75411987304688,160.05010986328125,13.31633186340332,-2.84910130500793,2.51251792907715,108.07439422607422,96.26939392089844,30.14612960815430
496,1991367688,-163.37715148925781,-82.14360046386719,155.67289733886719,9.39645385742188,1.60699689388275,3.40787696838379,2.03008556365967,90.91345977783203,17.33472442626953
497,1991384355,-158.60412597656250,-83.25805664062500,150.78768920898438,8.69845199584961,-0.23333828151226,-0.21188195049763,-3.23852467536926,75.78312683105469,13.76331615447998
498,1991401022,-151.25579833984375,-84.02240753173828,143.65711975097656,8.51307392120361,0.54019814729691,-0.15382507443428,16.81118011474609,62.02614974975586,23.84333038330078
499,1991417689,-142.88479614257812,-84.48569488525391,135.66552734375000,8.18574428558350,0.79534739255905,0.78050708770752,26.28722953796387,49.87747955322266,25.52346038818359
500,1991434356,-134.51243591308594,-84.74069976806641,127.93170928955078,9.22017383575439,0.36241871118546,1.26014935970306,41.48166275024414,40.72143936157227,22.97056961059570
501,1991451023,-127.55738830566406,-84.89048004150391,121.11447143554688,9.53310966491699,-0.09093323349953,1.98211228847504,11.06221294403076,34.28964614868164,17.81665420532227
502,1991467690,-122.42708587646484,-84.96931457519531,115.80305480957031,9.25589942932129,-1.93890833854675,0.39984044432640,-8.49397373199463,26.30808067321777,12.59969615936279
503,1991484357,-118.70507049560547,-84.99047088623047,112.25294494628906,9.41333770751953,-1.53728652000427,0.61176121234894,12.25744438171387,17.22589492797852,8.69553279876709
504,1991501024,-116.31272888183594,-84.98870849609375,109.95896148681641,9.37883377075195,-0.90899199247360,0.68813902139664,7.55405426025391,11.13709449768066,5.95578289031982
505,1991517691,-113.93775177001953,-85.05399322509766,107.37696075439453,9.89959335327148,-0.73819571733475,0.95756918191910,-10.71024513244629,14.36446857452393,2.46968817710876
506,1991534358,-111.67338562011719,-85.15289306640625,104.90831756591797,9.57032203674316,-1.23172068595886,-0.89133697748184,-10.58755874633789,14.48231315612793,-0.26696145534515
507,1991551025,-110.31710815429688,-85.19686126708984,103.44751739501953,9.42880153656006,-0.46004652976990,0.05310411006212,-4.83315658569336,8.35103034973145,0.48420181870461
508,1991567692,-109.95896911621094,-85.21025848388672,102.86856842041016,9.46751022338867,-0.55556195974350,-0.20896080136299,-12.00059223175049,3.51755332946777,0.55837631225586
509,1991584359,-110.17584228515625,-85.18074035644531,102.92675781250000,9.75194549560547,-0.70941329002380,-0.45769241452217,-8.40683364868164,-0.36418709158897,1.85898947715759
510,1991601026,-110.26971435546875,-85.12484741210938,102.96035003662109,9.88100528717041,-0.72793656587601,-0.51909065246582,-2.49530458450317,-0.80094760656357,3.38532662391663
511,1991617693,-109.41860961914062,-85.10498809814453,101.96990966796875,10.06854534149170,-0.45207443833351,-0.49850821495056,-7.01666498184204,4.87742137908936,3.14025259017944
512,1991634360,-107.51647949218750,-85.11016082763672,99.92739105224609,9.91777801513672,-1.36419606208801,-1.22405493259430,-6.84907102584839,10.53397846221924,3.32849383354187
513,1991651027,-105.24646759033203,-85.09915161132812,97.74935913085938,9.91128063201904,-1.13982152938843,-0.87192499637604,7.12121200561523,11.03808879852295,4.09035682678223
514,1991667694,-103.03092956542969,-85.07260131835938,95.70365142822266,9.65754604339600,-0.82416915893555,-0.13775314390659,11.76610660552979,10.33842849731445,4.40178346633911
515,1991684361,-100.98193359375000,-85.05795288085938,93.66674804687500,9.61406803131104,-0.62503850460052,0.07142005115747,2.30524015426636,10.62336540222168,3.36082983016968
516,1991701028,-99.14239501953125,-85.04788970947266,91.76947784423828,9.85127067565918,-0.73587697744370,0.03690180927515,-1.91228330135345,10.08867359161377,2.60189938545227
517,1991717695,-97.17391204833984,-85.04018402099609,89.71360015869141,9.90794563293457,-0.82128024101257,0.14342431724072,-3.65583014488220,11.00764560699463,2.27837228775024
518,1991734362,-95.17916107177734,-85.03126525878906,87.65851593017578,9.73725700378418,-1.03991365432739,-0.22495065629482,-2.02996087074280,11.07569694519043,1.99149680137634
519,1991751029,-93.38835144042969,-85.01167297363281,85.92364501953125,9.81073379516602,-0.78165715932846,0.15319819748402,4.87295866012573,9.44832324981689,2.13393568992615
520,1991767696,-91.95788574218750,-84.99375152587891,84.53150939941406,9.75624847412109,-0.94493693113327,0.05195949226618,3.74682450294495,7.74042034149170,1.71179294586182
521,1991784363,-90.86996459960938,-84.97831726074219,83.48654174804688,9.70907592773438,-0.82922583818436,0.21803407371044,3.94501519203186,5.97479629516602,1.37588226795197
522,1991801030,-90.03975677490234,-84.96755981445312,82.58332061767578,9.69646358489990,-0.78626143932343,0.17733739316463,-3.04420375823975,5.26429367065430,0.97752141952515
523,1991817697,-89.50689697265625,-84.95414733886719,81.98361968994141,9.65664005279541,-0.91241931915283,0.14289376139641,-2.74664878845215,3.68340158462524,1.09453320503235
524,1991834364,-89.20405578613281,-84.93910980224609,81.66879272460938,9.69730758666992,-0.86973774433136,0.44668737053871,0.48098087310791,2.19007778167725,1.18842923641205
525,1991851031,-88.42189788818359,-84.94184875488281,80.74971008300781,9.92074489593506,-0.52178966999054,0.98250812292099,-6.87127447128296,5.37758636474609,0.03960365056992
526,1991867698,-87.32702636718750,-84.97313690185547,79.36031341552734,9.46980762481689,-0.69880068302155,-0.11855915188789,-16.22046470642090,7.77425098419189,-1.85206925868988
527,1991884365,-86.92658996582031,-84.99527740478516,78.72338104248047,9.61260509490967,-0.97839987277985,-0.09418420493603,-12.91627025604248,3.78935050964355,-1.18915379047394
528,1991901032,-87.06170654296875,-85.00900268554688,78.74604797363281,9.68188858032227,-1.07940626144409,0.18865020573139,-5.62550973892212,0.35236033797264,-0.51674914360046
529,1991917699,-87.55966186523438,-85.02433013916016,79.15476989746094,9.77218627929688,-0.86838036775589,0.11182559281588,-4.32118320465088,-1.65700101852417,-0.51366275548935
530,1991934366,-88.37044525146484,-85.03134918212891,79.90584564208984,9.78431224822998,-0.85465258359909,-0.07520415633917,-2.62039709091187,-3.40899920463562,0.01657781936228
531,1991951033,-89.25184631347656,-85.02326965332031,80.82321929931641,9.78399848937988,-0.86530017852783,0.02371291816235,3.07852506637573,-4.25073528289795,0.88899773359299
532,1991967700,-90.05666351318359,-85.00836944580078,81.69739532470703,9.81562709808350,-0.88244664669037,0.06278368085623,5.08841800689697,-4.04023694992065,1.22498500347137
533,1991984367,-90.61875152587891,-84.99163818359375,82.33668518066406,9.76783943176270,-0.84912359714508,0.02473902516067,5.61502838134766,-2.83786201477051,1.28281879425049
534,1992001034,-91.08022308349609,-84.97523498535156,82.87937927246094,9.78231620788574,-0.83710300922394,0.10251349955797,5.87449741363525,-2.34936380386353,1.23508942127228
535,1992017701,-91.47924804687500,-84.96219635009766,83.32773590087891,9.75500869750977,-0.75613331794739,0.31846058368683,3.98101425170898,-1.86516797542572,1.03660368919373
536,1992034368,-91.76000976562500,-84.96557617187500,83.41172027587891,9.70472049713135,-0.55323737859726,0.24472740292549,-10.69932556152344,0.07854778319597,0.07648596912622
537,1992051035,-92.25398254394531,-84.97192382812500,83.66814422607422,9.76123428344727,-0.79420143365860,-0.19298504292965,-13.18332481384277,-0.82301330566406,-0.11862527579069
538,1992067702,-92.71607208251953,-84.96709442138672,84.01442718505859,9.77795314788818,-1.05651187896729,-0.23217800259590,-5.89993667602539,-1.32182013988495,0.51565408706665
539,1992084369,-92.89849090576172,-84.95658874511719,84.20315551757812,9.88835620880127,-0.96588224172592,-0.05342671647668,1.45876502990723,-0.51003849506378,0.88273537158966
540,1992101036,-93.00138854980469,-84.94685363769531,84.28621673583984,9.80830383300781,-0.87236404418945,-0.14102463424206,-0.07877184450626,0.04692886769772,0.84751778841019
541,1992117703,-93.07730102539062,-84.93553924560547,84.37502288818359,9.76101303100586,-0.87774938344955,-0.13106375932693,1.87783348560333,0.00674894684926,0.95893955230713
542,1992134370,-93.00456237792969,-84.92205810546875,84.35408020019531,9.78159427642822,-0.95727550983429,-0.06321919709444,4.23778772354126,0.58104974031448,1.12393653392792
543,1992151037,-92.80535888671875,-84.90869140625000,84.20890808105469,9.79646873474121,-0.82742983102798,0.10561943799257,4.40685129165649,1.24474537372589,1.13986134529114
544,1992167704,-92.66938781738281,-84.90219116210938,84.03419494628906,9.74174213409424,-0.69408345222473,0.08150000870228,-1.15652847290039,1.42724823951721,0.72948157787323
545,1992184371,-92.59134674072266,-84.89354705810547,83.92162322998047,9.77822875976562,-0.95010608434677,-0.04789038002491,-0.91646718978882,1.09053754806519,0.85475987195969
546,1992201038,-92.45063781738281,-84.87910461425781,83.84581756591797,9.69128990173340,-1.00783562660217,0.01612474396825,5.03892755508423,0.88100004196167,1.18143713474274
547,1992217705,-92.38380432128906,-84.86988830566406,83.82876586914062,9.75836467742920,-0.84345245361328,0.09430152177811,4.11501312255859,0.58148509263992,0.85707783699036
548,1992234372,-92.39113616943359,-84.86405181884766,83.84741973876953,9.78295993804932,-0.83941286802292,0.01158436015248,1.80417120456696,0.39908424019814,0.64285308122635
549,1992251039,-92.36888885498047,-84.85894012451172,83.83697509765625,9.77704906463623,-0.94559323787689,-0.13679641485214,1.83478474617004,0.55636543035507,0.61381465196609
550,1992267706,-92.21718597412109,-84.84904479980469,83.77826690673828,9.82113742828369,-1.04372000694275,-0.12715686857700,6.72312355041504,0.80591017007828,0.90469849109650
551,1992284373,-91.92852783203125,-84.83934783935547,83.57167816162109,9.73693466186523,-0.69007188081741,0.24667002260685,6.09958219528198,1.60635840892792,0.92705816030502
552,1992301040,-91.78462219238281,-84.84060668945312,83.37730407714844,9.64521026611328,-0.58959043025970,0.11989521980286,-1.85238099098206,1.56608867645264,0.25612702965736
553,1992317707,-91.79224395751953,-84.83882141113281,83.37155151367188,9.71335124969482,-1.13791704177856,-0.08001419901848,0.32508280873299,0.53965318202972,0.41622558236122
554,1992334374,-91.87073516845703,-84.83309173583984,83.58239746093750,9.74515724182129,-1.11185514926910,0.00974059198052,9.01795768737793,-0.63615560531616,0.60296785831451
555,1992351041,-91.98451995849609,-84.83145904541016,83.84333038330078,9.75867366790771,-0.85304951667786,0.15595661103725,9.89459800720215,-0.90136873722076,0.35687461495399
556,1992367708,-92.24468231201172,-84.83134460449219,84.21102142333984,9.76682472229004,-0.89149618148804,0.09002880007029,7.48933410644531,-1.47563111782074,0.23586738109589
557,1992384375,-92.52757263183594,-84.83081054687500,84.66242980957031,9.71512985229492,-0.97488582134247,0.02186238206923,11.12405586242676,-1.92847061157227,0.23798692226410
558,1992401042,-92.80772399902344,-84.83149719238281,85.16861724853516,9.74277400970459,-0.89827835559845,0.01149346493185,14.56853199005127,-2.22005939483643,0.12659727036953
559,1992417709,-93.08812713623047,-84.83237457275391,85.64862060546875,9.77121257781982,-0.75500416755676,0.12724518775940,12.98489665985107,-2.07816457748413,0.11186993122101
560,1992434376,-93.33180236816406,-84.83889770507812,85.98014068603516,9.77642440795898,-0.71089828014374,-0.04304831847548,6.31668758392334,-1.25522732734680,-0.18425777554512
561,1992451043,-93.57029724121094,-84.84561920166016,86.25751495361328,9.79495811462402,-0.94502043724060,-0.15358328819275,3.39447665214539,-0.95711451768875,-0.19589231908321
562,1992467710,-93.70937347412109,-84.85052490234375,86.48697662353516,9.82599067687988,-0.91802465915680,-0.04241328686476,6.49191093444824,-0.70465028285980,-0.06480654329062
563,1992484377,-93.73288726806641,-84.85993194580078,86.57260131835938,9.76489067077637,-0.79660862684250,-0.01366339437664,4.83280897140503,0.08979811519384,-0.29701125621796
564,1992501044,-93.79755401611328,-84.86817169189453,86.67288208007812,9.72038841247559,-0.79458111524582,-0.04675945639610,3.23536419868469,0.00766460038722,-0.23310117423534
565,1992517711,-93.89739990234375,-84.87623596191406,86.81894683837891,9.75428867340088,-0.94118505716324,-0.05992443859577,3.86968898773193,-0.23954282701015,-0.22088396549225
566,1992534378,-94.04350280761719,-84.88186645507812,87.08063507080078,9.72654914855957,-0.90885174274445,-0.02478486858308,7.99649095535278,-0.86210441589355,-0.14028717577457
567,1992551045,-94.24536895751953,-84.88852691650391,87.39466094970703,9.73856925964355,-0.72284120321274,0.07134450227022,7.78224182128906,-1.13564813137054,-0.21971221268177
568,1992567712,-94.49311065673828,-84.89620208740234,87.69215393066406,9.73099803924561,-0.78580462932587,0.03598990291357,4.03885364532471,-1.03977942466736,-0.27111682295799
569,1992584379,-94.85694122314453,-84.90138244628906,88.13003540039062,9.73730182647705,-0.88186818361282,0.02290212735534,5.46681308746338,-1.79202461242676,-0.20402437448502
570,1992601046,-95.34103393554688,-84.90565490722656,88.71810913085938,9.69604778289795,-0.80471384525299,0.04465803131461,7.22603559494019,-2.59039855003357,-0.23119947314262
571,1992617713,-95.95900726318359,-84.91088104248047,89.42091369628906,9.75076866149902,-0.71640640497208,0.01895102486014,6.04953432083130,-3.18583583831787,-0.37623777985573
572,1992634380,-96.70519256591797,-84.91272735595703,90.24802398681641,9.77648448944092,-0.83048653602600,-0.03168943896890,5.78581380844116,-3.85206103324890,-0.30010405182838
573,1992651047,-97.60540771484375,-84.91242218017578,91.26577758789062,9.73741531372070,-0.90594369173050,-0.15497149527073,7.93863248825073,-4.86937904357910,-0.35083642601967
574,1992667714,-98.68997955322266,-84.90246582031250,92.57816314697266,9.72257995605469,-0.85140919685364,-0.13559836149216,14.48334312438965,-6.49932479858398,-0.09360809624195
575,1992684381,-99.87881469726562,-84.88545989990234,94.08116149902344,9.73371028900146,-0.79663681983948,-0.11543915420771,19.62120056152344,-7.58011484146118,0.00669773109257
576,1992701048,-101.16351318359375,-84.86943054199219,95.71714019775391,9.74992847442627,-0.80148410797119,-0.16880926489830,21.81178474426270,-8.28778553009033,-0.35474935173988
577,1992717715,-102.54035186767578,-84.85121154785156,97.43968963623047,9.80011844635010,-0.88948094844818,-0.20732630789280,21.45247268676758,-8.78157329559326,-0.53511434793472
578,1992734382,-103.84127807617188,-84.83214569091797,99.12151336669922,9.78991794586182,-0.92351013422012,-0.18432508409023,23.57087135314941,-8.58902740478516,-0.65965014696121
579,1992751049,-104.87010955810547,-84.82578277587891,100.45588684082031,9.90218925476074,-0.77443408966064,-0.11065354943275,19.13315010070801,-6.57807445526123,-1.12265110015869
580,1992767716,-105.47200012207031,-84.83024597167969,101.23433685302734,9.92289066314697,-0.88658970594406,-0.39880046248436,11.53005409240723,-3.48878455162048,-1.05313062667847
581,1992784383,-105.63717651367188,-84.83415222167969,101.63108825683594,9.82975292205811,-0.96381211280823,-0.39190605282784,14.92289257049561,-1.49067306518555,-0.50303381681442
582,1992801050,-105.48523712158203,-84.83449554443359,101.68972778320312,9.74883556365967,-0.75958758592606,-0.18885178864002,13.74904727935791,0.21080546081066,0.19764052331448
583,1992817717,-105.18095397949219,-84.84000396728516,101.51419067382812,9.82355785369873,-0.68660140037537,-0.07840824127197,8.89453125000000,1.51463937759399,0.23046955466270
584,1992834384,-104.82733917236328,-84.84847259521484,101.24710083007812,9.73024177551270,-0.85287630558014,-0.18452765047550,6.38069343566895,2.03297638893127,0.18983495235443
585,1992851051,-104.54794311523438,-84.85398864746094,101.04954528808594,9.70847892761230,-0.75175440311432,-0.14920635521412,6.08496332168579,1.62622737884521,0.25201615691185
586,1992867718,-104.42012023925781,-84.86248779296875,100.98451995849609,9.68664932250977,-0.79289358854294,-0.08469928801060,4.91211891174316,0.97369247674942,-0.09511916339397
587,1992884385,-104.44965362548828,-84.87042999267578,101.05822753906250,9.71232700347900,-0.79985648393631,-0.01215756312013,3.75646066665649,0.25241315364838,-0.27234625816345
588,1992901052,-104.68634033203125,-84.87711334228516,101.29512023925781,9.74712657928467,-0.77038002014160,0.01571738533676,1.08249509334564,-0.62079423666000,-0.40072986483574
589,1992917719,-105.12200927734375,-84.88274383544922,101.72608947753906,9.68639755249023,-0.73239636421204,0.00752612389624,0.74107772111893,-1.63417315483093,-0.61806631088257
590,1992934386,-105.78455352783203,-84.88293457031250,102.36038970947266,9.66793346405029,-0.66227936744690,0.00612094765529,-0.71824413537979,-2.76279091835022,-0.61255335807800
591,1992951053,-106.70732879638672,-84.88017272949219,103.21101379394531,9.71232414245605,-0.77836287021637,-0.09627947956324,-3.40564441680908,-3.90755128860474,-0.82325637340546
592,1992967720,-107.69779205322266,-84.87802886962891,104.12828826904297,9.78011512756348,-0.86002731323242,-0.11595356464386,-3.48606801033020,-4.22512245178223,-1.02886223793030
593,1992984387,-108.74452972412109,-84.87703704833984,105.09191131591797,9.77833271026611,-0.74712485074997,-0.12727543711662,-4.09060478210449,-4.41436147689819,-1.25964534282684
594,1993001054,-109.80300140380859,-84.87964630126953,106.00547790527344,9.79215145111084,-0.70473563671112,-0.21124002337456,-7.78410434722900,-4.06694555282593,-1.45117104053497
595,1993017721,-110.87739562988281,-84.88362121582031,106.91741180419922,9.75363159179688,-0.81625401973724,-0.39466953277588,-8.84005260467529,-3.98889064788818,-1.61769223213196
596,1993034388,-111.83285522460938,-84.88385009765625,107.75313568115234,9.76229000091553,-0.86370003223419,-0.42401248216629,-6.25607490539551,-3.65288972854614,-1.34140765666962
597,1993051055,-112.66494750976562,-84.88473510742188,108.51254272460938,9.81224060058594,-0.88660919666290,-0.46288999915123,-3.41486430168152,-3.23307824134827,-1.28808820247650
598,1993067722,-113.42993927001953,-84.88335418701172,109.21568298339844,9.77225112915039,-0.76295453310013,-0.39377778768539,-2.75257110595703,-2.98916816711426,-1.09180533885956
599,1993084389,-114.21733093261719,-84.88358306884766,109.92420196533203,9.71179199218750,-0.77611821889877,-0.32036268711090,-3.77483177185059,-2.95349645614624,-1.24634611606598
600,1993101056,-114.93006134033203,-84.88687896728516,110.53882598876953,9.82645130157471,-0.74255532026291,-0.30812141299248,-4.90746355056763,-2.40105605125427,-1.24468111991882
601,1993117723,-115.54544067382812,-84.89193725585938,111.05546569824219,9.82601356506348,-0.85065358877182,-0.49902051687241,-4.92044305801392,-1.85903382301331,-1.15243065357208
602,1993134390,-116.03475189208984,-84.89312744140625,111.50462341308594,9.73193454742432,-0.74635988473892,-0.41583320498466,-1.39119863510132,-1.61917734146118,-0.80881702899933
603,1993151057,-116.45337677001953,-84.89101409912109,111.89425659179688,9.74361133575439,-0.77543741464615,-0.40543773770332,-0.70432996749878,-1.41592752933502,-0.50280928611755
604,1993167724,-116.81703948974609,-84.89036560058594,112.23487854003906,9.77361965179443,-0.71507912874222,-0.33326813578606,-0.33609625697136,-1.13694131374359,-0.47656908631325
605,1993184391,-117.19364166259766,-84.89048004150391,112.57115173339844,9.76129055023193,-0.74974340200424,-0.38245761394501,-1.37472939491272,-1.09181165695190,-0.51597416400909
606,1993201058,-117.57219696044922,-84.89286041259766,112.92133331298828,9.75727939605713,-0.78434151411057,-0.33948996663094,-0.65587085485458,-1.08301365375519,-0.69076812267303
607,1993217725,-117.93914794921875,-84.89305114746094,113.25478363037109,9.75654888153076,-0.72306191921234,-0.40634876489639,-0.96114861965179,-1.06075644493103,-0.54067772626877
608,1993234392,-118.34813690185547,-84.89060211181641,113.63491821289062,9.72261333465576,-0.73931580781937,-0.40892302989960,-0.69649893045425,-1.35142850875854,-0.52646905183792
609,1993251059,-118.75492858886719,-84.88656616210938,114.01631164550781,9.74264621734619,-0.72957295179367,-0.40676432847977,-0.48652601242065,-1.40233361721039,-0.45342153310776
610,1993267726,-119.16522979736328,-84.87933349609375,114.41027069091797,9.78964138031006,-0.78553885221481,-0.42928251624107,0.05006002262235,-1.54828119277954,-0.33596816658974
611,1993284393,-119.58512878417969,-84.86859130859375,114.82012939453125,9.73937225341797,-0.72402530908585,-0.41694808006287,0.42490190267563,-1.71904122829437,-0.22021159529686
612,1993301060,-120.00412750244141,-84.86138153076172,115.21365356445312,9.78250980377197,-0.73635536432266,-0.40571773052216,-0.49490776658058,-1.54244148731232,-0.37137770652771
613,1993317727,-120.37351989746094,-84.85265350341797,115.54867553710938,9.75749111175537,-0.69213169813156,-0.44067853689194,-1.01971209049225,-1.30886662006378,-0.15538585186005
614,1993334394,-120.67185974121094,-84.84775543212891,115.81465911865234,9.75407886505127,-0.75555771589279,-0.50811856985092,-0.87888050079346,-0.87322008609772,-0.17419835925102
615,1993351061,-120.88739776611328,-84.84110260009766,116.02991485595703,9.74896717071533,-0.73943614959717,-0.51107418537140,1.05909156799316,-0.69494944810867,0.05517616122961
616,1993367728,-120.99004364013672,-84.83537292480469,116.13520812988281,9.75812435150146,-0.65256392955780,-0.48182156682014,1.26145756244659,-0.15395794808865,0.30680811405182
617,1993384395,-121.04562377929688,-84.83002471923828,116.18269348144531,9.75129795074463,-0.72828745841980,-0.47301420569420,0.62772887945175,0.12294096499681,0.44809418916702
618,1993401062,-121.06430053710938,-84.82505798339844,116.19807434082031,9.78879547119141,-0.74878722429276,-0.47049227356911,0.92529714107513,0.28914177417755,0.51024335622787
619,1993417729,-121.05812072753906,-84.81991577148438,116.19004058837891,9.73306083679199,-0.66889774799347,-0.41592797636986,1.01729154586792,0.38688623905182,0.59324777126312
620,1993434396,-121.05976104736328,-84.81904602050781,116.15850067138672,9.77297496795654,-0.66972476243973,-0.41321253776550,-0.85670632123947,0.62476408481598,0.44258102774620
621,1993451063,-120.99412536621094,-84.81790161132812,116.07279968261719,9.79891872406006,-0.78590911626816,-0.48289263248444,-0.05482398718596,0.87567901611328,0.59831905364990
622,1993467730,-120.85515594482422,-84.81424713134766,115.94746398925781,9.80301284790039,-0.75840860605240,-0.43935981392860,1.97261309623718,0.98282337188721,0.83827805519104
623,1993484397,-120.71877288818359,-84.81072998046875,115.82622528076172,9.75683498382568,-0.69855511188507,-0.39032602310181,2.06747651100159,0.96547710895538,0.82568299770355
624,1993501064,-120.59179687500000,-84.80491638183594,115.70272064208984,9.73657417297363,-0.72464710474014,-0.38062703609467,1.36422824859619,0.90656769275665,0.94905930757523
625,1993517731,-120.47077941894531,-84.79904174804688,115.58669281005859,9.76794910430908,-0.76479333639145,-0.40709137916565,1.45370626449585,0.87642163038254,0.92520099878311
626,1993534398,-120.38282012939453,-84.79109954833984,115.51470184326172,9.71894741058350,-0.73158955574036,-0.36671647429466,2.10305237770081,0.60615658760071,0.91384196281433
627,1993551065,-120.35980224609375,-84.78346252441406,115.49216461181641,9.77890777587891,-0.66122621297836,-0.30176362395287,1.15972375869751,0.38747531175613,0.75835996866226
628,1993567732,-120.38946533203125,-84.77677917480469,115.48297882080078,9.80715465545654,-0.73633921146393,-0.41399392485619,-1.20014691352844,0.34767320752144,0.67829465866089
629,1993584399,-120.38510131835938,-84.76860809326172,115.48024749755859,9.76245403289795,-0.78994464874268,-0.42813661694527,1.22241091728210,0.27385738492012,0.73357969522476
630,1993601066,-120.39723205566406,-84.75988769531250,115.49112701416016,9.74521541595459,-0.71737039089203,-0.44412279129028,1.04669499397278,0.19293408095837,0.72638261318207
631,1993617733,-120.41362762451172,-84.75215911865234,115.49934387207031,9.75492954254150,-0.69392091035843,-0.39886149764061,0.63575845956802,0.23918421566486,0.67629057168961
632,1993634400,-120.42814636230469,-84.74387359619141,115.48826599121094,9.74150276184082,-0.76458692550659,-0.41692504286766,-0.40469986200333,0.30571317672729,0.76961040496826
633,1993651067,-120.39807891845703,-84.74025726318359,115.44604492187500,9.79200935363770,-0.79159218072891,-0.44574788212776,0.40735718607903,0.60422915220261,0.60151422023773
634,1993667734,-120.31845855712891,-84.73847198486328,115.36715698242188,9.76802158355713,-0.72865813970566,-0.44710925221443,1.19015812873840,0.82803303003311,0.61972486972809
635,1993684401,-120.23793029785156,-84.73631286621094,115.27505493164062,9.75310325622559,-0.71617931127548,-0.39484816789627,0.45380577445030,0.87900221347809,0.67565017938614
636,1993701068,-120.15660858154297,-84.73545837402344,115.18280792236328,9.77670288085938,-0.78678089380264,-0.42876505851746,0.49693757295609,0.92522031068802,0.60141175985336
637,1993717735,-120.03732299804688,-84.73355865478516,115.06598663330078,9.76200008392334,-0.76649385690689,-0.40327396988869,1.30085623264313,1.00687360763550,0.72910392284393
638,1993734402,-119.95494079589844,-84.73091888427734,114.98661804199219,9.73235416412354,-0.71464729309082,-0.38981840014458,1.32691073417664,0.80904757976532,0.65946936607361
639,1993751069,-119.88640594482422,-84.72518920898438,114.91439819335938,9.74070739746094,-0.72591805458069,-0.39107388257980,0.92141687870026,0.68164360523224,0.80402106046677
640,1993767736,-119.87149810791016,-84.71872711181641,114.89517974853516,9.77852439880371,-0.73529589176178,-0.35712844133377,0.87370043992996,0.40886837244034,0.69260591268539
641,1993784403,-119.85480499267578,-84.71135711669922,114.87520599365234,9.75793552398682,-0.78573465347290,-0.37492984533310,0.93396073579788,0.38485002517700,0.74073845148087
642,1993801070,-119.87871551513672,-84.70195007324219,114.90544891357422,9.77562141418457,-0.77008831501007,-0.35535955429077,1.50420188903809,0.08082728087902,0.71280789375305
643,1993817737,-119.93066406250000,-84.69101715087891,114.94965362548828,9.75802803039551,-0.67474871873856,-0.38061347603798,0.65059465169907,-0.03147801011801,0.75152146816254
644,1993834404,-119.98430633544922,-84.68172454833984,114.98249053955078,9.75940132141113,-0.79032391309738,-0.44735848903656,-0.12961307168007,0.07343801110983,0.69268906116486
645,1993851071,-120.00348663330078,-84.66884613037109,115.01486968994141,9.74506473541260,-0.77921807765961,-0.43627113103867,1.90888249874115,-0.03539675101638,0.88678216934204
646,1993867738,-120.00279235839844,-84.65602874755859,115.02675628662109,9.75460243225098,-0.71756649017334,-0.38925477862358,1.87590610980988,0.06767515838146,0.93552315235138
647,1993884405,-120.03142547607422,-84.64511108398438,115.04326629638672,9.77686786651611,-0.75503933429718,-0.43866509199142,0.39578664302826,0.10084359347820,0.82405662536621
648,1993901072,-120.05944061279297,-84.63433074951172,115.06246185302734,9.75616836547852,-0.79399216175079,-0.43827983736992,0.59231930971146,0.08687827736139,0.81678891181946
649,1993917739,-120.06187438964844,-84.62422180175781,115.06496429443359,9.75427627563477,-0.74785262346268,-0.42440924048424,1.13167142868042,0.19541208446026,0.81842815876007
650,1993934406,-120.04791259765625,-84.61341094970703,115.03809356689453,9.76014614105225,-0.75364875793457,-0.42789411544800,0.35875067114830,0.31560611724854,0.93990290164948
651,1993951073,-120.00229644775391,-84.60420989990234,114.98825836181641,9.78373050689697,-0.79300248622894,-0.43784853816032,0.88432973623276,0.47598645091057,0.92162185907364
652,1993967740,-119.92967987060547,-84.59568786621094,114.92466735839844,9.76836395263672,-0.80730825662613,-0.42534130811691,1.68864536285400,0.56111019849777,0.93079107999802
653,1993984407,-119.87677764892578,-84.58525085449219,114.88837432861328,9.75708389282227,-0.71900379657745,-0.37598103284836,2.13097667694092,0.37485465407372,0.94869440793991
654,1994001074,-119.85700988769531,-84.57617187500000,114.86231994628906,9.77311515808105,-0.74059402942657,-0.39391911029816,0.75713706016541,0.36418694257736,0.85053366422653
655,1994017741,-119.83274841308594,-84.56848144531250,114.82315826416016,9.77185153961182,-0.80252760648727,-0.41149955987930,0.24332062900066,0.47018510103226,0.81795430183411
656,1994034408,-119.76630401611328,-84.55979156494141,114.76048278808594,9.76252174377441,-0.81097155809402,-0.46463963389397,1.36883234977722,0.55790865421295,0.93399274349213
657,1994051075,-119.66229248046875,-84.55191040039062,114.66756439208984,9.78185558319092,-0.75625824928284,-0.42204079031944,1.81868112087250,0.73247200250626,0.97903269529343
658,1994067742,-119.56038665771484,-84.54457855224609,114.56967926025391,9.75911998748779,-0.75786316394806,-0.43724319338799,1.39432311058044,0.77357381582260,0.96750044822693
659,1994084409,-119.44586944580078,-84.53610229492188,114.45758819580078,9.73781204223633,-0.77333289384842,-0.40655338764191,1.30234789848328,0.81605255603790,1.06102514266968
660,1994101076,-119.31788635253906,-84.52764892578125,114.33663177490234,9.76868343353271,-0.77258938550949,-0.44472408294678,1.58039975166321,0.86024737358093,1.09026229381561
661,1994117743,-119.16012573242188,-84.51737976074219,114.18508148193359,9.77142715454102,-0.78071361780167,-0.45007157325745,1.53971385955811,0.96250611543655,1.26929497718811
662,1994134410,-118.98237609863281,-84.50756072998047,114.02173614501953,9.74192714691162,-0.80954807996750,-0.41944587230682,2.03779101371765,1.04305791854858,1.27300870418549
663,1994151077,-118.80606079101562,-84.49790191650391,113.85276031494141,9.70826816558838,-0.77268886566162,-0.42478865385056,1.61435580253601,1.07743668556213,1.28496372699738
664,1994167744,-118.62848663330078,-84.48797607421875,113.68727874755859,9.77505874633789,-0.79706704616547,-0.43391084671021,1.89588403701782,1.05786204338074,1.28567421436310
665,1994184411,-118.43540954589844,-84.47998046875000,113.50086212158203,9.77237033843994,-0.78195786476135,-0.39468076825142,1.57641685009003,1.22437036037445,1.23847007751465
666,1994201078,-118.23232269287109,-84.47142791748047,113.30166625976562,9.78204345703125,-0.81572461128235,-0.43069067597389,1.41897559165955,1.27583897113800,1.30528080463409
667,1994217745,-117.99680328369141,-84.46360015869141,113.09195709228516,9.76348400115967,-0.81736683845520,-0.43337693810463,2.73450136184692,1.35616672039032,1.29209649562836
668,1994234412,-117.77120208740234,-84.45405578613281,112.89285278320312,9.74966335296631,-0.78799891471863,-0.39378014206886,2.77252340316772,1.25739145278931,1.35605144500732
669,1994251079,-117.54982757568359,-84.44423675537109,112.68500518798828,9.74029064178467,-0.73712122440338,-0.38609376549721,1.99814903736115,1.30595314502716,1.38289368152618
670,1994267746,-117.32125854492188,-84.43425750732422,112.45959472656250,9.76731777191162,-0.85306823253632,-0.44089624285698,1.38143384456635,1.39198625087738,1.44681012630463
671,1994284413,-117.05623626708984,-84.42166900634766,112.23347473144531,9.77590465545654,-0.86039364337921,-0.42621216177940,3.52351951599121,1.33482503890991,1.58027148246765
672,1994301080,-116.78704071044922,-84.40931701660156,112.00953674316406,9.71177577972412,-0.80454027652740,-0.43611961603165,3.90650033950806,1.33919835090637,1.55729067325592
