sep=,
DeviceTag:,Xsens_DOT_3
FirmwareVersion:,3.0.0
AppVersion:,2023.6.0
StartTime: ,2025-04-09_10:40:51_000 CEST
© Movella Technologies B. V. 2005-2025

PacketCounter,SampleTimeFine,Euler_X,Euler_Y,Euler_Z,Acc_X,Acc_Y,Acc_Z,Gyr_X,Gyr_Y,Gyr_Z
0,1105316634,95.29121398925781,-86.33072662353516,25.52056121826172,0.00000000000000,0.00000000000000,0.00000000000000,0.00000000000000,0.00000000000000,0.00000000000000
1,1105333301,96.12708282470703,-86.33072662353516,24.65606498718262,9.73315334320068,0.65223473310471,-0.23192626237869,-0.88954830169678,-2.89000272750854,0.59343343973160
2,1105349968,96.94657135009766,-86.32773590087891,23.79690551757812,9.73327064514160,0.66520440578461,-0.22528158128262,-1.09283626079559,-2.85446476936340,0.46225798130035
3,1105366635,97.78781127929688,-86.32496643066406,22.92229080200195,9.75337028503418,0.65952956676483,-0.25402730703354,-1.46685850620270,-2.96083450317383,0.54571700096130
4,1105383302,98.64406585693359,-86.32230377197266,22.02668762207031,9.70951461791992,0.64455097913742,-0.30459794402122,-1.11753964424133,-2.99310612678528,0.59311318397522
5,1105399969,99.45829010009766,-86.31783294677734,21.17841529846191,9.73648834228516,0.65566283464432,-0.30101773142815,-0.67351156473160,-2.81721758842468,0.51934236288071
6,1105416636,100.15581512451172,-86.31156158447266,20.44964981079102,9.76624488830566,0.65546953678131,-0.28373512625694,-1.18532371520996,-2.42431235313416,0.38718718290329
7,1105433303,100.73645019531250,-86.30435180664062,19.83454513549805,9.75929450988770,0.56543076038361,-0.32968276739120,-1.18648910522461,-1.99628591537476,0.26913827657700
8,1105449970,101.17886352539062,-86.29932403564453,19.36252784729004,9.77073478698730,0.63102567195892,-0.29605433344841,-0.02563191018999,-1.37168169021606,0.30379223823547
9,1105466637,101.54360198974609,-86.29456329345703,18.99039268493652,9.71818542480469,0.66277372837067,-0.28824743628502,0.88326674699783,-1.01339840888977,0.27595123648643
10,1105483304,101.85761260986328,-86.29319000244141,18.68199157714844,9.73513221740723,0.67041832208633,-0.27162182331085,1.06616699695587,-0.77290803194046,0.43467316031456
11,1105499971,102.13610839843750,-86.29271697998047,18.41008567810059,9.82155895233154,0.62985426187515,-0.22949014604092,2.02401804924011,-0.56033539772034,0.45470228791237
12,1105516638,102.36755371093750,-86.29255676269531,18.20892906188965,9.79190635681152,0.67657870054245,-0.21919983625412,2.50280880928040,-0.35352566838264,0.42193078994751
13,1105533305,102.65438842773438,-86.29250335693359,17.94257926940918,9.73603153228760,0.64884388446808,-0.24106696248055,1.74684977531433,-0.60756516456604,0.49415853619576
14,1105549972,102.98984527587891,-86.29002380371094,17.60269355773926,9.73520278930664,0.63599145412445,-0.29131984710693,1.66711771488190,-0.82814174890518,0.38977402448654
15,1105566639,103.37818908691406,-86.28638458251953,17.22237014770508,9.71844768524170,0.69130384922028,-0.26697543263435,1.97750520706177,-1.01977610588074,0.39400017261505
16,1105583306,103.78746795654297,-86.28569793701172,16.80463218688965,9.71098613739014,0.67641431093216,-0.32760003209114,1.47275578975677,-1.09324598312378,0.58614659309387
17,1105599973,104.14723968505859,-86.28764343261719,16.46616363525391,9.73307132720947,0.63866776227951,-0.29621121287346,2.00067210197449,-0.82962739467621,0.71322405338287
18,1105616640,104.41895294189453,-86.29091644287109,16.21668243408203,9.72679901123047,0.65468072891235,-0.31650853157043,2.44215798377991,-0.45250594615936,0.68644589185715
19,1105633307,104.65509796142578,-86.29335021972656,15.98954105377197,9.74374198913574,0.68061566352844,-0.35003834962845,1.37010025978088,-0.39052322506905,0.63967716693878
20,1105649974,104.85877227783203,-86.29499053955078,15.80256175994873,9.76213169097900,0.60123664140701,-0.36103475093842,1.30081784725189,-0.28530627489090,0.56377393007278
21,1105666641,104.97220611572266,-86.29895019531250,15.70097064971924,9.75977611541748,0.66750842332840,-0.30549868941307,1.66902601718903,0.11323374509811,0.59418904781342
22,1105683308,105.01878356933594,-86.30503845214844,15.66824913024902,9.74408245086670,0.66069734096527,-0.30453106760979,1.74438464641571,0.40283009409904,0.65188795328140
23,1105699975,105.01753997802734,-86.31240844726562,15.69465827941895,9.74286937713623,0.65658879280090,-0.30034518241882,2.18037724494934,0.63107776641846,0.67587435245514
24,1105716642,104.95353698730469,-86.32230377197266,15.79898262023926,9.79818820953369,0.65740531682968,-0.28975012898445,2.22122311592102,0.90101623535156,0.75361526012421
25,1105733309,104.86263275146484,-86.33318328857422,15.90633583068848,9.77248191833496,0.63487434387207,-0.30128762125969,1.93468081951141,1.00173830986023,0.79127877950668
26,1105749976,104.77006530761719,-86.34526824951172,16.00698280334473,9.76671028137207,0.61740666627884,-0.30904164910316,2.45455455780029,1.06228673458099,0.85759007930756
27,1105766643,104.68824005126953,-86.35793304443359,16.13255500793457,9.74032497406006,0.66080325841904,-0.27731949090958,2.87240004539490,1.04644513130188,0.88626337051392
28,1105783310,104.64075469970703,-86.36891937255859,16.20896720886230,9.73135566711426,0.64015042781830,-0.28257468342781,2.66848468780518,0.88103848695755,0.82913440465927
29,1105799977,104.66620635986328,-86.37815093994141,16.22057533264160,9.73188400268555,0.65260094404221,-0.25524625182152,2.56421518325806,0.57687479257584,0.79852700233459
30,1105816644,104.79588317871094,-86.38361358642578,16.10626983642578,9.71489524841309,0.64259022474289,-0.22765903174877,1.75551998615265,0.09372966736555,0.70762759447098
31,1105833311,104.96455383300781,-86.38719177246094,15.96037292480469,9.70311164855957,0.65349900722504,-0.22533048689365,1.36107170581818,-0.10651682317257,0.63450342416763
32,1105849978,105.12069702148438,-86.39196014404297,15.81021595001221,9.74922943115234,0.67147266864777,-0.24300174415112,1.26866114139557,-0.04226735979319,0.69557690620422
33,1105866645,105.27749633789062,-86.39886474609375,15.65533351898193,9.79372978210449,0.62067389488220,-0.28747129440308,0.95275396108627,-0.03293152898550,0.81164079904556
34,1105883312,105.44631195068359,-86.40670013427734,15.50964927673340,9.76368808746338,0.61169123649597,-0.30953702330589,1.92713809013367,0.00213866075501,0.87336748838425
35,1105899979,105.65180969238281,-86.41329956054688,15.32374858856201,9.71710968017578,0.65845316648483,-0.28107479214668,1.67079305648804,-0.16182743012905,0.84861272573471
36,1105916646,105.84738922119141,-86.41777801513672,15.12991428375244,9.75561237335205,0.64522850513458,-0.26487177610397,1.10700023174286,-0.18954679369926,0.72686928510666
37,1105933313,105.99453735351562,-86.42269897460938,14.98662376403809,9.78847217559814,0.62103664875031,-0.29640251398087,1.21541845798492,0.00086442858446,0.70066738128662
38,1105949980,106.06192779541016,-86.42998504638672,14.93320655822754,9.77400398254395,0.64462113380432,-0.25550878047943,1.15029847621918,0.32275202870369,0.75642633438110
39,1105966647,106.03252410888672,-86.43531036376953,14.96837997436523,9.78661632537842,0.63710033893585,-0.28239116072655,1.38174748420715,0.65362966060638,0.53314757347107
40,1105983314,105.98887634277344,-86.43954467773438,15.02499198913574,9.78039169311523,0.64082711935043,-0.28268733620644,0.62450158596039,0.63732081651688,0.47092789411545
41,1105999981,105.92801666259766,-86.44576263427734,15.09762096405029,9.74204444885254,0.59270858764648,-0.35088548064232,0.99043035507202,0.75638151168823,0.56648892164230
42,1106016648,105.81865692138672,-86.44890594482422,15.20550060272217,9.73280334472656,0.64152830839157,-0.26618662476540,0.53983885049820,0.85538727045059,0.34902423620224
43,1106033315,105.68446350097656,-86.45238494873047,15.34453105926514,9.76470470428467,0.62861800193787,-0.30384972691536,0.40907320380211,0.93779617547989,0.34363275766373
44,1106049982,105.56871032714844,-86.45663452148438,15.46117305755615,9.73866558074951,0.58170938491821,-0.30650824308395,1.08984601497650,0.92579674720764,0.38883921504021
45,1106066649,105.42682647705078,-86.46028137207031,15.63627052307129,9.75045871734619,0.64521521329880,-0.26280841231346,1.42858672142029,1.02522504329681,0.32853406667709
46,1106083316,105.25125885009766,-86.46332550048828,15.80216884613037,9.74460983276367,0.63437533378601,-0.27608004212379,0.96070677042007,1.11921095848083,0.28450587391853
47,1106099983,105.07002258300781,-86.46665191650391,15.99692630767822,9.73676776885986,0.59727460145950,-0.29903295636177,0.90279650688171,1.13059580326080,0.28527423739433
48,1106116650,104.84902191162109,-86.47019958496094,16.24136543273926,9.75094032287598,0.61058747768402,-0.25767219066620,1.27971279621124,1.30054879188538,0.26368272304535
49,1106133317,104.58404541015625,-86.47424316406250,16.53152656555176,9.76099491119385,0.63309383392334,-0.28052881360054,1.23271346092224,1.45732402801514,0.24588190019131
50,1106149984,104.34568023681641,-86.47785949707031,16.78096961975098,9.77936744689941,0.59665411710739,-0.27447676658630,1.59494125843048,1.38168990612030,0.24793092906475
51,1106166651,104.12743377685547,-86.48041534423828,17.01604080200195,9.75654888153076,0.61465317010880,-0.25872662663460,1.62836563587189,1.29114890098572,0.19845999777317
52,1106183318,103.92050933837891,-86.48147583007812,17.24045372009277,9.75124835968018,0.61978209018707,-0.20975291728973,2.08728146553040,1.25983750820160,0.12522050738335
53,1106199985,103.77527618408203,-86.48097229003906,17.40203475952148,9.72323703765869,0.62649285793304,-0.19379931688309,1.80677092075348,1.00126445293427,0.10278375446796
54,1106216652,103.72573852539062,-86.47897338867188,17.47066688537598,9.71577835083008,0.60469675064087,-0.20445844531059,1.68053877353668,0.62664031982422,0.09842959046364
55,1106233319,103.71404266357422,-86.47486114501953,17.48050689697266,9.76813602447510,0.59007740020752,-0.21819500625134,1.06046819686890,0.42280161380768,0.00914373341948
56,1106249986,103.73024749755859,-86.46703338623047,17.47831916809082,9.77724552154541,0.61619168519974,-0.19532069563866,1.46521294116974,0.29525038599968,-0.18129310011864
57,1106266653,103.75205230712891,-86.45800781250000,17.46723175048828,9.76199722290039,0.65900987386703,-0.23080436885357,1.28769123554230,0.24922437965870,-0.23420892655849
58,1106283320,103.87216949462891,-86.44719696044922,17.35218811035156,9.73833465576172,0.62298959493637,-0.19502489268780,0.77562934160233,-0.16561809182167,-0.25300863385201
59,1106299987,104.06708526611328,-86.43525695800781,17.14807128906250,9.70236015319824,0.59662413597107,-0.19018614292145,1.53055095672607,-0.40585243701935,-0.25806716084480
60,1106316654,104.35246276855469,-86.42133331298828,16.87156105041504,9.71070098876953,0.66741168498993,-0.23182229697704,1.24206209182739,-0.78864699602127,-0.28074720501900
61,1106333321,104.71643066406250,-86.40746307373047,16.49958992004395,9.71825790405273,0.62122511863708,-0.29148611426353,0.75598442554474,-1.11216104030609,-0.19376647472382
62,1106349988,105.07797241210938,-86.39326477050781,16.15357780456543,9.75165557861328,0.60405409336090,-0.29732671380043,1.48983943462372,-1.07278144359589,-0.21141362190247
63,1106366655,105.33524322509766,-86.38085937500000,15.91302108764648,9.72680950164795,0.66671210527420,-0.30054685473442,1.38070380687714,-0.67600238323212,-0.19526483118534
64,1106383322,105.50313568115234,-86.36886596679688,15.75417327880859,9.76252365112305,0.59822046756744,-0.35589200258255,1.07248044013977,-0.36442387104034,-0.25320073962212
65,1106399989,105.59903717041016,-86.35675048828125,15.66868972778320,9.79731750488281,0.59351503849030,-0.37349331378937,1.55483162403107,-0.07685729861259,-0.34982460737228
66,1106416656,105.60292816162109,-86.34569549560547,15.67564678192139,9.75117778778076,0.62897598743439,-0.33310922980309,1.58362054824829,0.28290507197380,-0.37374690175056
67,1106433323,105.50833892822266,-86.33242797851562,15.78112125396729,9.73193836212158,0.63158667087555,-0.32702895998955,1.47121930122375,0.60116851329803,-0.61419898271561
68,1106449990,105.43759918212891,-86.31964111328125,15.86247730255127,9.74930095672607,0.66287410259247,-0.30599164962769,1.42820250988007,0.52655863761902,-0.54211193323135
69,1106466657,105.40044403076172,-86.30832672119141,15.92238330841064,9.77516460418701,0.67603701353073,-0.22429181635380,1.34291231632233,0.41527149081230,-0.42880144715309
70,1106483324,105.36269378662109,-86.29721069335938,15.96213531494141,9.72805404663086,0.67823106050491,-0.24425218999386,0.95308709144592,0.39995518326759,-0.41567492485046
71,1106499991,105.39502716064453,-86.28590393066406,15.94237899780273,9.74789142608643,0.65864586830139,-0.26665258407593,1.43743586540222,0.16493296623230,-0.35840490460396
72,1106516658,105.56030273437500,-86.27385711669922,15.78942012786865,9.70427227020264,0.66466695070267,-0.26076591014862,1.50155723094940,-0.34582906961441,-0.26914465427399
73,1106533325,105.81326293945312,-86.26000213623047,15.53115844726562,9.75205993652344,0.68971604108810,-0.21664956212044,0.46499854326248,-0.76781105995178,-0.23785872757435
74,1106549992,106.09087371826172,-86.24819183349609,15.24400901794434,9.78232955932617,0.63992434740067,-0.25712057948112,1.01691389083862,-0.80970072746277,-0.13453711569309
75,1106566659,106.39255523681641,-86.23912048339844,14.96803569793701,9.76239204406738,0.66137963533401,-0.26694485545158,1.35027587413788,-0.83262401819229,0.08297234773636
76,1106583326,106.76666259765625,-86.23007202148438,14.60665130615234,9.72444438934326,0.66814404726028,-0.22871203720570,1.69547104835510,-1.08717572689056,0.16223083436489
77,1106599993,107.19703674316406,-86.22177886962891,14.22846412658691,9.74355792999268,0.67128747701645,-0.22613774240017,2.01633429527283,-1.28161466121674,0.26580858230591
78,1106616660,107.65211486816406,-86.21121215820312,13.77757167816162,9.70137500762939,0.71123993396759,-0.31908303499222,1.25244820117950,-1.45939218997955,0.20120055973530
79,1106633327,108.14247131347656,-86.20146179199219,13.28259563446045,9.71681022644043,0.65441578626633,-0.36499652266502,1.07441425323486,-1.59207892417908,0.31000328063965
80,1106649994,108.62155914306641,-86.19059753417969,12.78963470458984,9.78307914733887,0.65191644430161,-0.30304610729218,0.54319417476654,-1.60993123054504,0.26072451472282
81,1106666661,108.97074127197266,-86.18053436279297,12.43694686889648,9.75292682647705,0.63092243671417,-0.38922443985939,0.65722191333771,-1.10233867168427,0.14939887821674
82,1106683328,109.24832153320312,-86.17198181152344,12.16281795501709,9.72474956512451,0.65309607982635,-0.37982642650604,1.01652956008911,-0.77628892660141,0.15791511535645
83,1106699995,109.47965240478516,-86.16268920898438,11.93781948089600,9.74435520172119,0.66972535848618,-0.37959775328636,0.69761306047440,-0.64735454320908,0.05172484368086
84,1106716662,109.73048400878906,-86.15467834472656,11.67545604705811,9.75446319580078,0.65277570486069,-0.38722214102745,0.94030618667603,-0.67960095405579,0.14880977571011
85,1106733329,109.94731903076172,-86.15019989013672,11.47113323211670,9.76223278045654,0.67947769165039,-0.36794754862785,1.18959450721741,-0.45969030261040,0.31795603036880
86,1106749996,110.21945953369141,-86.14572906494141,11.20522499084473,9.72319221496582,0.66336494684219,-0.36104592680931,1.60340619087219,-0.64360225200653,0.38483080267906
87,1106766663,110.48611450195312,-86.14182281494141,10.95491027832031,9.72871398925781,0.65334773063660,-0.35521867871284,1.79714035987854,-0.60988312959671,0.39305242896080
88,1106783330,110.75142669677734,-86.13862609863281,10.69558429718018,9.72424888610840,0.67509901523590,-0.33226531744003,1.14109063148499,-0.62308019399643,0.46770712733269
89,1106799997,110.99861145019531,-86.13609313964844,10.46364974975586,9.72841072082520,0.64918887615204,-0.38335394859314,1.24276661872864,-0.53453063964844,0.48452824354172
90,1106816664,111.23987579345703,-86.13477325439453,10.24292373657227,9.74425029754639,0.64016854763031,-0.39471006393433,1.52951347827911,-0.47436639666557,0.52358758449554
91,1106833331,111.46691131591797,-86.13304901123047,10.02373695373535,9.74475383758545,0.68414032459259,-0.34279161691666,0.82904469966888,-0.46997386217117,0.51010251045227
92,1106849998,111.64665985107422,-86.13112640380859,9.84749221801758,9.74010372161865,0.62493407726288,-0.39850372076035,0.79911613464355,-0.29174783825874,0.43939864635468
93,1106866665,111.82432556152344,-86.13233947753906,9.67036437988281,9.73423004150391,0.64829504489899,-0.40525582432747,1.79606485366821,-0.14847041666508,0.58352130651474
94,1106883332,112.00559234619141,-86.13153076171875,9.50135040283203,9.73685359954834,0.65033257007599,-0.36776250600815,1.55736756324768,-0.22812591493130,0.48066073656082
95,1106899999,112.18572235107422,-86.13158416748047,9.33073711395264,9.75123691558838,0.64005696773529,-0.36249724030495,1.16122877597809,-0.22848451137543,0.53995418548584
96,1106916666,112.32491302490234,-86.12996673583984,9.23483657836914,9.74998188018799,0.65237951278687,-0.39264357089996,0.85286456346512,-0.13748256862164,0.39780366420746
97,1106933333,112.42943572998047,-86.12808990478516,9.12780475616455,9.80228424072266,0.66023606061935,-0.38216456770897,0.36779835820198,-0.03667097911239,0.34144288301468
98,1106950000,112.47003936767578,-86.12717437744141,9.08731079101562,9.74528503417969,0.62729072570801,-0.39810320734978,0.80300933122635,0.25423166155815,0.28477478027344
99,1106966667,112.50270843505859,-86.12697601318359,9.07021617889404,9.73305034637451,0.65621608495712,-0.41748794913292,1.12029945850372,0.31909582018852,0.30559793114662
100,1106983334,112.46967315673828,-86.12990570068359,9.12219524383545,9.75692749023438,0.66552472114563,-0.41781854629517,1.72099399566650,0.67284554243088,0.35515847802162
101,1107000001,112.36489105224609,-86.13274383544922,9.21711254119873,9.74144554138184,0.66168677806854,-0.38999029994011,1.96244502067566,0.96395957469940,0.23383115231991
102,1107016668,112.17988586425781,-86.13648986816406,9.41859626770020,9.75213241577148,0.61004769802094,-0.40295419096947,1.52113807201385,1.25873613357544,0.19255626201630
103,1107033335,111.94264984130859,-86.13988494873047,9.65713882446289,9.76091098785400,0.62102389335632,-0.41992512345314,1.80518317222595,1.45236814022064,0.05330003052950
104,1107050002,111.68631744384766,-86.14308929443359,9.97012710571289,9.75305080413818,0.65910255908966,-0.39573699235916,1.46261322498322,1.50005888938904,0.05803837999701
105,1107066669,111.36750793457031,-86.14669799804688,10.29210948944092,9.73411560058594,0.66505587100983,-0.38607108592987,1.00076496601105,1.71602523326874,-0.01112231332809
106,1107083336,111.04882049560547,-86.15081787109375,10.61604595184326,9.74985694885254,0.65738523006439,-0.34734243154526,1.34896969795227,1.75503361225128,0.02534376829863
107,1107100003,110.75020599365234,-86.15503692626953,10.92495727539062,9.76634311676025,0.66782844066620,-0.31285515427589,1.20539772510529,1.66992235183716,0.06738700717688
108,1107116670,110.50606536865234,-86.15416717529297,11.17079544067383,9.76379776000977,0.65927213430405,-0.28069701790810,1.00526010990143,1.35059607028961,-0.11680031567812
109,1107133337,110.25143432617188,-86.15559387207031,11.43161201477051,9.75102710723877,0.64657813310623,-0.32224938273430,0.74123150110245,1.41198980808258,-0.01327378116548
110,1107150004,110.03737640380859,-86.15636444091797,11.65005016326904,9.71862888336182,0.68007665872574,-0.30341759324074,1.11775088310242,1.27383482456207,0.00859306007624
111,1107166671,109.91020965576172,-86.15325164794922,11.80052471160889,9.70361900329590,0.66135811805725,-0.32464471459389,1.18036115169525,0.86587566137314,-0.09134128689766
112,1107183338,109.85041046142578,-86.15233612060547,11.87026309967041,9.72213172912598,0.66983652114868,-0.31053549051285,1.57985532283783,0.68840539455414,0.12454176694155
113,1107200005,109.83335113525391,-86.15025329589844,11.90170478820801,9.74305248260498,0.68334043025970,-0.30647212266922,1.46632707118988,0.49458119273186,0.12287691980600
114,1107216672,109.82926177978516,-86.14933776855469,11.89903640747070,9.75052833557129,0.63753575086594,-0.35773289203644,1.39591777324677,0.46561324596405,0.20050902664661
115,1107233339,109.85577392578125,-86.15036010742188,11.89708805084229,9.74443435668945,0.66408795118332,-0.36371913552284,2.57091951370239,0.45997205376625,0.32282882928848
116,1107250006,109.89646148681641,-86.15091705322266,11.86349678039551,9.74337196350098,0.72310078144073,-0.29065683484077,1.75090980529785,0.34491345286369,0.33246567845345
117,1107266673,109.85727691650391,-86.15122222900391,11.89588832855225,9.79758453369141,0.68508780002594,-0.32866483926773,0.94026774168015,0.59554642438889,0.23526544868946
118,1107283340,109.72541046142578,-86.15294647216797,12.04271125793457,9.78273868560791,0.57723724842072,-0.41008055210114,0.81888920068741,0.96207696199417,0.18857349455357
119,1107300007,109.48160552978516,-86.15646362304688,12.29268455505371,9.78126144409180,0.67185407876968,-0.39422374963760,1.75379133224487,1.48574149608612,0.11382284760475
120,1107316674,109.13388824462891,-86.16054534912109,12.65347671508789,9.74456501007080,0.70206987857819,-0.39621314406395,1.49694716930389,1.87454223632812,0.01936320029199
121,1107333341,108.69814300537109,-86.16646575927734,13.09907245635986,9.73629379272461,0.63565075397491,-0.39920869469643,1.21810150146484,2.22518014907837,0.02040051482618
122,1107350008,108.21954345703125,-86.17520904541016,13.59538269042969,9.75600051879883,0.64365309476852,-0.37788495421410,1.67796480655670,2.48724937438965,0.16889014840126
123,1107366675,107.73300933837891,-86.18232727050781,14.10185623168945,9.73356437683105,0.66801536083221,-0.31722542643547,1.88144481182098,2.48308730125427,0.04916357621551
124,1107383342,107.22058105468750,-86.18895721435547,14.63111782073975,9.73259258270264,0.65794569253922,-0.30027085542679,1.86117231845856,2.57027268409729,0.01030911132693
125,1107400009,106.69837951660156,-86.19749450683594,15.16216278076172,9.75715827941895,0.69549113512039,-0.27494889497757,1.36529779434204,2.60987019538879,0.14177910983562
126,1107416676,106.23149871826172,-86.20558929443359,15.64175510406494,9.76130580902100,0.65217190980911,-0.25858160853386,1.32675075531006,2.38350510597229,0.19701290130615
127,1107433343,105.81670379638672,-86.21415710449219,16.07219505310059,9.72724723815918,0.71103131771088,-0.18596896529198,1.75142192840576,2.21467876434326,0.28701585531235
128,1107450010,105.42891693115234,-86.22109985351562,16.47741127014160,9.71597957611084,0.72296041250229,-0.15926212072372,0.88810765743256,2.02944803237915,0.26605191826820
129,1107466677,105.06487274169922,-86.22669982910156,16.82770919799805,9.78158950805664,0.66484814882278,-0.22944782674313,0.31470322608948,1.87634778022766,0.21777196228504
130,1107483344,104.76980590820312,-86.23266601562500,17.12726593017578,9.74916267395020,0.63807791471481,-0.28007182478905,1.00217366218567,1.66244339942932,0.31694433093071
131,1107500011,104.49502563476562,-86.23714447021484,17.41931915283203,9.75357437133789,0.70333909988403,-0.25391620397568,0.85871052742004,1.54638588428497,0.25540342926979
132,1107516678,104.23444366455078,-86.24016571044922,17.68523216247559,9.74265956878662,0.62555348873138,-0.23028004169464,1.24430322647095,1.49753594398499,0.18293868005276
133,1107533345,104.03118133544922,-86.23989868164062,17.88153648376465,9.73447895050049,0.71197390556335,-0.22221601009369,0.59842795133591,1.18936407566071,0.06205957382917
134,1107550012,103.90085601806641,-86.23631286621094,18.01018714904785,9.73754978179932,0.62710183858871,-0.21950085461140,-0.33462351560593,0.80539131164551,-0.02929452434182
135,1107566679,103.82330322265625,-86.23162841796875,18.07542991638184,9.73282432556152,0.65787827968597,-0.22332805395126,0.65692728757858,0.64937156438828,-0.07634504884481
136,1107583346,103.77794647216797,-86.22560882568359,18.10768890380859,9.75194549560547,0.70723074674606,-0.23960946500301,-0.17386540770531,0.45577794313431,-0.09639979153872
137,1107600013,103.77764892578125,-86.22021484375000,18.09889411926270,9.74110984802246,0.64999711513519,-0.23724201321602,0.49692481756210,0.33190217614174,-0.04172948747873
138,1107616680,103.76157379150391,-86.21628570556641,18.08972549438477,9.72593879699707,0.67663955688477,-0.22207540273666,0.29673594236374,0.40530821681023,0.03624197468162
139,1107633347,103.78623199462891,-86.21183776855469,18.05728149414062,9.73984718322754,0.67283123731613,-0.27627632021904,0.48374703526497,0.24748270213604,0.03711280226707
140,1107650014,103.87181854248047,-86.20775604248047,17.96761894226074,9.72877502441406,0.68046641349792,-0.30623078346252,0.71360820531845,0.03220796585083,0.11199151724577
141,1107666681,104.00829315185547,-86.20589447021484,17.83494758605957,9.74241638183594,0.67839002609253,-0.23910312354565,1.20756196975708,-0.10052344202995,0.28569683432579
142,1107683348,104.14197540283203,-86.20397949218750,17.71675872802734,9.75009727478027,0.67880660295486,-0.28719478845596,1.11787903308868,-0.09766763448715,0.28672134876251
143,1107700015,104.26849365234375,-86.20197296142578,17.59898376464844,9.75318431854248,0.68587094545364,-0.27292317152023,1.00105965137482,-0.07322031259537,0.29216408729553
144,1107716682,104.39437103271484,-86.20058441162109,17.48130035400391,9.74475955963135,0.66382902860641,-0.29361921548843,1.23340511322021,-0.05106531456113,0.31203952431679
145,1107733349,104.50840759277344,-86.20053100585938,17.37478446960449,9.72026824951172,0.67037111520767,-0.27920228242874,1.42534673213959,0.02417838759720,0.36075487732887
146,1107750016,104.60622406005859,-86.19965362548828,17.28050422668457,9.75581836700439,0.67528319358826,-0.27473920583725,0.92410612106323,0.04646143689752,0.32356521487236
147,1107766683,104.67510986328125,-86.20073699951172,17.21950149536133,9.75180625915527,0.62788981199265,-0.31941136717796,1.25167977809906,0.20843613147736,0.39829024672508
148,1107783350,104.70082092285156,-86.20238494873047,17.20346832275391,9.74551486968994,0.67357742786407,-0.29628202319145,1.37490260601044,0.39096501469612,0.38467714190483
149,1107800017,104.68941497802734,-86.20223236083984,17.22860908508301,9.72724437713623,0.68730521202087,-0.27439257502556,1.26962137222290,0.49910187721252,0.24589473009109
150,1107816684,104.68278503417969,-86.20202636718750,17.23518943786621,9.73223495483398,0.66817396879196,-0.26631152629852,1.48926305770874,0.49680951237679,0.24019588530064
151,1107833351,104.70970916748047,-86.20331573486328,17.21187973022461,9.75309371948242,0.68858879804611,-0.25413990020752,1.11161673069000,0.36267581582069,0.36536514759064
152,1107850018,104.69200134277344,-86.20341491699219,17.24068260192871,9.78140258789062,0.66729998588562,-0.25201278924942,1.26399946212769,0.52931207418442,0.25775337219238
153,1107866685,104.69104003906250,-86.20460510253906,17.24819564819336,9.74885177612305,0.67016822099686,-0.25159797072411,1.28632116317749,0.47949540615082,0.32526850700378
154,1107883352,104.70269012451172,-86.20449829101562,17.23956489562988,9.74461555480957,0.65962231159210,-0.28486862778664,0.86725878715515,0.38959473371506,0.28645241260529
155,1107900019,104.76229095458984,-86.20553588867188,17.18469238281250,9.75487422943115,0.65105450153351,-0.28926676511765,1.02056372165680,0.23088568449020,0.39908427000046
156,1107916686,104.83564758300781,-86.20635986328125,17.13119316101074,9.72471332550049,0.67159110307693,-0.27522590756416,1.46633994579315,0.19710253179073,0.37870940566063
157,1107933353,104.95342254638672,-86.20795440673828,17.00923347473145,9.71079730987549,0.67714524269104,-0.25961887836456,1.07657873630524,0.02195008471608,0.48788350820541
158,1107950020,105.02682495117188,-86.20956420898438,16.93127059936523,9.78314495086670,0.65578895807266,-0.29568114876747,1.07491385936737,0.18715198338032,0.42989632487297
159,1107966687,105.05117034912109,-86.21234893798828,16.91190338134766,9.75601482391357,0.65457880496979,-0.29306337237358,1.45656859874725,0.41828098893166,0.43893766403198
160,1107983354,105.01465606689453,-86.21452331542969,16.95391273498535,9.74382400512695,0.65924537181854,-0.32102680206299,0.90980160236359,0.61353939771652,0.37140980362892
161,1108000021,104.97682952880859,-86.21710968017578,16.99599456787109,9.74845314025879,0.65508216619492,-0.32598105072975,1.41127252578735,0.65503197908401,0.37473940849304
162,1108016688,104.93473815917969,-86.21929168701172,17.04477691650391,9.72500610351562,0.67988365888596,-0.29485216736794,1.21036648750305,0.64394170045853,0.33117219805717
163,1108033355,104.87537384033203,-86.22177886962891,17.11988639831543,9.73393058776855,0.67556983232498,-0.25441241264343,0.97150254249573,0.70991998910904,0.37376615405083
164,1108050022,104.81430816650391,-86.22560882568359,17.18322944641113,9.74780654907227,0.67086446285248,-0.28546819090843,1.08786094188690,0.73502051830292,0.41214677691460
165,1108066689,104.79584503173828,-86.22914123535156,17.20041847229004,9.74879455566406,0.66003894805908,-0.29612132906914,1.39582800865173,0.59566169977188,0.45672562718391
166,1108083356,104.80082702636719,-86.23236083984375,17.21426582336426,9.77448940277100,0.68509447574615,-0.23757825791836,1.47014963626862,0.50015836954117,0.45192965865135
167,1108100023,104.79485321044922,-86.23527526855469,17.21398735046387,9.74465179443359,0.67749768495560,-0.23232792317867,1.19707989692688,0.52541244029999,0.43412882089615
168,1108116690,104.79334259033203,-86.23813629150391,17.22434806823730,9.74500560760498,0.67788785696030,-0.28757470846176,1.07658505439758,0.49365279078484,0.42489546537399
169,1108133357,104.81474304199219,-86.24114990234375,17.22536087036133,9.75539493560791,0.67939662933350,-0.28215566277504,1.62470340728760,0.44586595892906,0.46119508147240
170,1108150024,104.82583618164062,-86.24568939208984,17.21554183959961,9.74661254882812,0.68274599313736,-0.28855398297310,1.39103853702545,0.49487581849098,0.53679096698761
171,1108166691,104.83956146240234,-86.25043487548828,17.21350479125977,9.75662612915039,0.67595809698105,-0.28729277849197,1.42939341068268,0.49039348959923,0.55817753076553
172,1108183358,104.82063293457031,-86.25415039062500,17.25148200988770,9.75605106353760,0.63602203130722,-0.30830922722816,1.02494335174561,0.56826895475388,0.46069568395615
173,1108200025,104.77751922607422,-86.25948333740234,17.31779289245605,9.74225807189941,0.64709705114365,-0.27159413695335,1.89348304271698,0.74252504110336,0.52071899175644
174,1108216692,104.74269104003906,-86.26226043701172,17.36240577697754,9.71507358551025,0.68545305728912,-0.27728310227394,1.27803540229797,0.63490039110184,0.39617723226547
175,1108233359,104.71314239501953,-86.26498413085938,17.41049385070801,9.74077510833740,0.65467840433121,-0.28105708956718,1.10623788833618,0.60269242525101,0.40793341398239
176,1108250026,104.68259429931641,-86.26644897460938,17.43089485168457,9.74895572662354,0.65658289194107,-0.27368023991585,1.26700270175934,0.59805011749268,0.31275027990341
177,1108266693,104.66965484619141,-86.26854705810547,17.44779777526855,9.74180889129639,0.66419726610184,-0.28628861904144,1.48414051532745,0.55585962533951,0.37504673004150
178,1108283360,104.66732025146484,-86.26965332031250,17.45975303649902,9.74855327606201,0.66146230697632,-0.28397193551064,1.32710933685303,0.48452824354172,0.31832745671272
179,1108300027,104.69704437255859,-86.26950073242188,17.44458389282227,9.73903846740723,0.66906714439392,-0.21538648009300,1.10319030284882,0.33267056941986,0.29370084404945
180,1108316694,104.73772430419922,-86.26943969726562,17.40816879272461,9.75519752502441,0.67271763086319,-0.22698782384396,0.84076243638992,0.27452972531319,0.30390748381615
181,1108333361,104.81684875488281,-86.26891326904297,17.33372306823730,9.76336097717285,0.66958868503571,-0.26259320974350,0.95333027839661,0.13226395845413,0.32643380761147
182,1108350028,104.88188934326172,-86.26744842529297,17.27566528320312,9.73632240295410,0.65748393535614,-0.28096342086792,1.02796566486359,0.17303940653801,0.24706009030342
183,1108366695,104.97566223144531,-86.26634979248047,17.18257331848145,9.72763442993164,0.67736941576004,-0.26926338672638,0.72695237398148,0.05011123791337,0.29886174201965
184,1108383362,105.05030822753906,-86.26398468017578,17.08590888977051,9.77289485931396,0.67566716670990,-0.27209573984146,0.75136125087738,0.11497539281845,0.22477704286575
185,1108400029,105.07489776611328,-86.26272583007812,17.07884979248047,9.76887512207031,0.64857715368271,-0.29047054052353,0.57760483026505,0.29490458965302,0.22300976514816
186,1108416696,105.08997344970703,-86.26042938232422,17.04324340820312,9.71961402893066,0.64564639329910,-0.27147710323334,1.04061830043793,0.36075481772423,0.16371636092663
187,1108433363,105.10170745849609,-86.25917053222656,17.02289962768555,9.71462821960449,0.66720712184906,-0.26404696702957,1.14354300498962,0.38661089539528,0.19634696841240
188,1108450030,105.11938476562500,-86.25791168212891,16.99877738952637,9.77355575561523,0.66722494363785,-0.28184103965759,0.92043077945709,0.35173919796944,0.21637606620789
189,1108466697,105.13417816162109,-86.25592803955078,16.98126411437988,9.75045490264893,0.63590395450592,-0.28451254963875,0.90693283081055,0.34784606099129,0.16796807944775
190,1108483364,105.09700012207031,-86.25331115722656,17.02697181701660,9.73842334747314,0.64443451166153,-0.31708875298500,1.09651815891266,0.54836791753769,0.08459874987602
191,1108500031,105.04041290283203,-86.25127410888672,17.09052085876465,9.74062633514404,0.66950714588165,-0.30648317933083,1.30638861656189,0.64668226242065,0.09171908348799
192,1108516698,104.95409393310547,-86.24975585937500,17.16911506652832,9.75193023681641,0.66586822271347,-0.30702555179596,0.86668252944946,0.74028384685516,0.09930042922497
193,1108533365,104.87100219726562,-86.24787902832031,17.25999450683594,9.73242282867432,0.64505577087402,-0.25948864221573,1.19083690643311,0.74180781841278,0.07349564135075
194,1108550032,104.79100036621094,-86.24479675292969,17.35830879211426,9.75506496429443,0.68231660127640,-0.25119239091873,1.07890927791595,0.70053291320801,0.00664649624377
195,1108566699,104.76131439208984,-86.24245452880859,17.39204406738281,9.75483322143555,0.65630793571472,-0.28802943229675,1.08497953414917,0.52454805374146,0.10230993479490
196,1108583366,104.75683593750000,-86.23944091796875,17.40801048278809,9.74739646911621,0.65646868944168,-0.26997381448746,1.21660327911377,0.42695090174675,0.09007986634970
197,1108600033,104.81701660156250,-86.23443603515625,17.34535408020020,9.73017501831055,0.66826438903809,-0.27024298906326,1.23481380939484,0.15170401334763,0.03517904132605
198,1108616700,104.92867279052734,-86.22934722900391,17.23238945007324,9.72789287567139,0.67307746410370,-0.31447985768318,1.26032400131226,-0.04655748233199,0.07715824991465
199,1108633367,105.08158111572266,-86.22498321533203,17.06940841674805,9.73290252685547,0.70908677577972,-0.23598319292068,0.49222484230995,-0.23799960315228,0.19719217717648
200,1108650034,105.24832153320312,-86.22021484375000,16.91318130493164,9.75425434112549,0.63344657421112,-0.27624177932739,1.05666458606720,-0.26726210117340,0.16807052493095
201,1108666701,105.39726257324219,-86.21307373046875,16.76239776611328,9.75710105895996,0.69013667106628,-0.27572110295296,0.97029232978821,-0.24228335916996,0.01546366885304
202,1108683368,105.52133178710938,-86.20661926269531,16.63043785095215,9.76842498779297,0.64786213636398,-0.32682600617409,0.67298638820648,-0.15606456995010,0.03804766014218
203,1108700035,105.63499450683594,-86.20187377929688,16.51998138427734,9.75389099121094,0.64035260677338,-0.33027842640877,1.04195022583008,-0.07232385128736,0.10442297160625
204,1108716702,105.70295715332031,-86.19625854492188,16.45616722106934,9.73044490814209,0.68665939569473,-0.33887985348701,1.29931294918060,0.11439272016287,0.02584961615503
205,1108733369,105.73544311523438,-86.19106292724609,16.42043495178223,9.73291683197021,0.66519618034363,-0.31015011668205,0.78381258249283,0.21787439286709,0.00485360622406
206,1108750036,105.73687744140625,-86.18704986572266,16.41690063476562,9.76444053649902,0.64582961797714,-0.30394640564919,0.93039405345917,0.36984735727310,0.04533448070288
207,1108766703,105.68170166015625,-86.18186950683594,16.47346115112305,9.75903987884521,0.66609704494476,-0.30692765116692,0.95368897914886,0.56322330236435,-0.10270051658154
208,1108783370,105.61933135986328,-86.17715454101562,16.53787422180176,9.74230766296387,0.69549679756165,-0.28158456087112,1.06288862228394,0.61347538232803,-0.06556210666895
209,1108800037,105.55328369140625,-86.17163085937500,16.62059974670410,9.73108100891113,0.66705846786499,-0.28071004152298,0.89632916450500,0.60267955064774,-0.10565876960754
210,1108816704,105.46371459960938,-86.16815185546875,16.72450637817383,9.75667095184326,0.66602140665054,-0.27218571305275,1.18257689476013,0.74395936727524,-0.03230401873589
211,1108833371,105.36665344238281,-86.16600799560547,16.82006454467773,9.75722312927246,0.69241410493851,-0.26513200998306,0.97703486680984,0.78285223245621,0.03797082975507
212,1108850038,105.27979278564453,-86.16232299804688,16.91582679748535,9.76113319396973,0.68226623535156,-0.27253583073616,0.93369817733765,0.71770632266998,-0.02955065295100
213,1108866705,105.18340301513672,-86.15855407714844,17.02111244201660,9.72301292419434,0.66978460550308,-0.28887316584587,1.02727425098419,0.75863534212112,-0.05093725770712
214,1108883372,105.08891296386719,-86.15697479248047,17.12066459655762,9.75644874572754,0.68032294511795,-0.27009269595146,1.24741542339325,0.80481511354446,0.08034703880548
215,1108900039,104.99592590332031,-86.15528869628906,17.21802902221680,9.76097774505615,0.69676578044891,-0.28992462158203,1.20001900196075,0.79190623760223,0.07293216884136
216,1108916706,104.92710876464844,-86.15294647216797,17.29683876037598,9.73105716705322,0.68238723278046,-0.26505678892136,1.42265748977661,0.70109647512436,0.05093085393310
217,1108933373,104.83395385742188,-86.15065765380859,17.40476989746094,9.72694396972656,0.69193720817566,-0.28220680356026,1.21556603908539,0.78435051441193,0.04169747605920
218,1108950040,104.69950103759766,-86.14852905273438,17.55002784729004,9.77611351013184,0.68389272689819,-0.29518383741379,0.88206291198730,0.92945921421051,0.01712208800018
219,1108966707,104.54146575927734,-86.14745330810547,17.70764732360840,9.78645229339600,0.68821966648102,-0.30023372173309,0.86759173870087,1.03791618347168,0.05181448906660
220,1108983374,104.31821441650391,-86.14674377441406,17.94481277465820,9.74436950683594,0.65792876482010,-0.31151473522186,1.14268505573273,1.31485354900360,0.00181850185618
221,1109000041,104.09150695800781,-86.14649200439453,18.17598724365234,9.73962879180908,0.69544708728790,-0.27343186736107,1.28107035160065,1.34912335872650,0.03213113173842
222,1109016708,103.85874938964844,-86.14816284179688,18.42037582397461,9.72689723968506,0.67037022113800,-0.30234166979790,1.43958711624146,1.40886485576630,0.12840925157070
223,1109033375,103.64806365966797,-86.14888000488281,18.65049171447754,9.73269748687744,0.69882124662399,-0.25024342536926,1.92241227626801,1.33996665477753,0.09214168787003
224,1109050042,103.48209381103516,-86.14994812011719,18.83144378662109,9.73792266845703,0.73558199405670,-0.22811691462994,1.68224203586578,1.15593945980072,0.16640569269657
225,1109066709,103.35565948486328,-86.14888000488281,18.96657180786133,9.76565074920654,0.70033270120621,-0.21523705124855,1.32539308071136,0.94603061676025,0.08429139107466
226,1109083376,103.25231170654297,-86.14745330810547,19.09038162231445,9.74792194366455,0.69914203882217,-0.21666660904884,1.19925069808960,0.83964842557907,0.08660934865475
227,1109100043,103.15294647216797,-86.14644622802734,19.18050956726074,9.75163555145264,0.70196688175201,-0.25600633025169,0.95051294565201,0.81780070066452,0.11678109318018
228,1109116710,103.09440612792969,-86.14664459228516,19.25892066955566,9.74242115020752,0.69968152046204,-0.27694141864777,1.22828257083893,0.69055676460266,0.22779935598373
229,1109133377,103.05854797363281,-86.14542388916016,19.31074905395508,9.73047542572021,0.69962960481644,-0.26415097713470,1.42290067672729,0.59968298673630,0.17675323784351
230,1109150044,103.03217315673828,-86.14491271972656,19.33937263488770,9.72927570343018,0.70635855197906,-0.28063422441483,1.05313026905060,0.54247701168060,0.21088214218616
231,1109166711,103.00923156738281,-86.14461517333984,19.36021995544434,9.73314571380615,0.69409459829330,-0.24122595787048,0.86654174327850,0.51931041479111,0.22691571712494
232,1109183378,102.95338439941406,-86.14608001708984,19.41368865966797,9.75782012939453,0.68936324119568,-0.25252214074135,0.87078052759171,0.67412620782852,0.30470147728920
233,1109200045,102.87097930908203,-86.14756011962891,19.49447250366211,9.73461055755615,0.69568461179733,-0.23077575862408,1.31619822978973,0.81247323751450,0.28267452120781
234,1109216712,102.79221343994141,-86.14918518066406,19.57734680175781,9.73906993865967,0.71824997663498,-0.30532440543175,1.02875316143036,0.77786403894424,0.30000793933868
235,1109233379,102.74030303955078,-86.15116882324219,19.63604927062988,9.76259326934814,0.66192889213562,-0.28079357743263,1.22775101661682,0.69180530309677,0.34317812323570
236,1109250046,102.65629577636719,-86.15488433837891,19.72763061523438,9.72308349609375,0.70277595520020,-0.24014583230019,1.57057702541351,0.85995274782181,0.40184402465820
237,1109266713,102.56824493408203,-86.15682220458984,19.83795928955078,9.74314498901367,0.71902298927307,-0.21156422793865,1.27335453033447,0.83241915702820,0.30790948867798
238,1109283380,102.48932647705078,-86.15866088867188,19.92087554931641,9.75058269500732,0.70041263103485,-0.22255730628967,0.89702701568604,0.76939898729324,0.30642390251160
239,1109300047,102.41711425781250,-86.16079711914062,19.99882316589355,9.76631355285645,0.64529448747635,-0.26474875211716,1.15670156478882,0.76656883955002,0.33658286929131
240,1109316714,102.35185241699219,-86.16349792480469,20.07798767089844,9.74130535125732,0.73411887884140,-0.22192975878716,1.23946905136108,0.75120127201080,0.37378537654877
241,1109333381,102.33354187011719,-86.16446685791016,20.09347343444824,9.73934650421143,0.70370459556580,-0.22097742557526,0.58320122957230,0.50291818380356,0.32889267802238
242,1109350048,102.29943084716797,-86.16651153564453,20.13026809692383,9.72772216796875,0.69212812185287,-0.25889131426811,0.96349871158600,0.60109168291092,0.35919252038002
243,1109366715,102.26658630371094,-86.16963195800781,20.16788291931152,9.74311542510986,0.70120048522949,-0.21426796913147,1.00433790683746,0.61533230543137,0.43641474843025
244,1109383382,102.25057983398438,-86.17091369628906,20.18464660644531,9.77865982055664,0.69334232807159,-0.23467086255550,0.97561335563660,0.51861870288849,0.32301452755928
245,1109400049,102.23901367187500,-86.17142486572266,20.19548416137695,9.73835468292236,0.68589258193970,-0.23512999713421,0.87554454803467,0.48904892802238,0.30041137337685
246,1109416716,102.27607727050781,-86.17203521728516,20.15684700012207,9.71137237548828,0.69586944580078,-0.23947741091251,0.80067861080170,0.29131886363029,0.33803644776344
247,1109433383,102.35187530517578,-86.17203521728516,20.06841850280762,9.73034477233887,0.69940245151520,-0.24689419567585,0.70670562982559,0.12756405770779,0.33760100603104
248,1109450050,102.39402770996094,-86.17305755615234,20.03310585021973,9.76962661743164,0.66246187686920,-0.28761827945709,1.14021980762482,0.29862487316132,0.36168333888054
249,1109466717,102.41433715820312,-86.17275238037109,20.02112197875977,9.75603103637695,0.68788236379623,-0.25981783866882,1.23225247859955,0.37569990754128,0.26865160465240
250,1109483384,102.42378234863281,-86.17147064208984,20.01589775085449,9.73153114318848,0.67107284069061,-0.25616997480392,0.82688039541245,0.37715980410576,0.20844894647598
251,1109500051,102.44392395019531,-86.17070770263672,19.99448013305664,9.74092864990234,0.68419414758682,-0.25992351770401,0.92119914293289,0.35086834430695,0.24671430885792
252,1109516718,102.44370269775391,-86.16937255859375,19.99951553344727,9.73858547210693,0.69066506624222,-0.26741278171539,0.78688621520996,0.41128876805305,0.19985590875149
253,1109533385,102.41167449951172,-86.16978454589844,20.04280662536621,9.74730110168457,0.65071785449982,-0.23380419611931,1.71914982795715,0.62223488092422,0.25619101524353
254,1109550052,102.38968658447266,-86.16983795166016,20.07259559631348,9.74100017547607,0.71903020143509,-0.22300705313683,1.29368460178375,0.55078828334808,0.25410360097885
255,1109566719,102.40985870361328,-86.16707611083984,20.05420684814453,9.73241615295410,0.70078748464584,-0.21858005225658,1.02391874790192,0.33173570036888,0.13016372919083
256,1109583386,102.44413757324219,-86.16467285156250,20.00679206848145,9.74971675872803,0.68182009458542,-0.23516035079956,1.08218777179718,0.28638845682144,0.15809439122677
257,1109600053,102.51040649414062,-86.16110229492188,19.95469284057617,9.73193645477295,0.70583271980286,-0.18993431329727,1.81633722782135,0.19013586640358,0.10841854661703
258,1109616720,102.59558105468750,-86.15570068359375,19.86362457275391,9.74552726745605,0.72728085517883,-0.21889173984528,0.90585714578629,0.03401366248727,0.03637003153563
259,1109633387,102.68961334228516,-86.15091705322266,19.77739334106445,9.73523044586182,0.67000788450241,-0.26778379082680,1.18666207790375,0.02262882143259,0.07247113436460
260,1109650054,102.80606842041016,-86.14826965332031,19.66742706298828,9.75958919525146,0.70561850070953,-0.28832772374153,1.49055659770966,-0.01958731189370,0.20674571394920
261,1109666721,102.94026184082031,-86.14644622802734,19.54576492309570,9.71512126922607,0.68140429258347,-0.27286309003830,1.68511092662811,-0.06187388300896,0.28291788697243
262,1109683388,103.03852081298828,-86.14450836181641,19.46119689941406,9.74916744232178,0.69675761461258,-0.25776845216751,1.43138480186462,0.05931260436773,0.24698965251446
263,1109700055,103.10834503173828,-86.14125823974609,19.39953994750977,9.72996902465820,0.66729503870010,-0.28239911794662,1.26738691329956,0.14282281696796,0.14665190875530
264,1109716722,103.14431762695312,-86.13912963867188,19.36804580688477,9.72716617584229,0.68532115221024,-0.29855820536613,1.24658930301666,0.28967323899269,0.17582479119301
265,1109733389,103.14128875732422,-86.13776397705078,19.36866188049316,9.74328041076660,0.71957576274872,-0.28929144144058,1.43066143989563,0.46419176459312,0.17314185202122
266,1109750056,103.09574127197266,-86.13680267333984,19.42167091369629,9.75333881378174,0.67882156372070,-0.29848998785019,1.34558868408203,0.63433694839478,0.17140017449856
267,1109766723,103.04853057861328,-86.13644409179688,19.48132514953613,9.73649406433105,0.72205817699432,-0.25809383392334,1.48352611064911,0.65679925680161,0.19989432394505
268,1109783390,103.01400756835938,-86.13527679443359,19.52177047729492,9.74133396148682,0.68995195627213,-0.25667017698288,1.27385413646698,0.58514136075974,0.17601688206196
269,1109800057,102.97035217285156,-86.13466644287109,19.57349205017090,9.74093723297119,0.69007021188736,-0.25193077325821,1.31860578060150,0.63022613525391,0.19479738175869
270,1109816724,102.94780731201172,-86.13360595703125,19.60146141052246,9.72829723358154,0.69383817911148,-0.25340139865875,1.38373887538910,0.54437226057053,0.18115861713886
271,1109833391,102.94509887695312,-86.13264465332031,19.60338783264160,9.74603080749512,0.69872653484344,-0.24229814112186,1.23668360710144,0.46070843935013,0.21583820879459
272,1109850058,102.97153472900391,-86.13178253173828,19.58715438842773,9.72866058349609,0.69405603408813,-0.26440387964249,1.28945839405060,0.34564334154129,0.23869749903679
273,1109866725,102.96565246582031,-86.13137817382812,19.58550643920898,9.74783515930176,0.71243411302567,-0.26257008314133,1.28083980083466,0.48247918486595,0.23488123714924
274,1109883392,102.95298767089844,-86.13097381591797,19.60683631896973,9.76835536956787,0.69159662723541,-0.26150381565094,1.18744313716888,0.50006228685379,0.23386955261230
275,1109900059,102.94766235351562,-86.13041687011719,19.62477302551270,9.74676418304443,0.69477260112762,-0.23538388311863,1.06729388237000,0.45985040068626,0.23234559595585
276,1109916726,102.96759796142578,-86.13036346435547,19.61052894592285,9.71936321258545,0.69569152593613,-0.23762971162796,1.34633147716522,0.38865992426872,0.28542792797089
277,1109933393,102.91747283935547,-86.13082122802734,19.66479110717773,9.76630115509033,0.69917249679565,-0.26985740661621,0.80945092439651,0.63611698150635,0.26039150357246
278,1109950060,102.84356689453125,-86.13274383544922,19.74773979187012,9.76218605041504,0.65757292509079,-0.28030759096146,1.37583100795746,0.78919768333435,0.31724533438683
279,1109966727,102.77233886718750,-86.13294982910156,19.82658386230469,9.73567962646484,0.71424156427383,-0.26860645413399,1.26494073867798,0.74547684192657,0.21506342291832
280,1109983394,102.70293426513672,-86.13208770751953,19.90136528015137,9.72316646575928,0.68226224184036,-0.26052677631378,1.04763627052307,0.71094453334808,0.16152648627758
281,1110000061,102.62600708007812,-86.13208770751953,19.98178100585938,9.72858619689941,0.71523833274841,-0.23332354426384,0.93647724390030,0.74471479654312,0.20486316084862
282,1110016728,102.55960845947266,-86.13274383544922,20.05003166198730,9.75775051116943,0.71288788318634,-0.24471150338650,0.82693165540695,0.70382428169250,0.25305348634720
283,1110033395,102.49689483642578,-86.13324737548828,20.11882400512695,9.74722957611084,0.67399168014526,-0.23952178657055,1.29367184638977,0.71882039308548,0.24306450784206
284,1110050062,102.47450256347656,-86.13254547119141,20.15298461914062,9.72938156127930,0.70842140913010,-0.20831476151943,1.20854806900024,0.53928822278976,0.21991065144539
285,1110066729,102.49353790283203,-86.13289642333984,20.13680458068848,9.75270366668701,0.69941854476929,-0.22942362725735,1.04041337966919,0.37439361214638,0.30663523077965
286,1110083396,102.49352264404297,-86.13254547119141,20.13035392761230,9.75714397430420,0.69702088832855,-0.25863298773766,0.89453625679016,0.43386629223824,0.25289979577065
287,1110100063,102.48205566406250,-86.13294982910156,20.14314270019531,9.74207687377930,0.69043976068497,-0.24241973459721,1.37050998210907,0.52016830444336,0.27735993266106
288,1110116730,102.46880340576172,-86.13330078125000,20.15845298767090,9.74086093902588,0.70640563964844,-0.27675437927246,1.16314947605133,0.51334255933762,0.27879422903061
289,1110133397,102.44116210937500,-86.13193511962891,20.18416786193848,9.75069713592529,0.70185601711273,-0.27577722072601,1.26784145832062,0.55642312765121,0.16935116052628
290,1110150064,102.40499114990234,-86.13213348388672,20.24110603332520,9.75482177734375,0.70018512010574,-0.27358391880989,1.31240749359131,0.60814791917801,0.24670152366161
291,1110166731,102.35514831542969,-86.13238525390625,20.29689598083496,9.74049282073975,0.67316073179245,-0.26690503954887,1.41880261898041,0.67302489280701,0.23622593283653
292,1110183398,102.28324127197266,-86.13198852539062,20.38093185424805,9.73695278167725,0.71655738353729,-0.25178155303001,1.28235101699829,0.74354958534241,0.18904733657837
293,1110200065,102.23902130126953,-86.13168334960938,20.43772888183594,9.73081016540527,0.70173138380051,-0.21581237018108,1.15199518203735,0.62420707941055,0.21040834486485
294,1110216732,102.18491363525391,-86.13213348388672,20.49803924560547,9.73652839660645,0.69798576831818,-0.24736008048058,1.14036703109741,0.67630332708359,0.25937980413437
295,1110233399,102.10626220703125,-86.13233947753906,20.58849525451660,9.74890327453613,0.69428187608719,-0.22631339728832,1.28518128395081,0.77852368354797,0.21729816496372
296,1110250066,102.05821990966797,-86.13254547119141,20.63638877868652,9.74874210357666,0.70252847671509,-0.22190181910992,1.01021611690521,0.63899844884872,0.24274437129498
297,1110266733,101.99079895019531,-86.13304901123047,20.69820976257324,9.76292705535889,0.70191121101379,-0.22188419103622,1.29975485801697,0.74194860458374,0.24466530978680
298,1110283400,101.92884826660156,-86.13411712646484,20.77967834472656,9.75691413879395,0.68921738862991,-0.24101014435291,1.46663439273834,0.73268973827362,0.27769288420677
299,1110300067,101.87644958496094,-86.13456726074219,20.83988761901855,9.74174404144287,0.70226669311523,-0.25615105032921,1.39774906635284,0.68643313646317,0.25566595792770
300,1110316734,101.80796051025391,-86.13598632812500,20.91558647155762,9.74433803558350,0.69153517484665,-0.24916678667068,1.20232403278351,0.74707120656967,0.29877212643623
301,1110333401,101.73326110839844,-86.13689422607422,20.99585151672363,9.75622177124023,0.69308799505234,-0.26277062296867,1.39627635478973,0.77797299623489,0.25707468390465
302,1110350068,101.64634704589844,-86.13786315917969,21.09104919433594,9.72334957122803,0.70232498645782,-0.28420618176460,1.43655216693878,0.83152914047241,0.25356569886208
303,1110366735,101.56823730468750,-86.14004516601562,21.16907119750977,9.70668792724609,0.71410733461380,-0.24928723275661,1.37923753261566,0.80612766742706,0.32581275701523
304,1110383402,101.47208404541016,-86.14273071289062,21.27044296264648,9.75675296783447,0.69558221101761,-0.24889990687370,0.99164688587189,0.85921645164490,0.35956388711929
305,1110400069,101.37544250488281,-86.14481353759766,21.38607025146484,9.75592041015625,0.68157231807709,-0.23191659152508,1.17216515541077,0.86243075132370,0.31915983557701
306,1110416736,101.28499603271484,-86.14653778076172,21.48737335205078,9.72876453399658,0.71554279327393,-0.20906330645084,1.46270298957825,0.85281330347061,0.29084503650665
307,1110433403,101.20434570312500,-86.14893341064453,21.56457138061523,9.74617767333984,0.70760411024094,-0.22502499818802,0.78833323717117,0.77825462818146,0.35080429911613
308,1110450070,101.14520263671875,-86.15162658691406,21.62710189819336,9.74779033660889,0.68416804075241,-0.26016202569008,1.15276360511780,0.72212445735931,0.38822451233864
309,1110466737,101.07328796386719,-86.15422821044922,21.70568847656250,9.74946880340576,0.69062501192093,-0.20605966448784,1.03020679950714,0.76461595296860,0.38380631804466
310,1110483404,100.98910522460938,-86.15595245361328,21.78899002075195,9.73282814025879,0.69703817367554,-0.21823409199715,0.94560813903809,0.78975480794907,0.29253545403481
311,1110500071,100.92374420166016,-86.15666961669922,21.85977363586426,9.73698997497559,0.70110678672791,-0.24925871193409,0.77392607927322,0.69929063320160,0.28003641963005
312,1110516738,100.84347534179688,-86.15794372558594,21.94996833801270,9.74814128875732,0.68290120363235,-0.25395074486732,1.08787369728088,0.78354376554489,0.29252263903618
313,1110533405,100.79020690917969,-86.16120147705078,22.01358795166016,9.72077178955078,0.73811918497086,-0.21644704043865,1.48036289215088,0.72286725044250,0.41182664036751
314,1110550072,100.74290466308594,-86.16151428222656,22.05966567993164,9.72290802001953,0.72115981578827,-0.19083659350872,0.71321761608124,0.61830973625183,0.26765906810760
315,1110566739,100.72635650634766,-86.16079711914062,22.07558631896973,9.76844882965088,0.66438049077988,-0.20782425999641,0.91429007053375,0.49687993526459,0.22126169502735
316,1110583406,100.70361328125000,-86.16069030761719,22.10249328613281,9.75450038909912,0.70196163654327,-0.22194319963455,1.13845896720886,0.54328382015228,0.25074833631516
317,1110600073,100.70169067382812,-86.15946960449219,22.10644721984863,9.76011276245117,0.70866817235947,-0.21533662080765,1.00724506378174,0.44070488214493,0.20628468692303
318,1110616740,100.71832275390625,-86.15859985351562,22.09000396728516,9.74427318572998,0.71238380670547,-0.24544943869114,0.83469218015671,0.35700258612633,0.23416410386562
319,1110633407,100.74829101562500,-86.15814208984375,22.06014823913574,9.73262405395508,0.67316067218781,-0.22930777072906,1.01720833778381,0.32451286911964,0.27435043454170
320,1110650074,100.75561523437500,-86.15646362304688,22.05974388122559,9.74160671234131,0.70347213745117,-0.23618580400944,1.35902285575867,0.41936957836151,0.17301380634308
321,1110666741,100.76776885986328,-86.15641021728516,22.04505157470703,9.75345230102539,0.71175241470337,-0.21017348766327,0.91726750135422,0.39364156126976,0.28847584128380
322,1110683408,100.76995086669922,-86.15646362304688,22.03945922851562,9.73941802978516,0.68919646739960,-0.21537382900715,1.02464890480042,0.43705508112907,0.26880526542664
323,1110700075,100.75820922851562,-86.15549468994141,22.05853080749512,9.74589252471924,0.69739168882370,-0.25809261202812,1.16122865676880,0.49120035767555,0.20709148049355
324,1110716742,100.75662994384766,-86.15416717529297,22.07054328918457,9.73559570312500,0.71211034059525,-0.22600151598454,1.18824994564056,0.44887533783913,0.19922837615013
325,1110733409,100.72701263427734,-86.15305328369141,22.09589576721191,9.73784923553467,0.68169903755188,-0.23551268875599,0.69174784421921,0.53079760074615,0.19237700104713
326,1110750076,100.69236755371094,-86.15091705322266,22.12634086608887,9.74276065826416,0.70187866687775,-0.25019040703773,0.89438259601593,0.55285012722015,0.12274885177612
327,1110766743,100.65428924560547,-86.15193176269531,22.17243576049805,9.74872779846191,0.69693297147751,-0.22158256173134,1.39422726631165,0.63256967067719,0.29577547311783
328,1110783410,100.63318634033203,-86.15310668945312,22.20507812500000,9.75092220306396,0.72585952281952,-0.22043742239475,1.48151540756226,0.57342988252640,0.32131132483482
329,1110800077,100.63001251220703,-86.15499114990234,22.21640968322754,9.74323654174805,0.69595420360565,-0.23092129826546,1.15157246589661,0.48952269554138,0.38851901888847
330,1110816744,100.69949340820312,-86.15636444091797,22.14143180847168,9.72801017761230,0.70414739847183,-0.21904587745667,1.37149608135223,0.21195791661739,0.40485996007919
331,1110833411,100.79155731201172,-86.15768432617188,22.05388832092285,9.74500274658203,0.71225392818451,-0.20260451734066,1.17070531845093,0.10662566125393,0.42068862915039
332,1110850078,100.89423370361328,-86.15631103515625,21.95710563659668,9.73617172241211,0.70909225940704,-0.19380916655064,1.13975882530212,0.03121547959745,0.26877328753471
333,1110866745,100.98957824707031,-86.15641021728516,21.86705207824707,9.73430347442627,0.70295381546021,-0.23552802205086,1.06030166149139,0.07270163297653,0.35171356797218
334,1110883412,101.07970428466797,-86.15666961669922,21.79733657836914,9.76626873016357,0.69552916288376,-0.25900381803513,1.32449662685394,0.11068528145552,0.35793748497963
335,1110900079,101.13764190673828,-86.15733337402344,21.74055480957031,9.77532005310059,0.73130708932877,-0.21658186614513,1.19492208957672,0.23627716302872,0.35468465089798
336,1110916746,101.23082733154297,-86.15671539306641,21.65093612670898,9.72179794311523,0.70739883184433,-0.19419163465500,0.62368202209473,0.04232499003410,0.31352502107620
337,1110933413,101.33394622802734,-86.15753936767578,21.53805541992188,9.72754096984863,0.70056825876236,-0.23771765828133,0.71642565727234,0.02921128459275,0.40798470377922
338,1110950080,101.38603210449219,-86.15748596191406,21.49681472778320,9.75428390502930,0.71408349275589,-0.25748252868652,0.97382044792175,0.23559841513634,0.31544598937035
339,1110966747,101.43585968017578,-86.16033935546875,21.45139694213867,9.73539733886719,0.69448268413544,-0.27814561128616,1.09621083736420,0.28937226533890,0.48607784509659
340,1110983414,101.49547576904297,-86.16319274902344,21.40289688110352,9.72855186462402,0.67496919631958,-0.23121836781502,1.15059924125671,0.25278452038765,0.48586007952690
341,1111000081,101.57704162597656,-86.16416168212891,21.32845687866211,9.70803070068359,0.70976102352142,-0.23443742096424,1.25316548347473,0.15243399143219,0.40012156963348
342,1111016748,101.63371276855469,-86.16549682617188,21.26922988891602,9.74827957153320,0.71501618623734,-0.23033992946148,0.54950761795044,0.20591330528259,0.40205532312393
343,1111033415,101.66608428955078,-86.16804504394531,21.23339271545410,9.76694297790527,0.66793507337570,-0.22596205770969,0.79732340574265,0.33562886714935,0.45125737786293
344,1111050082,101.70750427246094,-86.17034912109375,21.20543479919434,9.73647689819336,0.70551538467407,-0.22164757549763,1.47831380367279,0.34096908569336,0.43690145015717
345,1111066749,101.77997589111328,-86.17173004150391,21.13759613037109,9.72874832153320,0.71927016973495,-0.20302513241768,0.99434900283813,0.17907117307186,0.42389017343521
346,1111083416,101.90846252441406,-86.17382812500000,21.01432800292969,9.75393581390381,0.69979143142700,-0.21929296851158,0.96125733852386,-0.03870718926191,0.50476223230362
347,1111100083,102.04315948486328,-86.17510223388672,20.90472221374512,9.73401832580566,0.69832718372345,-0.24077367782593,1.32021939754486,-0.05062990635633,0.45682814717293
348,1111116750,102.21355438232422,-86.17572021484375,20.74089813232422,9.76180267333984,0.70318895578384,-0.21482068300247,1.28643631935120,-0.19677595794201,0.45060417056084
349,1111133417,102.43614196777344,-86.17639160156250,20.53374862670898,9.72303581237793,0.68064439296722,-0.24370180070400,1.46439313888550,-0.39126595854759,0.49565690755844
350,1111150084,102.68408966064453,-86.17541503906250,20.31035995483398,9.74800205230713,0.68808215856552,-0.23833741247654,1.48333382606506,-0.50937885046005,0.43162518739700
351,1111166751,102.97575378417969,-86.17331695556641,20.03094863891602,9.74712657928467,0.68225401639938,-0.22493807971478,1.62427413463593,-0.68145149946213,0.41152566671371
352,1111183418,103.39173126220703,-86.17326354980469,19.62631034851074,9.70475196838379,0.74146962165833,-0.17921021580696,1.56287384033203,-1.14758324623108,0.64118820428848
353,1111200085,103.94092559814453,-86.16784667968750,19.07402992248535,9.68582820892334,0.70401412248611,-0.14815495908260,0.50777167081833,-1.80575263500214,0.50045925378799
354,1111216752,104.56396484375000,-86.16089630126953,18.44084548950195,9.74503040313721,0.71269267797470,-0.16576878726482,0.38015648722649,-2.12957453727722,0.49885851144791
355,1111233419,105.29357147216797,-86.15198516845703,17.70303726196289,9.78733539581299,0.67712426185608,-0.22278925776482,0.53138661384583,-2.56597614288330,0.53259044885635
356,1111250086,106.08834838867188,-86.14075469970703,16.89746093750000,9.70206451416016,0.71242475509644,-0.15896521508694,0.21734936535358,-2.88841462135315,0.49520877003670
357,1111266753,106.89952850341797,-86.12394714355469,16.05022430419922,9.74432086944580,0.71677106618881,-0.25916719436646,-0.92237722873688,-3.12495398521423,0.27883902192116
358,1111283420,107.73332214355469,-86.10549926757812,15.18538761138916,9.78693103790283,0.65958851575851,-0.32993936538696,-1.05213773250580,-3.26159167289734,0.28036943078041
359,1111300087,108.49779510498047,-86.08773803710938,14.41506004333496,9.76328563690186,0.59939652681351,-0.34853187203407,0.33783152699471,-2.90904569625854,0.24608683586121
360,1111316754,109.26149749755859,-86.06403350830078,13.64335632324219,9.70892524719238,0.70290714502335,-0.23598045110703,0.49326211214066,-3.02567291259766,-0.04084585234523
361,1111333421,110.11949920654297,-86.03330993652344,12.75444412231445,9.66507816314697,0.71120566129684,-0.27110257744789,-0.77272874116898,-3.64202976226807,-0.22090311348438
362,1111350088,111.02088928222656,-85.99835968017578,11.80895519256592,9.72550106048584,0.64906191825867,-0.34609028697014,-1.21007835865021,-3.96788692474365,-0.31578537821770
363,1111366755,112.00273895263672,-85.95790100097656,10.80482769012451,9.73129749298096,0.67237460613251,-0.32253429293633,-0.34906911849976,-4.38610458374023,-0.41978576779366
364,1111383422,113.03945159912109,-85.91083526611328,9.73692131042480,9.66521263122559,0.68934428691864,-0.30736467242241,-0.60745000839233,-4.82862806320190,-0.59495097398758
365,1111400089,114.17297363281250,-85.85437774658203,8.55656337738037,9.65734481811523,0.71042758226395,-0.29491758346558,-1.35402178764343,-5.54971551895142,-0.78807073831558
366,1111416756,115.34327697753906,-85.78768920898438,7.34176445007324,9.75171089172363,0.70059400796890,-0.33162087202072,-1.99536406993866,-6.09540796279907,-1.11970412731171
367,1111433423,116.61649322509766,-85.71376800537109,6.01624393463135,9.70332813262939,0.63484299182892,-0.34630820155144,-1.68684625625610,-6.78552865982056,-1.14352405071259
368,1111450090,117.98948669433594,-85.62762451171875,4.59666442871094,9.61925315856934,0.74185907840729,-0.30655673146248,-1.57943952083588,-7.63509035110474,-1.34984719753265
369,1111466757,119.33195495605469,-85.52958679199219,3.17280936241150,9.75886821746826,0.75056165456772,-0.29475706815720,-3.73179054260254,-8.16450405120850,-1.72217905521393
370,1111483424,120.63164520263672,-85.42431640625000,1.79514276981354,9.77379989624023,0.62939053773880,-0.49090602993965,-3.48995494842529,-8.36240005493164,-1.93017971515656
371,1111500091,121.89576721191406,-85.31015777587891,0.46009916067123,9.74066734313965,0.67233157157898,-0.53234231472015,-2.90601110458374,-8.63676452636719,-2.22733831405640
372,1111516758,123.12191009521484,-85.18733215332031,-0.81051695346832,9.72709751129150,0.66252380609512,-0.56162643432617,-2.12834548950195,-8.89409446716309,-2.51069188117981
373,1111533425,124.30653381347656,-85.05204772949219,-2.04902958869934,9.68440437316895,0.68299841880798,-0.55548059940338,-2.00621151924133,-9.31977939605713,-2.96261572837830
374,1111550092,125.47221374511719,-84.90341949462891,-3.26221203804016,9.59807777404785,0.72210210561752,-0.59344154596329,-2.12755203247070,-9.92187118530273,-3.36290454864502
375,1111566759,126.57273864746094,-84.73816680908203,-4.44128656387329,9.61316967010498,0.78876686096191,-0.56107026338577,-3.50492644309998,-10.55319881439209,-3.98020911216736
376,1111583426,127.61570739746094,-84.55598449707031,-5.60143899917603,9.69740200042725,0.64044636487961,-0.59023857116699,-4.87393951416016,-11.26336383819580,-4.58264541625977
377,1111600093,128.54147338867188,-84.35819244384766,-6.62592744827271,9.68745994567871,0.76777666807175,-0.56528782844543,-5.88153123855591,-11.64171504974365,-5.32660531997681
378,1111616760,129.30981445312500,-84.15326690673828,-7.54612302780151,9.65225601196289,0.88825607299805,-0.60119646787643,-8.37308597564697,-11.62112522125244,-5.78652286529541
379,1111633427,129.84307861328125,-83.94763946533203,-8.27959728240967,9.81788921356201,0.89499610662460,-0.66742569208145,-10.97754383087158,-10.94009876251221,-6.31377363204956
380,1111650094,130.21121215820312,-83.75129699707031,-8.83604812622070,9.75946807861328,0.77314102649689,-1.02607262134552,-10.30208396911621,-9.88752841949463,-6.44083786010742
381,1111666761,130.45338439941406,-83.56730651855469,-9.22275352478027,9.67898941040039,0.79894196987152,-1.04234528541565,-7.72212505340576,-8.66512012481689,-6.47201919555664
382,1111683428,130.54759216308594,-83.38850402832031,-9.46973133087158,9.65487384796143,0.90369230508804,-1.00849068164825,-8.26843166351318,-7.81441974639893,-6.78163814544678
383,1111700095,130.53038024902344,-83.21077728271484,-9.61801433563232,9.61965942382812,0.88842093944550,-0.94630873203278,-9.06511497497559,-7.28596687316895,-7.14483976364136
384,1111716762,130.38693237304688,-83.02985382080078,-9.67202568054199,9.68351745605469,0.89072656631470,-0.87397855520248,-11.02103328704834,-6.90335273742676,-7.72303676605225
385,1111733429,130.18415832519531,-82.84579467773438,-9.68144321441650,9.77448272705078,0.97076237201691,-0.81677043437958,-11.92157649993896,-6.75976753234863,-8.09518909454346
386,1111750096,129.89616394042969,-82.66145324707031,-9.62090206146240,9.81721591949463,0.93977159261703,-0.79893279075623,-12.86729431152344,-6.33350133895874,-8.48294639587402
387,1111766763,129.47450256347656,-82.48451232910156,-9.40444278717041,9.77398967742920,0.88608056306839,-1.04051673412323,-11.61426067352295,-5.05292177200317,-8.95775985717773
388,1111783430,129.02665710449219,-82.31007385253906,-9.13239860534668,9.69745922088623,0.91454333066940,-1.00365853309631,-9.88508224487305,-4.51683473587036,-9.18919658660889
389,1111800097,128.46701049804688,-82.12894439697266,-8.81941223144531,9.57573604583740,1.23014211654663,-0.96325010061264,-14.16682720184326,-4.38439226150513,-9.78406810760498
390,1111816764,127.84696197509766,-81.94241333007812,-8.47625446319580,9.66997051239014,1.01183342933655,-1.00093924999237,-16.00193214416504,-4.24093723297119,-10.28303146362305
391,1111833431,127.21235656738281,-81.75188446044922,-8.10831165313721,9.61583137512207,0.97491437196732,-0.94650185108185,-15.41829299926758,-4.04520416259766,-10.68676471710205
392,1111850098,126.60519409179688,-81.55236053466797,-7.76898336410522,9.61223506927490,1.19556367397308,-0.80842620134354,-15.47940635681152,-4.39145040512085,-11.06405448913574
393,1111866765,125.96961975097656,-81.34056854248047,-7.44770145416260,9.67089176177979,1.17289698123932,-0.87401729822159,-18.26235389709473,-4.77890872955322,-11.65908050537109
394,1111883432,125.30097961425781,-81.12411499023438,-7.12313413619995,9.69714927673340,1.39109599590302,-0.77638423442841,-20.06105613708496,-4.72607707977295,-12.00743484497070
395,1111900099,124.59040069580078,-80.90642547607422,-6.77592039108276,9.63867950439453,1.07478928565979,-1.12730312347412,-21.25906562805176,-4.37693119049072,-12.27933692932129
396,1111916766,123.93325042724609,-80.69963836669922,-6.35930824279785,9.70431709289551,1.28489732742310,-1.10900115966797,-13.93974781036377,-3.25135064125061,-12.22241401672363
397,1111933433,123.30493927001953,-80.49405670166016,-5.92059373855591,9.67298507690430,1.32977914810181,-0.86749625205994,-10.92556190490723,-2.81202745437622,-12.36548423767090
398,1111950100,122.69974517822266,-80.27249908447266,-5.56159400939941,9.52644729614258,1.29476284980774,-0.84687393903732,-14.26827239990234,-3.79011464118958,-12.82390594482422
399,1111966767,122.16842651367188,-80.03594970703125,-5.30700922012329,9.53170013427734,1.20316970348358,-1.05158531665802,-16.02024078369141,-4.97740030288696,-13.09926414489746
400,1111983434,121.75585174560547,-79.80864715576172,-5.05023574829102,9.70626831054688,1.34715318679810,-1.00379431247711,-8.78203201293945,-4.50232553482056,-12.71531295776367
401,1112000101,121.42312622070312,-79.59146881103516,-4.78527021408081,9.59955215454102,1.64109015464783,-1.00546109676361,-3.51846361160278,-3.96947813034058,-12.30154991149902
402,1112016768,121.06738281250000,-79.39694976806641,-4.47146892547607,9.72715950012207,1.76483201980591,-1.11324894428253,-2.02481889724731,-2.68793225288391,-11.47763824462891
403,1112033435,120.70914459228516,-79.21611785888672,-4.18363952636719,9.59427070617676,2.01770710945129,-1.08022654056549,-3.72134804725647,-2.38865423202515,-10.67206096649170
404,1112050102,120.30356597900391,-79.06001281738281,-3.85327267646790,9.77651882171631,1.56240189075470,-1.16915905475616,-4.06085014343262,-1.10592472553253,-9.68406963348389
405,1112066769,119.92916107177734,-78.91880798339844,-3.48183774948120,9.64731788635254,1.67080891132355,-1.08201527595520,0.21604315936565,-0.13679105043411,-9.17939567565918
406,1112083436,119.60095977783203,-78.78108978271484,-3.18208122253418,9.45639324188232,1.88402771949768,-0.94332003593445,-1.23675429821014,-0.65355306863785,-8.62053966522217
407,1112100103,119.38690185546875,-78.65503692626953,-2.98538160324097,9.53792667388916,2.01033425331116,-0.86633449792862,-0.47006353735924,-1.27915608882904,-7.43080282211304
408,1112116770,119.37211608886719,-78.53771209716797,-2.94771599769592,9.39885616302490,2.10165190696716,-0.75019425153732,2.13670182228088,-2.63468313217163,-6.07187032699585
409,1112133437,119.55931091308594,-78.41006469726562,-3.14936614036560,9.31095886230469,2.17070794105530,-0.83608537912369,0.17744481563568,-5.44137382507324,-5.19321250915527
410,1112150104,119.94022369384766,-78.25863647460938,-3.62375640869141,9.45913219451904,2.15140247344971,-0.66527664661407,-4.21538448333740,-9.07452487945557,-4.74629783630371
411,1112166771,120.44082641601562,-78.10060119628906,-4.24228525161743,9.42098331451416,1.86592960357666,-0.79891395568848,-5.48641586303711,-10.91021442413330,-4.08554172515869
412,1112183438,120.97045135498047,-77.92321777343750,-5.00006008148193,9.33172416687012,2.48167085647583,-0.49626511335373,-11.89245700836182,-13.12764358520508,-4.04410219192505
413,1112200105,121.42531585693359,-77.74884033203125,-5.81864070892334,9.61247158050537,1.76774203777313,-1.06661999225616,-19.91646003723145,-13.84476280212402,-3.30117058753967
414,1112216772,121.99078369140625,-77.59491729736328,-6.56413745880127,9.70816230773926,1.51215934753418,-1.43140578269958,-8.96599578857422,-12.54999637603760,-2.54953527450562
415,1112233439,122.53887939453125,-77.45053863525391,-7.24720287322998,9.59969615936279,2.12580657005310,-1.32272219657898,-6.32582283020020,-11.68458080291748,-2.31138777732849
416,1112250106,123.00773620605469,-77.31752014160156,-7.89471864700317,9.56430339813232,1.80134713649750,-1.52090692520142,-8.97877597808838,-11.02599906921387,-1.82792210578918
417,1112266773,123.48835754394531,-77.19957733154297,-8.49757289886475,9.40668487548828,1.80127644538879,-1.42846453189850,-5.63748025894165,-10.12409782409668,-1.25785958766937
418,1112283440,123.96691131591797,-77.08415222167969,-9.08238887786865,9.39678096771240,1.99409270286560,-1.34612083435059,-4.69477796554565,-9.90856361389160,-1.13326632976532
419,1112300107,124.41032409667969,-76.97260284423828,-9.65360546112061,9.47453880310059,1.90482842922211,-1.46196675300598,-5.99083137512207,-9.69495391845703,-0.92452275753021
420,1112316774,124.84970855712891,-76.86711883544922,-10.21012020111084,9.42240047454834,1.83548605442047,-1.47357296943665,-5.35189104080200,-9.38912010192871,-0.62988054752350
421,1112333441,125.27066040039062,-76.76134490966797,-10.77558708190918,9.52552795410156,1.97418379783630,-1.34847569465637,-6.97407913208008,-9.54977035522461,-0.45905023813248
422,1112350108,125.66886901855469,-76.66704559326172,-11.28023433685303,9.60323143005371,1.82356691360474,-1.51072120666504,-4.76941299438477,-8.52419757843018,-0.28551125526428
423,1112366775,126.07709503173828,-76.58483886718750,-11.74495697021484,9.48074722290039,2.00415182113647,-1.48186850547791,-1.82840776443481,-7.68772363662720,0.07126735150814
424,1112383442,126.48709869384766,-76.50691223144531,-12.21904850006104,9.46272468566895,1.79641127586365,-1.55140268802643,-2.26185131072998,-7.67213821411133,0.43628680706024
425,1112400109,126.97538757324219,-76.42316436767578,-12.75010776519775,9.45183658599854,2.04972434043884,-1.27354562282562,-0.87702381610870,-8.55112838745117,0.72181725502014
426,1112416776,127.49843597412109,-76.32648468017578,-13.35157966613770,9.37523460388184,1.97526562213898,-1.25860238075256,-2.88586711883545,-9.84875774383545,0.81526523828506
427,1112433443,128.07731628417969,-76.21692657470703,-14.01978015899658,9.52296733856201,1.84384727478027,-1.28176283836365,-3.40702247619629,-11.11953544616699,0.92224973440170
428,1112450110,128.81314086914062,-76.10168457031250,-14.72762584686279,9.56040000915527,1.71993994712830,-1.32520735263824,3.71504068374634,-11.82690048217773,1.19156098365784
429,1112466777,129.54331970214844,-75.96202850341797,-15.48470973968506,9.45903587341309,1.97941231727600,-1.18048286437988,0.53568994998932,-13.36824321746826,0.71656692028046
430,1112483444,130.32859802246094,-75.80243682861328,-16.29463195800781,9.47756099700928,1.79327881336212,-1.31760466098785,0.79179167747498,-14.80476093292236,0.55853658914566
431,1112500111,131.22683715820312,-75.62294006347656,-17.17412567138672,9.48884391784668,1.89211726188660,-1.34213340282440,3.56130838394165,-16.46882057189941,0.63881981372833
432,1112516778,132.25125122070312,-75.41155242919922,-18.16172218322754,9.33187866210938,2.04647088050842,-1.25506019592285,4.89380645751953,-19.07256317138672,0.69219064712524
433,1112533445,133.31292724609375,-75.16169738769531,-19.24577713012695,9.40545749664307,1.88576340675354,-1.30555248260498,1.59563565254211,-21.87973022460938,0.50764459371567
434,1112550112,134.51844787597656,-74.88618469238281,-20.38724136352539,9.41816806793213,1.78199577331543,-1.34266853332520,6.97368669509888,-23.78987503051758,0.65493088960648
435,1112566779,135.72225952148438,-74.56583404541016,-21.61186027526855,9.44196796417236,2.24655127525330,-1.21620345115662,2.15171599388123,-26.84853935241699,0.44522678852081
436,1112583446,136.89588928222656,-74.22401428222656,-22.82205581665039,9.54710006713867,1.64425933361053,-1.82343327999115,1.28892421722412,-27.89879226684570,0.24513980746269
437,1112600113,138.17205810546875,-73.87018585205078,-24.01918601989746,9.63343048095703,1.81023442745209,-1.95053434371948,8.31207752227783,-28.56122779846191,0.52089995145798
438,1112616780,139.45918273925781,-73.49192810058594,-25.22348403930664,9.43943214416504,1.88252687454224,-1.89733552932739,8.68733215332031,-30.02335357666016,0.62588685750961
439,1112633447,140.68856811523438,-73.08836364746094,-26.42439842224121,9.49743175506592,1.88330888748169,-1.97102928161621,5.55596542358398,-31.44136238098145,0.63515877723694
440,1112650114,141.95326232910156,-72.66365814208984,-27.62222099304199,9.55928516387939,1.65233421325684,-2.26508879661560,8.00312900543213,-32.69184112548828,0.88440996408463
441,1112666781,143.24761962890625,-72.21530914306641,-28.83122253417969,9.54603195190430,1.79294466972351,-2.30033326148987,9.30811786651611,-34.23625564575195,1.33757770061493
442,1112683448,144.55160522460938,-71.73880004882812,-30.05686950683594,9.46322631835938,1.87532329559326,-2.39291357994080,9.11422061920166,-36.08172607421875,1.82706511020660
443,1112700115,145.86148071289062,-71.23295593261719,-31.27527618408203,9.40841007232666,1.83423495292664,-2.40897274017334,10.07774353027344,-37.74496841430664,2.03272438049316
444,1112716782,147.21372985839844,-70.68820190429688,-32.53036880493164,9.48510074615479,1.62152111530304,-2.49043774604797,10.75483894348145,-40.38586044311523,2.76037454605103
445,1112733449,148.54841613769531,-70.09573364257812,-33.79703521728516,9.52248859405518,1.92981314659119,-2.33196330070496,9.29416847229004,-43.24156570434570,2.98858666419983
446,1112750116,149.91102600097656,-69.44152832031250,-35.04412841796875,9.55367565155029,1.61884486675262,-2.42186117172241,12.35332393646240,-46.53954696655273,2.43969368934631
447,1112766783,151.27882385253906,-68.71929168701172,-36.27921295166016,9.78452301025391,1.80666279792786,-2.48853254318237,13.65486145019531,-50.31647872924805,2.06264853477478
448,1112783450,152.77923583984375,-67.91336059570312,-37.50717926025391,9.75168132781982,1.50784730911255,-2.35580825805664,22.36592483520508,-55.04983139038086,1.65034902095795
449,1112800117,154.18928527832031,-66.99755096435547,-38.68598175048828,10.00212097167969,1.83802568912506,-2.28641104698181,20.08619689941406,-60.84958267211914,0.02138051018119
450,1112816784,155.64021301269531,-65.95539093017578,-39.85119628906250,10.01412391662598,1.40359330177307,-2.30201315879822,23.75800514221191,-68.03830718994141,-0.95156127214432
451,1112833451,157.19638061523438,-64.73955535888672,-40.99199676513672,10.64642429351807,1.65532279014587,-2.07575654983521,31.96670341491699,-77.85732269287109,-2.73111820220947
452,1112850118,158.82711791992188,-63.26692962646484,-42.12015151977539,11.46879863739014,2.38160896301270,-1.03825139999390,37.80454254150391,-92.62084197998047,-5.28451633453369
453,1112866785,160.61860656738281,-61.38183212280273,-43.08346557617188,13.24199008941650,2.26261425018311,-0.11389213800430,57.10138702392578,-114.98298645019531,-13.72977828979492
454,1112883452,162.91333007812500,-59.04770278930664,-43.81334686279297,16.03662872314453,2.89694690704346,1.59927821159363,100.46355438232422,-139.41734313964844,-22.87389373779297
455,1112900119,165.24279785156250,-56.89525222778320,-43.52415847778320,20.90993881225586,1.72002780437469,6.70604515075684,155.27084350585938,-121.28069305419922,-43.99707412719727
456,1112916786,169.05162048339844,-54.47262573242188,-43.03609848022461,19.56818199157715,0.25914081931114,0.56472480297089,253.48977661132812,-137.69464111328125,-48.15619277954102
457,1112933453,173.60336303710938,-50.64501190185547,-42.83738327026367,17.48233604431152,10.96321010589600,-2.55160880088806,283.27780151367188,-225.63041687011719,-41.52354431152344
458,1112950120,175.20892333984375,-46.75300216674805,-42.21259689331055,13.77984237670898,7.94046926498413,-2.25178194046021,125.28044891357422,-229.64801025390625,-47.09663391113281
459,1112966787,176.55235290527344,-43.58386611938477,-41.08925247192383,4.89070749282837,-1.41641533374786,-4.53944349288940,129.21231079101562,-185.89630126953125,-60.75753021240234
460,1112983454,-179.99862670898438,-41.60979461669922,-39.75190734863281,1.80195248126984,-3.46990704536438,4.20972633361816,262.05233764648438,-116.28364562988281,-62.31484985351562
461,1113000121,-177.98980712890625,-40.60116577148438,-38.17640686035156,-4.59885549545288,4.58922052383423,13.76370716094971,183.49394226074219,-61.41405105590820,-69.85776519775391
462,1113016788,-179.09602355957031,-40.67808151245117,-36.22825241088867,-7.17289447784424,2.43547701835632,18.42352676391602,10.59345912933350,2.69937849044800,-88.47373199462891
463,1113033455,178.62695312500000,-42.00332260131836,-33.98416900634766,-10.41782665252686,0.82164871692657,18.76518440246582,-46.83250045776367,80.24705505371094,-100.45085906982422
464,1113050122,174.50306701660156,-44.53500366210938,-31.28262519836426,-10.23882961273193,-0.95934659242630,17.25685119628906,-135.41894531250000,158.99842834472656,-108.41053009033203
465,1113066789,169.63903808593750,-48.01264190673828,-28.58101463317871,-7.81766033172607,-6.47621059417725,11.00807189941406,-173.73280334472656,222.41052246093750,-81.90296173095703
466,1113083456,164.57418823242188,-52.09069824218750,-26.14371109008789,-5.91107702255249,-6.00980138778687,4.13736009597778,-190.77476501464844,259.76483154296875,-36.66186904907227
467,1113100123,159.49685668945312,-56.54484939575195,-24.25513839721680,-2.50444126129150,-7.27891731262207,-5.01804447174072,-211.58436584472656,274.93008422851562,19.82649040222168
468,1113116790,156.12882995605469,-60.92414855957031,-23.40309524536133,-0.98587292432785,-4.93728733062744,-15.36398792266846,-157.45179748535156,253.65112304687500,74.93638610839844
469,1113133457,154.53308105468750,-64.48775482177734,-24.12339210510254,1.10723114013672,1.35260844230652,-21.47354316711426,-133.31254577636719,186.36872863769531,107.53121185302734
470,1113150124,153.47734069824219,-66.74131774902344,-27.00766563415527,1.92093181610107,12.67993831634521,-25.00211334228516,-220.14971923828125,90.55471801757812,123.75997161865234
471,1113166791,153.39585876464844,-67.43392944335938,-33.88094329833984,0.49942380189896,22.04190063476562,-90.49145507812500,-383.93353271484375,-34.29236984252930,162.46214294433594
472,1113183458,163.58804321289062,-59.81166076660156,-44.24910736083984,43.68111038208008,29.47458457946777,-13.76796817779541,53.38495635986328,-524.66467285156250,90.33009338378906
473,1113200125,161.98921203613281,-57.83306503295898,-45.29911422729492,46.18988800048828,3.71155524253845,15.64533710479736,-148.98484802246094,-122.60554504394531,-3.63615489006042
474,1113216792,166.06295776367188,-55.46233367919922,-46.31641769409180,52.31286621093750,-15.98875236511230,-20.91954421997070,194.22746276855469,-145.57479858398438,-6.55104732513428
475,1113233459,168.71051025390625,-53.57773971557617,-48.48970413208008,31.69314384460449,-10.52682399749756,-9.99683475494385,53.46439743041992,-126.44669342041016,49.47067260742188
476,1113250126,170.77719116210938,-51.77459335327148,-50.82271575927734,7.64744329452515,-3.96100282669067,-11.96331501007080,13.47918415069580,-121.14781951904297,64.53943634033203
477,1113266793,171.64096069335938,-50.69793319702148,-52.11172866821289,-4.17856645584106,4.27812480926514,-10.99697589874268,-7.66832923889160,-70.83708190917969,38.25909423828125
478,1113283460,171.78961181640625,-50.35822677612305,-52.49408721923828,3.93554687500000,-2.56282734870911,-12.54814243316650,-7.97591686248779,-21.86696052551270,11.77560138702393
479,1113300127,171.65412902832031,-50.74242782592773,-52.85175704956055,13.18303012847900,-2.70478463172913,-12.26530551910400,-23.88489723205566,21.25366020202637,17.08768463134766
480,1113316794,170.96119689941406,-51.90278244018555,-53.26236343383789,17.05480194091797,0.27776888012886,-12.67361450195312,-59.99571228027344,66.89350128173828,26.01428222656250
481,1113333461,170.39161682128906,-53.95809936523438,-53.54195785522461,17.70391654968262,1.80378901958466,-13.69138622283936,-46.74866867065430,120.44471740722656,30.22899055480957
482,1113350128,169.73588562011719,-57.12728500366211,-53.34042358398438,19.35969543457031,1.17178380489349,-14.40251636505127,-28.55400085449219,188.86676025390625,26.34334182739258
483,1113366795,168.37403869628906,-61.93160629272461,-52.31079483032227,24.06659507751465,0.60284405946732,-13.60604953765869,-27.59460258483887,289.33288574218750,24.23062705993652
484,1113383462,165.35533142089844,-68.86486053466797,-49.52121734619141,33.92825317382812,-0.17998310923576,-13.70898818969727,-27.81870269775391,421.20587158203125,26.88114166259766
485,1113400129,157.96656799316406,-77.80928039550781,-41.66633605957031,51.38335800170898,-3.01138567924500,-5.62649106979370,10.39034843444824,551.10614013671875,40.40317153930664
486,1113416796,130.89331054687500,-87.07791900634766,-9.93745708465576,49.66331100463867,-8.00456237792969,-1.20922374725342,269.83358764648438,579.50054931640625,109.96788787841797
487,1113433463,23.55406188964844,-85.65692901611328,100.92242431640625,2.73526263237000,30.04580307006836,-43.82966232299805,205.71873474121094,361.49124145507812,32.55438232421875
488,1113450130,26.53313827514648,-85.29572296142578,100.87384033203125,-28.27087974548340,-2.23189878463745,3.84357523918152,176.62728881835938,19.88861274719238,-9.09977912902832
489,1113466797,68.07643127441406,-88.22205352783203,60.69532394409180,-7.77749538421631,6.87256669998169,-15.15279293060303,86.18451690673828,-209.55853271484375,30.54722213745117
490,1113483464,160.24929809570312,-85.58173370361328,-32.34989166259766,2.54516720771790,0.98775583505630,-0.43344551324844,-48.38950347900391,-290.76507568359375,11.68815231323242
491,1113500131,169.28634643554688,-80.72991943359375,-42.14682388305664,7.17698621749878,1.44941282272339,5.15547370910645,-41.11591720581055,-297.74829101562500,-8.33579921722412
492,1113516798,168.61495971679688,-76.97549438476562,-44.25579071044922,7.62860202789307,2.80813550949097,17.39804077148438,-163.62287902832031,-225.35537719726562,-18.85926628112793
493,1113533465,166.35226440429688,-75.52791595458984,-46.27610397338867,2.98864960670471,-4.99355125427246,11.79830551147461,-252.68605041503906,-90.65158843994141,9.59492206573486
494,1113550132,164.73835754394531,-76.35307312011719,-47.02677536010742,3.32560968399048,-7.37825155258179,5.15253400802612,-139.71697998046875,45.58763885498047,23.23572921752930
495,1113566799,164.23240661621094,-78.70255279541016,-46.19513702392578,2.34278750419617,-4.81159687042236,5.56286716461182,19.17056083679199,139.07263183593750,27.58942222595215
496,1113583466,163.39823913574219,-81.63212585449219,-43.46765136718750,0.02158316224813,-4.26687526702881,3.67740559577942,112.01441955566406,176.90486145019531,22.39859390258789
497,1113600133,160.65315246582031,-84.45048522949219,-37.34109878540039,-2.06497597694397,-1.15765786170959,2.28375434875488,201.05065917968750,174.71064758300781,9.99559307098389
498,1113616800,149.68916320800781,-86.58006286621094,-22.78050422668457,-0.70192080736160,2.66359353065491,-0.95338153839111,214.14135742187500,143.97708129882812,-8.45091724395752
499,1113633467,123.64884185791016,-87.68692016601562,5.75226879119873,0.26317194104195,4.34953737258911,-1.29999876022339,148.70051574707031,105.38883972167969,-17.42596054077148
500,1113650134,89.77836608886719,-87.79557800292969,40.44519805908203,0.86465924978256,3.31360650062561,-0.45760208368301,48.90650177001953,79.80300903320312,-17.08426094055176
501,1113666801,66.39804840087891,-87.38244628906250,63.29169464111328,0.81836259365082,0.49639606475830,-0.45228320360184,-32.45462799072266,61.59225463867188,-11.58656883239746
502,1113683468,52.91728591918945,-86.93829345703125,75.61808013916016,0.85667860507965,-1.41625499725342,-2.02660703659058,-69.45741271972656,45.37801361083984,-4.05293035507202
503,1113700135,44.37561798095703,-86.60086059570312,82.93497467041016,0.99687647819519,-1.80307352542877,-3.38523054122925,-73.43872833251953,32.31732177734375,1.48053705692291
504,1113716802,39.09757995605469,-86.39115142822266,87.30672454833984,0.53678888082504,-1.70259296894073,-3.89854311943054,-54.09107971191406,20.46669769287109,3.87716794013977
505,1113733469,35.93063354492188,-86.29673004150391,90.03285217285156,0.17847269773483,-1.36181521415710,-3.57599186897278,-25.99221801757812,11.25963020324707,5.10193634033203
506,1113750136,33.77124404907227,-86.26650238037109,92.28043365478516,-0.44385376572609,-2.05101728439331,-2.84953069686890,5.80814981460571,6.90024995803833,6.41748857498169
507,1113766803,32.51882553100586,-86.26345825195312,94.13111877441406,-0.97954374551773,-1.04677700996399,-1.54183173179626,36.45106887817383,4.52435207366943,6.23051166534424
508,1113783470,32.18415832519531,-86.31565856933594,95.04321289062500,-0.82202774286270,0.73320519924164,-0.49705648422241,35.34640121459961,-0.32459756731987,4.93257951736450
509,1113800137,32.31906127929688,-86.38567352294922,94.99914550781250,-0.25644457340240,1.56628012657166,0.01004771329463,6.25950241088867,-3.22615718841553,2.36620426177979
510,1113816804,32.15450286865234,-86.45392608642578,94.76793670654297,-0.01143174059689,1.09096479415894,-0.21246661245823,-22.88823699951172,-3.49176716804504,1.71036815643311
511,1113833471,31.94153976440430,-86.54974365234375,94.27889251708984,0.08938057720661,0.67986077070236,-0.62772309780121,-41.26522445678711,-5.40004158020020,1.79998171329498
512,1113850138,32.30352401733398,-86.71038818359375,92.99410247802734,0.13499426841736,0.11913784593344,-1.53639435768127,-54.38290405273438,-10.12710762023926,1.53782868385315
513,1113866805,33.81573867797852,-87.00762176513672,90.50510406494141,-0.21235120296478,-0.99816715717316,-1.99245929718018,-57.53498077392578,-18.96573829650879,3.11772084236145
514,1113883472,36.48759078979492,-87.51430511474609,87.10983276367188,-0.32179784774780,-3.43096780776978,-2.77287244796753,-42.23506927490234,-29.97152900695801,9.75570392608643
515,1113900139,47.33243560791016,-88.22370147705078,75.92350769042969,-1.60797202587128,-1.05909633636475,-2.49784445762634,-18.97469520568848,-47.69182205200195,9.87599468231201
516,1113916806,95.31079101562500,-88.82746887207031,27.15002441406250,-1.59077000617981,-0.31068029999733,-3.53441286087036,-45.81735992431641,-79.74329376220703,7.75546884536743
517,1113933473,154.86463928222656,-87.55696105957031,-33.74642181396484,-0.27432858943939,0.30944588780403,-5.41205263137817,-79.54002380371094,-127.55882263183594,10.30382823944092
518,1113950140,170.62278747558594,-83.03429412841797,-51.08199310302734,5.76027679443359,-3.69805240631104,-76.32909393310547,-91.15796661376953,-280.77169799804688,2.00309300422668
519,1113966807,170.68386840820312,-73.31856536865234,-51.90561294555664,50.12960433959961,39.61703872680664,38.79616928100586,-43.90787887573242,-576.28015136718750,-84.39875030517578
520,1113983474,165.61776733398438,-69.04044342041016,-51.62612915039062,38.05246353149414,-17.39383316040039,9.74023818969727,-287.11541748046875,-249.72442626953125,-57.71971511840820
521,1114000141,167.81495666503906,-64.97235870361328,-51.65261077880859,101.56163787841797,17.58769226074219,13.30641365051270,131.12240600585938,-237.27673339843750,-55.19901275634766
522,1114016808,169.99691772460938,-61.38167953491211,-54.95845413208008,51.60321807861328,-3.31699371337891,-7.30966377258301,-45.35184860229492,-228.14920043945312,46.68622207641602
523,1114033475,170.88371276855469,-58.78161239624023,-57.01506805419922,19.14505577087402,-3.80434799194336,-18.55329513549805,-52.95166015625000,-163.64860534667969,35.07266616821289
524,1114050142,173.55426025390625,-57.67665100097656,-58.78918075561523,-11.56297588348389,-3.58487653732300,-14.50723552703857,70.53182983398438,-72.88556671142578,46.83361434936523
525,1114066809,174.41711425781250,-57.69559860229492,-59.21643447875977,-20.11862182617188,-1.22200417518616,-15.65507030487061,30.91494560241699,0.08400999009609,14.01979541778564
526,1114083476,173.90806579589844,-58.86606979370117,-58.21163177490234,-0.63572704792023,-1.62059724330902,-13.54747104644775,21.55106925964355,73.47950744628906,-24.11919021606445
527,1114100143,173.15913391113281,-60.73726654052734,-56.60956954956055,10.03750610351562,0.38897010684013,-8.98013019561768,38.95832061767578,117.38777160644531,-35.13100051879883
528,1114116810,172.23742675781250,-62.89717102050781,-55.08664321899414,15.54560756683350,2.33058595657349,-5.73449993133545,26.05909347534180,134.41200256347656,-26.06772994995117
529,1114133477,171.28329467773438,-65.08562469482422,-53.87921142578125,16.83880805969238,1.93137371540070,-4.11713314056396,8.67817115783691,134.88746643066406,-12.35488986968994
530,1114150144,171.10704040527344,-67.05258941650391,-53.20108032226562,13.57013607025146,1.41085088253021,-2.82011556625366,27.42444419860840,119.53900909423828,2.02393293380737
531,1114166811,171.28051757812500,-68.73506927490234,-52.95848464965820,8.81955528259277,3.23435640335083,-2.03373146057129,24.69719696044922,100.98430633544922,10.31333541870117
532,1114183478,171.41764831542969,-70.22548675537109,-52.98603820800781,5.64861297607422,1.75603485107422,-2.83698558807373,7.48492288589478,88.70888519287109,14.29657173156738
533,1114200145,171.67521667480469,-71.62564086914062,-53.04425811767578,4.91464948654175,1.31629741191864,-2.56412172317505,12.95670986175537,83.31423187255859,13.75324726104736
534,1114216812,171.61697387695312,-72.96694183349609,-52.77061080932617,5.38182735443115,0.59594470262527,-1.51112270355225,12.95016670227051,80.73353576660156,7.02730560302734
535,1114233479,171.25781250000000,-74.20928192138672,-52.29405212402344,6.24487638473511,-0.07430987060070,-3.07115626335144,6.68663740158081,75.30505371093750,3.38414621353149
536,1114250146,171.17727661132812,-75.29461669921875,-51.95827102661133,6.54492759704590,-1.35825884342194,-2.22377300262451,15.41030502319336,65.55651092529297,4.98062324523926
537,1114266813,171.27742004394531,-76.19666290283203,-51.85137557983398,6.15005016326904,0.06979660689831,-0.49163034558296,13.03017520904541,54.12330627441406,6.96650552749634
538,1114283480,170.92904663085938,-76.87698364257812,-51.86739730834961,7.02153348922729,0.80907654762268,-1.48459458351135,-21.03182601928711,40.68229675292969,6.80724048614502
539,1114300147,170.86996459960938,-77.33186340332031,-52.22772216796875,7.54496431350708,-0.55156564712524,-1.74602162837982,-23.81702041625977,26.57684898376465,9.35504341125488
540,1114316814,171.15176391601562,-77.60231781005859,-52.72486877441406,7.65529632568359,-0.26478224992752,-1.39604222774506,-11.40470600128174,15.41347789764404,9.20121097564697
541,1114333481,171.29145812988281,-77.72388458251953,-53.05331802368164,8.95385932922363,1.18472278118134,-1.03822648525238,-10.06413936614990,6.96293210983276,5.54721498489380
542,1114350148,171.07334899902344,-77.75484466552734,-53.24249267578125,10.42723941802979,1.22043359279633,-1.18768286705017,-23.36885452270508,1.86831569671631,2.93951749801636
543,1114366815,171.03060913085938,-77.77957153320312,-53.61479187011719,11.47387504577637,0.79878365993500,-1.41784358024597,-23.58670616149902,1.12750542163849,5.18003177642822
544,1114383482,171.07405090332031,-77.83374786376953,-54.02009201049805,11.77967643737793,0.20224858820438,-1.83898031711578,-20.35631942749023,2.80721974372864,5.85262537002563
545,1114400149,171.37820434570312,-77.93012237548828,-54.39009857177734,12.10440540313721,-0.80838650465012,-2.04052162170410,-2.65064001083374,5.39910793304443,5.76191139221191
546,1114416816,172.03564453125000,-78.06433868408203,-54.84595108032227,11.33844947814941,-0.29147499799728,-1.16616570949554,13.49873065948486,7.54505395889282,7.06335496902466
547,1114433483,172.31909179687500,-78.20445251464844,-55.21518325805664,11.30671024322510,0.51472985744476,-1.04318523406982,-3.86827516555786,8.10222911834717,5.92886209487915
548,1114450150,172.71615600585938,-78.40595245361328,-55.64981460571289,12.06038856506348,-0.00845440570265,-2.04530405998230,-0.90683108568192,11.69122505187988,7.08744192123413
549,1114466817,173.46557617187500,-78.68043518066406,-56.18487548828125,11.12685871124268,0.34096953272820,-1.74306547641754,14.30452728271484,15.97447872161865,8.58333110809326
550,1114483484,174.31558227539062,-78.96010589599609,-56.74692535400391,9.84206867218018,0.74322032928467,-1.36132478713989,18.71539878845215,16.37740135192871,8.56045055389404
551,1114500151,175.02656555175781,-79.15290832519531,-57.29899215698242,9.15749073028564,0.54507213830948,-1.19109964370728,10.93761920928955,11.31976032257080,7.60827255249023
552,1114516818,175.78034973144531,-79.24102783203125,-57.90023040771484,8.35531711578369,0.33449682593346,-1.26344668865204,10.60317802429199,5.13020181655884,7.43610143661499
553,1114533485,176.23347473144531,-79.19953918457031,-58.38816833496094,8.12603187561035,0.86254215240479,-0.93242663145065,-0.76845139265060,-2.47352743148804,5.56197690963745
554,1114550152,176.45423889160156,-79.07605743408203,-58.87957000732422,8.74958992004395,0.75084495544434,-1.30760979652405,-14.90388488769531,-7.35247230529785,5.34606742858887
555,1114566819,176.47889709472656,-79.03134918212891,-59.23454284667969,11.15751171112061,-0.31291615962982,-3.07364249229431,-18.62239837646484,-2.53334927558899,4.14483165740967
556,1114583486,177.28614807128906,-79.05831909179688,-59.89634704589844,9.93393707275391,0.49295693635941,-2.79686808586121,10.25567626953125,1.60035896301270,7.89596366882324
557,1114600153,177.65197753906250,-79.10453033447266,-60.28339385986328,9.02360153198242,0.48507046699524,-1.77496552467346,-0.04887543618679,2.96537470817566,4.79030561447144
558,1114616820,177.82229614257812,-79.23822784423828,-60.40073013305664,9.38859748840332,-0.68731921911240,-1.87818813323975,4.10724067687988,8.35446739196777,1.91210353374481
559,1114633487,177.99345397949219,-79.68202972412109,-60.47164154052734,10.53675746917725,-0.10821937024593,-1.63190305233002,6.89167928695679,26.97530364990234,2.02184605598450
560,1114650154,177.97520446777344,-80.15539550781250,-60.64561080932617,8.89615249633789,0.59488737583160,-2.34524583816528,-10.56513881683350,28.71309852600098,3.09709787368774
561,1114666821,177.85688781738281,-80.34893035888672,-60.91604614257812,9.18365383148193,-0.55747473239899,-1.48385024070740,-22.29370880126953,11.88644504547119,3.44161200523376
562,1114683488,177.89956665039062,-80.41796875000000,-61.14093780517578,9.53022956848145,-0.47822636365891,-1.48217272758484,-9.93391323089600,4.45560550689697,2.67796874046326
563,1114700155,178.02127075195312,-80.38060760498047,-61.35594558715820,9.53580665588379,0.60555404424667,-1.06205856800079,-4.61343669891357,-1.92749691009521,2.34294128417969
564,1114716822,177.69700622558594,-80.30567932128906,-61.43435668945312,9.98281383514404,0.68015223741531,-1.42448210716248,-23.28425598144531,-4.12574052810669,0.89227777719498
565,1114733489,177.46649169921875,-80.29935455322266,-61.57919692993164,10.42971420288086,-0.21640327572823,-2.64259362220764,-21.58803367614746,-0.04518727585673,1.71888363361359
566,1114750156,177.39083862304688,-80.41294860839844,-61.72666168212891,10.45611572265625,-0.01132386922836,-2.78000807762146,-12.45545864105225,7.13575458526611,2.05891656875610
567,1114766823,177.37690734863281,-80.57543945312500,-61.79408645629883,10.08035945892334,0.62135708332062,-2.05770373344421,-4.02911615371704,10.09396934509277,1.38571166992188
568,1114783490,177.27365112304688,-80.74184417724609,-61.71627044677734,9.81464385986328,0.09636854380369,-1.30378270149231,-0.77695518732071,10.40547084808350,-0.01954890042543
569,1114800157,177.34931945800781,-80.88945007324219,-61.51678085327148,8.93440246582031,0.17730112373829,-1.07171237468719,17.16136169433594,9.32863044738770,-1.22086286544800
570,1114816824,177.19180297851562,-80.89675140380859,-61.17400360107422,8.85914993286133,0.46081766486168,-0.52929818630219,11.66115951538086,0.98734438419342,-2.95890212059021
571,1114833491,176.84790039062500,-80.83024597167969,-60.81969833374023,9.59182262420654,-0.14129647612572,-1.10924732685089,1.15768122673035,-3.41982698440552,-3.30674719810486
572,1114850158,176.63819885253906,-80.73673248291016,-60.55293273925781,9.96807003021240,-0.10237905383110,-1.30079376697540,4.03228569030762,-5.05649280548096,-2.60682940483093
573,1114866825,176.37622070312500,-80.65908813476562,-60.22146606445312,9.77702903747559,0.24539965391159,-1.28448796272278,4.70538759231567,-4.07123565673828,-3.22012567520142
574,1114883492,175.68765258789062,-80.60141754150391,-59.79306030273438,10.02903652191162,0.15134280920029,-2.14977979660034,-15.13694572448730,-2.75822782516479,-4.14372253417969
575,1114900159,175.03364562988281,-80.57779693603516,-59.55458450317383,9.64157104492188,-1.44634926319122,-3.08283901214600,-24.32041549682617,-0.83523815870285,-2.17382478713989
576,1114916826,174.74700927734375,-80.62520599365234,-59.47650146484375,9.31127262115479,-1.23502886295319,-2.91845750808716,-11.76929378509521,3.29621553421021,-0.23879374563694
577,1114933493,174.42675781250000,-80.68687438964844,-59.49419784545898,9.12112522125244,0.17939229309559,-1.99314475059509,-19.45696258544922,4.05951547622681,0.79037058353424
578,1114950160,173.90789794921875,-80.75176239013672,-59.49295806884766,9.22415733337402,0.11902996897697,-1.96575462818146,-30.25176239013672,4.26447677612305,0.65424007177353
579,1114966827,173.45063781738281,-80.83376312255859,-59.58375549316406,9.42440319061279,-0.42542517185211,-2.76722574234009,-32.00432586669922,5.19148206710815,1.67651081085205
580,1114983494,173.31321716308594,-80.96865081787109,-59.67798614501953,9.10647964477539,0.00362654426135,-2.32936835289001,-13.02075672149658,8.33121585845947,2.09062552452087
581,1115000161,172.98497009277344,-81.18780517578125,-59.56850433349609,9.41352272033691,0.75794887542725,-2.05402016639709,-12.40454387664795,13.56490993499756,0.82544696331024
582,1115016828,172.58425903320312,-81.48648071289062,-59.31367111206055,9.05000782012939,0.76671791076660,-1.85174596309662,-8.12133121490479,18.46022605895996,0.23506085574627
583,1115033495,172.18949890136719,-81.77839660644531,-58.97701644897461,9.14509868621826,0.62985914945602,-1.60896992683411,-2.89871406555176,18.13851165771484,-0.32473734021187
584,1115050162,171.75942993164062,-82.04203796386719,-58.52405929565430,9.18833732604980,1.06931042671204,-1.01752531528473,1.91040217876434,16.59456253051758,-1.31037902832031
585,1115066829,171.26789855957031,-82.29676055908203,-58.01341629028320,9.36910438537598,0.34519568085670,-2.07863736152649,1.66626119613647,16.12175941467285,-1.60464334487915
586,1115083496,170.94259643554688,-82.53428649902344,-57.59449768066406,9.43531990051270,0.20542106032372,-1.38939845561981,6.19725370407104,14.97554016113281,-0.80477094650269
587,1115100163,170.70498657226562,-82.75115966796875,-57.23426818847656,9.45948886871338,0.23348672688007,-1.17429840564728,7.98740434646606,13.68294239044189,-0.38748842477798
588,1115116830,170.49037170410156,-82.92720794677734,-56.93779754638672,9.44575405120850,0.43298545479774,-0.93701368570328,5.57359600067139,11.17573547363281,-0.19226823747158
589,1115133497,170.45265197753906,-83.06302642822266,-56.85229873657227,9.68094635009766,0.00985511858016,-0.40627372264862,3.63751626014709,8.53674030303955,1.00286543369293
590,1115150164,170.44236755371094,-83.16290283203125,-56.85062026977539,9.26186656951904,0.39786988496780,-0.70610219240189,0.29055050015450,6.31048345565796,1.25340890884399
591,1115166831,170.46426391601562,-83.16562652587891,-56.93035125732422,9.63442134857178,0.32586333155632,-0.54952502250671,-2.63247990608215,0.45936378836632,0.85976713895798
592,1115183498,170.65016174316406,-83.08993530273438,-57.13677978515625,9.72241973876953,0.49853819608688,-0.38819676637650,-0.34135961532593,-4.33302164077759,0.98889344930649
593,1115200165,170.91493225097656,-82.92770385742188,-57.41013717651367,9.96489906311035,0.82350134849548,-0.07021701335907,0.41801214218140,-9.52354049682617,0.68341094255447
594,1115216832,171.18292236328125,-82.67108154296875,-57.71313095092773,9.65593433380127,0.69557023048401,-0.05028499662876,-1.14900565147400,-15.17022609710693,0.12823006510735
595,1115233499,171.57583618164062,-82.32182312011719,-58.11100387573242,9.79927539825439,0.52758246660233,-0.15485450625420,0.70957529544830,-20.79127502441406,0.21442982554436
596,1115250166,172.11557006835938,-81.89063262939453,-58.66186523437500,9.82380962371826,0.48614758253098,-0.32927852869034,0.46287375688553,-25.84246063232422,1.09841597080231
597,1115266833,172.58918762207031,-81.42783355712891,-59.15430831909180,10.43409729003906,-0.15564849972725,-1.09640550613403,-0.01087902113795,-27.69288444519043,0.82622933387756
598,1115283500,173.27569580078125,-80.95925903320312,-59.70450973510742,9.90903663635254,-0.28604555130005,-1.09980583190918,9.37910461425781,-28.12263107299805,1.83019936084747
599,1115300167,173.92272949218750,-80.47903442382812,-60.23013687133789,9.93944740295410,0.18134215474129,-1.11752760410309,8.50425148010254,-28.80603027343750,2.11493730545044
600,1115316834,174.44520568847656,-79.97010803222656,-60.72460937500000,10.02710437774658,0.51860833168030,-1.07372379302979,2.91541361808777,-30.49142265319824,2.19043087959290
601,1115333501,174.89581298828125,-79.42456054687500,-61.18707656860352,9.93713569641113,0.34317535161972,-1.16333782672882,0.54479700326920,-32.65588378906250,2.17337369918823
602,1115350168,175.34387207031250,-78.85891723632812,-61.66462707519531,9.71917629241943,0.56287437677383,-1.13844251632690,-0.44558596611023,-33.87298583984375,2.76367950439453
603,1115366835,175.66758728027344,-78.33791351318359,-62.08694458007812,10.06600666046143,-0.03082042559981,-3.01432681083679,-4.61119222640991,-31.16525268554688,2.81855940818787
604,1115383502,176.10302734375000,-77.87697601318359,-62.53502655029297,9.45081043243408,-0.21907716989517,-2.92289447784424,0.63284021615982,-27.58056640625000,3.81303691864014
605,1115400169,176.55850219726562,-77.49115753173828,-62.88681030273438,9.42087459564209,-0.06173273921013,-2.83623361587524,7.50742483139038,-23.00107002258301,3.28493142127991
606,1115416836,177.00177001953125,-77.12920379638672,-63.17819213867188,9.65616416931152,0.63501745462418,-2.31336641311646,10.35091400146484,-21.50030326843262,2.88615369796753
607,1115433503,177.46913146972656,-76.73853302001953,-63.49356842041016,9.43680477142334,0.63877135515213,-1.66856729984283,10.41614055633545,-23.22385787963867,3.41467404365540
608,1115450170,177.79516601562500,-76.31774902343750,-63.76284408569336,9.50787353515625,0.60224694013596,-1.59215819835663,4.65542602539062,-24.98642730712891,2.99051976203918
609,1115466837,178.17016601562500,-75.88424682617188,-64.00906372070312,9.59985733032227,-0.15335707366467,-2.59591984748840,8.96777248382568,-25.72323989868164,2.90379619598389
610,1115483504,178.53555297851562,-75.44783020019531,-64.19482421875000,9.74463844299316,0.01276791840792,-2.30903315544128,11.93118286132812,-25.85849380493164,2.27812790870667
611,1115500171,179.11706542968750,-74.99467468261719,-64.49335479736328,10.26218128204346,-0.01477891206741,-1.96390044689178,18.38138198852539,-26.88445472717285,4.28422737121582
612,1115516838,179.77346801757812,-74.49918365478516,-64.74906921386719,10.28265094757080,0.18550758063793,-1.11445951461792,25.38655853271484,-29.37224197387695,4.02127933502197
613,1115533505,-179.53308105468750,-73.85128784179688,-64.86683654785156,10.04496002197266,0.32500255107880,0.09309171140194,35.61547851562500,-38.47668457031250,2.28044867515564
614,1115550172,-179.15380859375000,-72.99307250976562,-64.57466888427734,10.38378334045410,0.38969209790230,0.82538181543350,40.36616897583008,-51.15330505371094,-4.13832569122314
615,1115566839,-179.01963806152344,-71.96087646484375,-63.96588897705078,11.10859966278076,0.48186707496643,0.57163858413696,43.68969726562500,-61.70592498779297,-9.73739242553711
616,1115583506,-178.87698364257812,-70.84307098388672,-63.30968856811523,12.06451320648193,0.24133247137070,-0.08360984176397,46.68428421020508,-66.89681243896484,-11.04980659484863
617,1115600173,-178.57545471191406,-69.68304443359375,-62.61511230468750,12.71435832977295,0.59452259540558,0.78552699089050,58.12850952148438,-69.50460052490234,-12.25089550018311
618,1115616840,-178.14443969726562,-68.32200622558594,-61.80417633056641,12.52787780761719,1.67851758003235,0.97771030664444,72.09538269042969,-81.73981475830078,-14.81815147399902
619,1115633507,-177.70834350585938,-66.60733795166016,-60.86696624755859,11.90982341766357,2.92930269241333,0.53844690322876,78.91464233398438,-103.20611572265625,-17.53937149047852
620,1115650174,-177.61883544921875,-64.57948303222656,-59.88456344604492,11.94253253936768,1.93493962287903,-1.82811594009399,59.85992813110352,-122.17707061767578,-19.09937858581543
621,1115666841,-177.07543945312500,-62.50946807861328,-59.05910873413086,11.33188629150391,-0.37054425477982,-2.76210927963257,77.75484466552734,-124.70697784423828,-16.01276779174805
622,1115683508,-175.87712097167969,-60.93522644042969,-58.30705642700195,9.59060764312744,2.05711698532104,3.80513906478882,112.44199371337891,-95.21379089355469,-15.25089073181152
623,1115700175,-176.00553894042969,-60.08466339111328,-57.44022369384766,7.59912157058716,4.55336141586304,9.46786594390869,38.37903976440430,-52.34151840209961,-21.64344596862793
624,1115716842,-177.64685058593750,-60.19072341918945,-56.35354232788086,6.28143548965454,3.51521778106689,9.64359188079834,-41.11680984497070,4.92555522918701,-32.47982788085938
625,1115733509,-179.92214965820312,-61.33923339843750,-55.00134277343750,6.21744203567505,1.62577509880066,9.90110492706299,-64.89620971679688,68.41136169433594,-40.78769302368164
626,1115750176,177.44664001464844,-63.46020889282227,-53.15492248535156,6.24821043014526,0.86829042434692,8.82442760467529,-58.85443115234375,128.67552185058594,-48.27736663818359
627,1115766843,174.31117248535156,-66.53377532958984,-50.62689971923828,7.90551328659058,0.45185369253159,6.79091072082520,-49.77968215942383,188.85131835937500,-50.40830612182617
628,1115783510,170.43379211425781,-70.32472229003906,-47.10064697265625,9.29348850250244,1.04706084728241,3.22579526901245,-34.94321060180664,236.00221252441406,-46.63516616821289
629,1115800177,164.64523315429688,-74.60357666015625,-41.70709991455078,11.86525535583496,1.65053474903107,1.50721085071564,-37.67204666137695,271.77728271484375,-39.57855606079102
630,1115816844,154.38905334472656,-79.00175476074219,-32.00749969482422,14.27845954895020,1.68892836570740,-0.19823122024536,-47.42537689208984,293.11242675781250,-32.06864166259766
631,1115833511,133.50254821777344,-82.78060913085938,-11.76185703277588,15.32526588439941,0.87288922071457,-3.52187371253967,-51.91053390502930,293.42483520507812,-23.10085678100586
632,1115850178,93.78223419189453,-84.49195098876953,27.29692459106445,13.73377227783203,1.48181629180908,-6.97498273849487,-51.81154632568359,272.67208862304688,-13.31562900543213
633,1115866845,57.50042724609375,-83.36180114746094,62.70923233032227,12.22674179077148,1.52938997745514,-8.44130611419678,-62.43051910400391,230.81346130371094,-7.39127397537231
634,1115883512,40.57505798339844,-81.45029449462891,78.52468109130859,7.99041461944580,1.58402872085571,-11.69267845153809,-73.94009399414062,169.22955322265625,-3.50310516357422
635,1115900179,34.41847229003906,-80.18151855468750,83.40635681152344,3.25781679153442,0.69678252935410,-13.95885848999023,-79.45022583007812,89.13879394531250,-8.91753196716309
636,1115916846,34.26545715332031,-79.84061431884766,82.43025207519531,0.57201164960861,-2.49387502670288,-14.69772434234619,-66.06137084960938,11.51407814025879,-19.63776779174805
637,1115933513,40.17041778564453,-80.17815399169922,76.98633575439453,2.29469466209412,5.02161598205566,-22.13825416564941,33.42257308959961,-50.00306701660156,-32.59644317626953
638,1115950180,63.05912017822266,-80.68160247802734,53.06109619140625,19.45664024353027,36.51489639282227,4.67088460922241,-41.95114135742188,-203.75790405273438,-123.71312713623047
639,1115966847,81.26783752441406,-82.58535003662109,26.86954879760742,60.25065231323242,-45.21000671386719,-18.46043395996094,-461.97909545898438,-249.76075744628906,36.79087066650391
640,1115983514,115.22605895996094,-81.70587158203125,-4.02760410308838,-9.05839538574219,-5.53190994262695,-5.68469905853271,200.81451416015625,-254.75892639160156,-14.13978290557861
641,1116000181,130.63119506835938,-79.07057952880859,-19.12836837768555,6.94250965118408,13.94690227508545,-0.05789995193481,31.34919929504395,-211.46360778808594,-49.25492095947266
642,1116016848,138.44575500488281,-76.58614349365234,-27.57506942749023,10.21367073059082,1.31769692897797,-11.95122241973877,-25.89966011047363,-179.97999572753906,-30.77785110473633
643,1116033515,143.38465881347656,-74.60405731201172,-32.37537765502930,11.85855865478516,1.25697672367096,-6.89210605621338,18.11508560180664,-136.99391174316406,-19.02371406555176
644,1116050182,147.21055603027344,-73.05548858642578,-35.56255340576172,12.87248039245605,1.99637055397034,-5.74687385559082,46.66545867919922,-106.26970672607422,-8.81551170349121
645,1116066849,150.07099914550781,-71.85962677001953,-37.93450927734375,10.75446891784668,2.54911160469055,-4.62174034118652,36.72096252441406,-83.17569732666016,-0.42540732026100
646,1116083516,152.05046081542969,-70.85570526123047,-39.70119857788086,12.18797588348389,1.82212722301483,-2.32853293418884,19.12667465209961,-68.70281982421875,0.78558111190796
647,1116100183,153.34403991699219,-70.01452636718750,-41.02788925170898,11.28168773651123,0.05318377912045,-4.39188241958618,3.41250801086426,-56.66851425170898,0.81468510627747
648,1116116850,154.63647460937500,-69.33565521240234,-42.08458709716797,9.70723819732666,0.64261913299561,-4.52806091308594,18.89606094360352,-45.86031341552734,2.20347952842712
649,1116133517,155.56242370605469,-68.81985473632812,-42.82330703735352,8.66598987579346,2.42921280860901,-4.43604087829590,14.96176815032959,-34.33346939086914,1.59806072711945
650,1116150184,156.18746948242188,-68.47872924804688,-43.19661712646484,7.76133728027344,1.88584244251251,-5.02612257003784,17.44770050048828,-21.60783386230469,-0.64955902099609
651,1116166851,156.59646606445312,-68.27693176269531,-43.32038497924805,7.92666912078857,1.08594977855682,-4.74953031539917,18.44195365905762,-11.78969097137451,-2.06951570510864
652,1116183518,156.82315063476562,-68.17607116699219,-43.36381912231445,8.06987476348877,1.34951412677765,-4.34788990020752,11.98792934417725,-5.53474807739258,-1.23141455650330
653,1116200185,156.90127563476562,-68.13761901855469,-43.35173034667969,7.94621229171753,1.44568860530853,-4.18898868560791,6.16660356521606,-1.61399078369141,-0.88400328159332
654,1116216852,156.97554016113281,-68.12614440917969,-43.30191802978516,8.18465137481689,2.16142249107361,-3.50376152992249,8.03699779510498,0.21337942779064,-1.02081346511841
655,1116233519,156.98262023925781,-68.11967468261719,-43.23307800292969,8.19939613342285,2.15666842460632,-3.64162850379944,5.06647491455078,0.64902591705322,-1.29574012756348
656,1116250186,157.13095092773438,-68.09356689453125,-43.22430038452148,7.99180889129639,1.81080555915833,-3.39706730842590,10.19510078430176,-0.95428466796875,-0.51647388935089
657,1116266853,157.42674255371094,-68.01728057861328,-43.31475830078125,8.15727424621582,1.89697158336639,-2.97839927673340,13.52001857757568,-4.60127973556519,0.37686547636986
658,1116283520,157.86238098144531,-67.87403106689453,-43.55001068115234,8.69745063781738,1.88236832618713,-2.75535607337952,13.86354064941406,-9.55475711822510,1.90858352184296
659,1116300187,158.48698425292969,-67.62960052490234,-43.93509674072266,8.61427211761475,1.68047738075256,-2.63003492355347,16.89897155761719,-16.45947647094727,2.94433951377869
660,1116316854,159.30790710449219,-67.23945617675781,-44.46635055541992,8.25978088378906,1.38945055007935,-2.47454118728638,20.62713432312012,-25.83394050598145,3.25933766365051
661,1116333521,160.24189758300781,-66.66259765625000,-45.06011581420898,8.34710025787354,1.11542522907257,-2.19658803939819,24.06462669372559,-36.89285278320312,1.39918005466461
662,1116350188,161.26249694824219,-65.88839721679688,-45.67842102050781,9.31724071502686,0.37750893831253,-1.82371342182159,28.07815170288086,-48.36577987670898,-0.94428670406342
663,1116366855,162.51347351074219,-64.90453338623047,-46.41989135742188,10.57036209106445,0.47597736120224,-1.41442263126373,35.41466140747070,-61.45672988891602,-0.47083380818367
664,1116383522,163.88085937500000,-63.71473693847656,-47.26638793945312,11.77372169494629,0.55837535858154,-1.55528330802917,37.07682800292969,-74.29701995849609,0.71525192260742
665,1116400189,165.65354919433594,-62.39644241333008,-48.16598129272461,14.75295448303223,0.21332588791847,-1.24259722232819,59.04579162597656,-82.33828735351562,3.09086084365845
666,1116416856,167.82250976562500,-61.06699371337891,-49.13055419921875,19.02845954895020,0.72757148742676,-0.28287553787231,79.96219635009766,-83.52748107910156,8.65077209472656
667,1116433523,170.23138427734375,-59.72392654418945,-49.90556716918945,16.94253158569336,-0.57025945186615,-0.31930264830589,104.89936065673828,-83.09284210205078,7.48441362380981
668,1116450190,172.61965942382812,-58.30393600463867,-50.31124877929688,12.85463142395020,-0.82896190881729,-1.17554545402527,123.22534179687500,-85.73220825195312,-0.04266773909330
669,1116466857,174.93531799316406,-56.83757781982422,-50.40554046630859,11.30652236938477,0.41756635904312,-3.39617347717285,134.95906066894531,-87.41431427001953,-6.25444889068604
670,1116483524,176.71565246582031,-55.44046783447266,-50.14137649536133,10.71809005737305,2.63889527320862,-6.86092805862427,120.77965545654297,-82.58635711669922,-14.64413928985596
671,1116500191,178.01431274414062,-54.12943267822266,-49.70581436157227,9.97419738769531,3.08059811592102,-7.43825006484985,100.07257843017578,-77.50862884521484,-18.40282058715820
672,1116516858,178.84101867675781,-52.97428131103516,-49.13544464111328,8.39010143280029,1.86269617080688,-8.58914089202881,77.93535614013672,-68.34873199462891,-21.95322227478027
673,1116533525,-179.85348510742188,-52.02676010131836,-48.56291198730469,7.07653760910034,1.30527245998383,-8.37041187286377,106.38997650146484,-56.28554534912109,-21.13918113708496
674,1116550192,-178.52354431152344,-51.24848937988281,-47.88875198364258,4.85116767883301,2.20628166198730,-7.84037256240845,112.32210540771484,-46.66582489013672,-24.16742324829102
675,1116566859,-177.35435485839844,-50.76786422729492,-47.03425979614258,3.99488162994385,2.36765909194946,-4.82323884963989,110.80937194824219,-29.59502983093262,-30.92463874816895
676,1116583526,-176.50273132324219,-50.78193283081055,-45.87073898315430,3.66115927696228,1.10945010185242,-1.80061352252960,105.99216461181641,-1.13707733154297,-43.84886550903320
677,1116600193,-175.55679321289062,-51.28911209106445,-44.61622238159180,3.97792768478394,-1.36539089679718,-2.44075632095337,116.09378051757812,27.46535301208496,-49.04630661010742
678,1116616860,-173.96527099609375,-52.23719787597656,-43.50186538696289,4.72346782684326,-1.74399197101593,-1.20457589626312,148.81695556640625,53.25592803955078,-46.12549591064453
