sep=,
DeviceTag:,Xsens_DOT_2
FirmwareVersion:,3.0.0
AppVersion:,2023.6.0
StartTime: ,2025-04-09_10:40:51_000 CEST
© Movella Technologies B. V. 2005-2025

PacketCounter,SampleTimeFine,Euler_X,Euler_Y,Euler_Z,Acc_X,Acc_Y,Acc_Z,Gyr_X,Gyr_Y,Gyr_Z
0,1105333301,51.00374221801758,-86.82275390625000,-4.77980852127075,0.00000000000000,0.00000000000000,0.00000000000000,0.00000000000000,0.00000000000000,0.00000000000000
1,1105349968,49.69923782348633,-86.79124450683594,-3.52166104316711,9.81872081756592,0.51841658353806,0.51008164882660,-2.26508498191833,3.49149131774902,1.86203718185425
2,1105366635,48.62415313720703,-86.75580596923828,-2.49711942672729,9.69464302062988,0.50538802146912,0.51880568265915,-2.53985762596130,3.03772377967834,1.31255471706390
3,1105383302,47.70390319824219,-86.70931243896484,-1.62028813362122,9.71177387237549,0.55865389108658,0.49167662858963,-2.09253215789795,3.13357973098755,0.57326990365982
4,1105399969,46.77727890014648,-86.65473175048828,-0.72710585594177,9.73830032348633,0.49847581982613,0.52346038818359,-1.49374568462372,3.55821299552917,0.33166530728340
5,1105416636,45.80018997192383,-86.59838104248047,0.23095652461052,9.69415664672852,0.45556807518005,0.50725346803665,-0.68146431446075,3.81250834465027,0.54914265871048
6,1105433303,44.67904663085938,-86.53774261474609,1.34349060058594,9.75339317321777,0.43263494968414,0.58813369274139,-0.05242920294404,4.44374656677246,0.87044131755829
7,1105449970,43.60749435424805,-86.47169494628906,2.41695666313171,9.78577804565430,0.43258205056190,0.66204762458801,0.61127907037735,4.63189697265625,0.69467413425446
8,1105466637,42.65065383911133,-86.40316009521484,3.38157820701599,9.75151062011719,0.38752183318138,0.63902115821838,0.95188975334167,4.49667501449585,0.46665704250336
9,1105483304,42.11914062500000,-86.36621856689453,3.95449948310852,9.73474884033203,0.36722478270531,0.65453231334686,3.03603363037109,2.14683723449707,0.75723308324814
10,1105499971,41.62443161010742,-86.33531951904297,4.49986314773560,9.90369033813477,0.39456740021706,0.59014409780502,3.54675030708313,1.80421602725983,0.97431349754333
11,1105516638,41.06570053100586,-86.29487609863281,5.09554195404053,9.91126251220703,0.33846515417099,0.69408255815506,2.70482301712036,2.38335776329041,0.76904058456421
12,1105533305,40.65600967407227,-86.24803924560547,5.53351449966431,9.89201641082764,0.36238569021225,0.62431085109711,2.23053932189941,2.29101109504700,0.10327681154013
13,1105549972,40.24465560913086,-86.17602539062500,5.96317529678345,9.95326519012451,0.35741966962814,0.57091975212097,1.62424874305725,3.42998290061951,-0.84683287143707
14,1105566639,39.80809020996094,-86.08999633789062,6.41848468780518,9.88574886322021,0.41818171739578,0.67721384763718,1.68004596233368,4.20189762115479,-1.27122235298157
15,1105583306,39.23856735229492,-86.00492095947266,6.98832273483276,9.76105880737305,0.51678079366684,0.68727070093155,0.52860134840012,4.48176813125610,-0.77853655815125
16,1105599973,38.61549758911133,-85.93235015869141,7.59307336807251,9.72669410705566,0.55617332458496,0.69629222154617,-0.58742719888687,4.03568410873413,-0.10013284534216
17,1105616640,38.03519821166992,-85.86246490478516,8.14858245849609,9.74007797241211,0.45299881696701,0.73346853256226,-1.01641452312469,3.81412243843079,-0.08181978762150
18,1105633307,37.56927108764648,-85.79327392578125,8.59243392944336,9.75968742370605,0.42831432819366,0.74637788534164,-0.81823617219925,3.51689934730530,-0.36513465642929
19,1105649974,37.24497604370117,-85.73327636718750,8.89465808868408,9.77190876007080,0.44170042872429,0.77307468652725,-0.79129159450531,2.71604108810425,-0.46557489037514
20,1105666641,37.00676727294922,-85.67877197265625,9.11106300354004,9.77488613128662,0.39522269368172,0.75783914327621,-0.75894278287888,2.23815941810608,-0.54282277822495
21,1105683308,36.78907775878906,-85.62292480468750,9.31247425079346,9.78680992126465,0.39084678888321,0.74679297208786,-0.43136906623840,2.27214741706848,-0.62037801742554
22,1105699975,36.69089508056641,-85.56376647949219,9.40286731719971,9.80310630798340,0.41133284568787,0.74565929174423,0.09502952545881,2.14084410667419,-1.13446342945099
23,1105716642,36.67244338989258,-85.51267242431641,9.42863464355469,9.81958866119385,0.45581001043320,0.72018629312515,1.01538348197937,1.58073258399963,-1.08227741718292
24,1105733309,36.68859100341797,-85.48439025878906,9.42276573181152,9.78656482696533,0.45942673087120,0.69596105813980,1.19476830959320,0.38180851936340,-0.37139052152634
25,1105749976,36.84165954589844,-85.47822570800781,9.28685092926025,9.84449195861816,0.39911580085754,0.69213581085205,1.61197352409363,-1.04869270324707,-0.07494916021824
26,1105766643,37.00131988525391,-85.46395874023438,9.16901206970215,9.84034729003906,0.39794263243675,0.71677613258362,3.11501026153564,-0.60767412185669,-0.30100044608116
27,1105783310,37.18376922607422,-85.44125366210938,9.04576778411865,9.79383373260498,0.48359951376915,0.75194829702377,4.17097043991089,-0.21961607038975,-0.63086634874344
28,1105799977,37.31451416015625,-85.42346191406250,8.97419166564941,9.80933570861816,0.50212842226028,0.80628740787506,4.10837936401367,-0.31365948915482,-0.26384282112122
29,1105816644,37.42276763916016,-85.41665649414062,8.92163467407227,9.77398586273193,0.48964384198189,0.86691701412201,3.90411877632141,-0.78720003366470,0.20961436629295
30,1105833311,37.66963577270508,-85.42063140869141,8.72783756256104,9.77794170379639,0.50891667604446,0.78253078460693,3.78229761123657,-1.72005915641785,0.07428322732449
31,1105849978,37.99520111083984,-85.42136383056641,8.44655799865723,9.82540130615234,0.52750104665756,0.75781482458115,3.28387451171875,-1.81175267696381,-0.38216707110405
32,1105866645,38.28869628906250,-85.41699981689453,8.18341064453125,9.81357765197754,0.52308541536331,0.75029128789902,2.45511174201965,-1.53180599212646,-0.48913857340813
33,1105883312,38.62145614624023,-85.42294311523438,7.88075017929077,9.77733421325684,0.48560848832130,0.69614464044571,2.44035863876343,-2.13740515708923,-0.25248995423317
34,1105899979,38.91546249389648,-85.43108367919922,7.63085222244263,9.81219196319580,0.49195098876953,0.64864033460617,3.26001691818237,-2.08464336395264,0.03139477223158
35,1105916646,39.14562988281250,-85.43421173095703,7.44781827926636,9.82185745239258,0.49352011084557,0.68615859746933,3.40591239929199,-1.66027271747589,0.10092683881521
36,1105933313,39.36167526245117,-85.43863677978516,7.27190017700195,9.81154060363770,0.50004363059998,0.73716044425964,2.99725556373596,-1.69399821758270,0.17496673762798
37,1105949980,39.55775833129883,-85.44718933105469,7.10268115997314,9.76931762695312,0.48168656229973,0.66325569152832,2.22517395019531,-1.87090539932251,0.36863717436790
38,1105966647,39.74374389648438,-85.46111297607422,6.94095182418823,9.85918331146240,0.50149351358414,0.62297910451889,2.05794191360474,-2.08979773521423,0.59984940290451
39,1105983314,39.83207321166992,-85.46443176269531,6.88730430603027,9.90642452239990,0.51867538690567,0.69367516040802,2.66459178924561,-1.28563582897186,0.60157823562622
40,1105999981,39.91436386108398,-85.46706390380859,6.84226179122925,9.81556415557861,0.53290849924088,0.70464289188385,2.81085944175720,-1.21186494827271,0.59215921163559
41,1106016648,40.02249908447266,-85.47775268554688,6.75926351547241,9.85665130615234,0.55894064903259,0.56932240724564,2.07346987724304,-1.70565199851990,0.77110230922699
42,1106033315,39.96962356567383,-85.48087310791016,6.83684110641479,9.89645957946777,0.53141093254089,0.58136099576950,2.02895498275757,-0.85928046703339,1.05200970172882
43,1106049982,39.72916412353516,-85.46386718750000,7.10443353652954,9.79464149475098,0.49475163221359,0.61546677350998,2.13474822044373,0.62831163406372,0.98166435956955
44,1106066649,39.49724960327148,-85.45347595214844,7.36964464187622,9.80849647521973,0.54470747709274,0.67176032066345,2.52210187911987,0.33311238884926,1.22380685806274
45,1106083316,39.29096221923828,-85.45127868652344,7.59735345840454,9.79051303863525,0.52879935503006,0.66531205177307,1.80805802345276,-0.17789299786091,1.41745162010193
46,1106099983,39.08999252319336,-85.45257568359375,7.81947469711304,9.81586170196533,0.53889340162277,0.65165323019028,1.78218936920166,-0.35487675666809,1.52702283859253
47,1106116650,38.86420822143555,-85.44551086425781,8.06747055053711,9.81536483764648,0.53493463993073,0.62059545516968,1.81560111045837,0.11590386927128,1.30120849609375
48,1106133317,38.64295196533203,-85.42916107177734,8.30144596099854,9.76669502258301,0.53974956274033,0.67798882722855,1.29362702369690,0.50471746921539,0.91535311937332
49,1106149984,38.46870422363281,-85.41341400146484,8.47601127624512,9.82544326782227,0.51470965147018,0.64169734716415,0.55117887258530,0.30424684286118,0.72113192081451
50,1106166651,38.27938079833984,-85.39618682861328,8.68077564239502,9.87996196746826,0.46931093931198,0.59119832515717,1.45440447330475,0.46312886476517,0.78625875711441
51,1106183318,38.03312301635742,-85.37695312500000,8.95178508758545,9.82391929626465,0.51204830408096,0.64594328403473,2.00492382049561,0.75042647123337,0.97822588682175
52,1106199985,37.87911987304688,-85.36591339111328,9.12497997283936,9.72137069702148,0.46634873747826,0.67660748958588,1.65915858745575,0.07934173941612,0.90902668237686
53,1106216652,37.87923431396484,-85.36557769775391,9.14872360229492,9.76087284088135,0.42592862248421,0.67304229736328,1.98108482360840,-0.86581176519394,0.73145395517349
54,1106233319,37.94683456420898,-85.36743164062500,9.10874938964844,9.81764125823975,0.41895955801010,0.65428560972214,2.23582839965820,-1.16346943378448,0.57487058639526
55,1106249986,38.01845932006836,-85.37344360351562,9.06863021850586,9.78574180603027,0.39801388978958,0.68056935071945,2.47003126144409,-1.35843348503113,0.72648501396179
56,1106266653,38.03120422363281,-85.37818145751953,9.08803749084473,9.76158618927002,0.45941630005836,0.69909387826920,2.49565649032593,-1.13076221942902,0.91316324472427
57,1106283320,37.92836380004883,-85.38005065917969,9.21680831909180,9.74992084503174,0.52309185266495,0.72369009256363,2.09153938293457,-0.66443186998367,1.21851789951324
58,1106299987,37.79380416870117,-85.38700866699219,9.38142871856689,9.78940677642822,0.56574666500092,0.69406515359879,2.30071854591370,-0.80435407161713,1.54104578495026
59,1106316654,37.56775665283203,-85.39734649658203,9.63311100006104,9.81193542480469,0.56000357866287,0.66568726301193,2.03041481971741,-0.71287828683853,1.99618339538574
60,1106333321,37.31774139404297,-85.40424346923828,9.91154289245605,9.77589321136475,0.57583475112915,0.65259784460068,2.17230916023254,-0.48213350772858,1.97539877891541
61,1106349988,36.97147750854492,-85.40167999267578,10.28013896942139,9.67977523803711,0.61288803815842,0.64920026063919,1.82316958904266,0.23669338226318,1.97139048576355
62,1106366655,36.76164627075195,-85.41114807128906,10.50092601776123,9.74186229705811,0.59746432304382,0.61535543203354,1.15787971019745,-0.78415846824646,1.85117721557617
63,1106383322,36.69409942626953,-85.42148590087891,10.57321929931641,9.80967521667480,0.52639788389206,0.60018777847290,0.83290565013885,-1.24553263187408,1.30531907081604
64,1106399989,36.77765274047852,-85.43434143066406,10.51425647735596,9.82833766937256,0.48388627171516,0.59961897134781,2.02456212043762,-1.74311065673828,0.89136677980423
65,1106416656,36.91105270385742,-85.43438720703125,10.40671730041504,9.85736656188965,0.57189989089966,0.57038670778275,2.11740851402283,-1.27247750759125,0.25361055135727
66,1106433323,36.95468902587891,-85.42329406738281,10.37230777740479,9.83070850372314,0.53563892841339,0.57085406780243,1.09739542007446,-0.53157877922058,0.13151481747627
67,1106449990,36.91006851196289,-85.39695739746094,10.41351318359375,9.87285709381104,0.43037825822830,0.67577099800110,0.35864824056625,0.43453863263130,-0.13924345374107
68,1106466657,36.97782135009766,-85.36679840087891,10.33620643615723,9.80231952667236,0.45079880952835,0.73673444986343,0.01257583592087,0.26968890428543,-0.72911024093628
69,1106483324,37.03906631469727,-85.33982086181641,10.24796390533447,9.83736228942871,0.48430076241493,0.66190510988235,-1.03498983383179,0.08312600851059,-0.66085243225098
70,1106499991,37.03702163696289,-85.31375122070312,10.22775363922119,9.84617996215820,0.41203004121780,0.63667470216751,-0.80357927083969,0.22909282147884,-0.36283591389656
71,1106516658,36.92374420166016,-85.28715515136719,10.31487369537354,9.80048942565918,0.40324532985687,0.68753272294998,-1.05149102210999,0.56746858358383,0.04413708299398
72,1106533325,36.83733367919922,-85.26649475097656,10.37872219085693,9.73977661132812,0.39615240693092,0.72946619987488,-0.81164085865021,0.22811308503151,0.16327457129955
73,1106549992,36.82216644287109,-85.25839996337891,10.37868309020996,9.79773902893066,0.42750698328018,0.74837499856949,-0.35021519660950,-0.56657850742340,0.36580693721771
74,1106566659,36.84176254272461,-85.25517272949219,10.34160327911377,9.75432300567627,0.41876459121704,0.79906785488129,-0.48579609394073,-0.91451430320740,0.39734902977943
75,1106583326,36.97597503662109,-85.25727844238281,10.19187831878662,9.76096248626709,0.45406848192215,0.81109356880188,-0.34201920032501,-1.50305569171906,0.14008224010468
76,1106599993,37.18161773681641,-85.25967407226562,9.97480106353760,9.79053306579590,0.48426410555840,0.79343265295029,-0.09718739241362,-1.72263348102570,-0.11113350838423
77,1106616660,37.41275024414062,-85.27262878417969,9.73737049102783,9.78962421417236,0.47699066996574,0.77997797727585,0.21657457947731,-2.28882789611816,0.19545690715313
78,1106633327,37.61045455932617,-85.28524017333984,9.53865051269531,9.77570152282715,0.45286893844604,0.76835620403290,0.51584619283676,-2.15422010421753,0.33908015489578
79,1106649994,37.81967544555664,-85.30168151855469,9.33548164367676,9.74336910247803,0.49949973821640,0.77771484851837,0.94976365566254,-2.35352540016174,0.47459691762924
80,1106666661,38.09350204467773,-85.32479095458984,9.06402111053467,9.76384353637695,0.48044219613075,0.75353944301605,0.74212157726288,-2.87177276611328,0.46559408307076
81,1106683328,38.33720779418945,-85.34722137451172,8.82743644714355,9.80095195770264,0.47374343872070,0.70096766948700,1.02042913436890,-2.72321915626526,0.57990348339081
82,1106699995,38.49618911743164,-85.36257171630859,8.67791366577148,9.82186889648438,0.47680056095123,0.73095023632050,1.14048862457275,-2.13524127006531,0.66514259576797
83,1106716662,38.61449432373047,-85.38140869140625,8.56968879699707,9.79362487792969,0.45787999033928,0.76092505455017,1.17492485046387,-2.16994619369507,0.95474529266357
84,1106733329,38.75275802612305,-85.40824890136719,8.44261169433594,9.80452728271484,0.47616329789162,0.78075885772705,1.21097481250763,-2.59734559059143,1.18298029899597
85,1106749996,38.87765121459961,-85.43842315673828,8.32567977905273,9.79415035247803,0.49609681963921,0.78861987590790,1.04405689239502,-2.72977590560913,1.36503517627716
86,1106766663,39.00482559204102,-85.46983337402344,8.20153999328613,9.77667713165283,0.51113820075989,0.77778488397598,0.77406054735184,-2.79270625114441,1.38365554809570
87,1106783330,39.14194869995117,-85.50395202636719,8.05841350555420,9.81141185760498,0.47000315785408,0.74437582492828,0.22649951279163,-2.98135662078857,1.43234527111053
88,1106799997,39.28615951538086,-85.53485870361328,7.90711879730225,9.82310581207275,0.46950393915176,0.70876288414001,0.13446030020714,-2.84531521797180,1.28155064582825
89,1106816664,39.43463134765625,-85.55657958984375,7.75134372711182,9.80006027221680,0.42660012841225,0.72164553403854,0.13976210355759,-2.42949247360229,0.92726296186447
90,1106833331,39.66973876953125,-85.58146667480469,7.50652647018433,9.80267333984375,0.47581502795219,0.69115453958511,0.03138836100698,-2.82702112197876,0.73339408636093
91,1106849998,39.91941070556641,-85.60724639892578,7.24359178543091,9.77456474304199,0.47140750288963,0.73622864484787,-0.20097005367279,-2.92552089691162,0.72097826004028
92,1106866665,40.19763946533203,-85.63803100585938,6.95759391784668,9.76167774200439,0.44340258836746,0.76541149616241,0.13227036595345,-3.22561168670654,0.85611075162888
93,1106883332,40.54782867431641,-85.67342376708984,6.60924816131592,9.78002357482910,0.49502560496330,0.76195275783539,0.73748570680618,-3.59291124343872,0.82459449768066
94,1106899999,40.87215423583984,-85.70436096191406,6.27697181701660,9.80829715728760,0.53219509124756,0.67568457126617,0.11115271598101,-3.35092258453369,0.74058490991592
95,1106916666,41.14945983886719,-85.72744750976562,5.98891162872314,9.84639263153076,0.46967372298241,0.65220445394516,-0.04521921649575,-2.84875965118408,0.59267139434814
96,1106933333,41.49705123901367,-85.74716186523438,5.64519977569580,9.87425899505615,0.42154023051262,0.75965929031372,0.84571850299835,-2.85744881629944,0.29102429747581
97,1106950000,41.96268844604492,-85.76774597167969,5.19157028198242,9.85630321502686,0.48665297031403,0.76237142086029,1.35935568809509,-3.22411990165710,-0.01417022477835
98,1106966667,42.29384613037109,-85.78834533691406,4.87060689926147,9.89603137969971,0.52765405178070,0.60086119174957,1.22233402729034,-2.82260942459106,0.43499970436096
99,1106983334,42.41964340209961,-85.79946899414062,4.74527454376221,9.86950683593750,0.51867735385895,0.62839972972870,0.60860252380371,-1.82231795787811,0.70057773590088
100,1107000001,42.45727539062500,-85.80371856689453,4.69900465011597,9.79331207275391,0.52827972173691,0.66600930690765,0.04399621486664,-1.29305708408356,0.68909043073654
101,1107016668,42.51818466186523,-85.80988311767578,4.62375879287720,9.79500675201416,0.51498371362686,0.65717959403992,-0.31351223587990,-1.45590269565582,0.66407960653305
102,1107033335,42.52474594116211,-85.80904388427734,4.60119152069092,9.83325290679932,0.47501426935196,0.61161321401596,-0.39242497086525,-0.98222142457962,0.54560816287994
103,1107050002,42.51322174072266,-85.80268859863281,4.59261846542358,9.83235836029053,0.48134884238243,0.61225616931915,-0.64756590127945,-0.70805031061172,0.37783214449883
104,1107066669,42.53413772583008,-85.79616546630859,4.54763031005859,9.81512641906738,0.48444494605064,0.62274897098541,-0.84808778762817,-0.79827105998993,0.24510715901852
105,1107083336,42.59425354003906,-85.79383850097656,4.46643972396851,9.79153823852539,0.47289496660233,0.61448180675507,-0.66331768035889,-1.09315001964569,0.30084034800529
106,1107100003,42.62771987915039,-85.79113006591797,4.41224431991577,9.82202243804932,0.48325914144516,0.61280250549316,-0.68516534566879,-1.00344169139862,0.37451532483101
107,1107116670,42.66391754150391,-85.78732299804688,4.36071252822876,9.78910350799561,0.49426683783531,0.67065060138702,-0.36645367741585,-0.94556945562363,0.33535343408585
108,1107133337,42.82484436035156,-85.79704284667969,4.17910051345825,9.75694656372070,0.49714481830597,0.70132428407669,-0.65627425909042,-1.93309295177460,0.47206127643585
109,1107150004,43.08254623413086,-85.81849670410156,3.89828920364380,9.75165176391602,0.47193893790245,0.66509366035461,-0.78271126747131,-2.73361754417419,0.62851649522781
110,1107166671,43.34800338745117,-85.84004211425781,3.61561965942383,9.74690818786621,0.46323624253273,0.65917056798935,-0.41496413946152,-2.74621939659119,0.64967256784439
111,1107183338,43.68656158447266,-85.86256408691406,3.25679016113281,9.78596496582031,0.44625151157379,0.65478557348251,-0.59772360324860,-3.01752185821533,0.46938470005989
112,1107200005,44.07123565673828,-85.88705444335938,2.85360765457153,9.79635715484619,0.44824278354645,0.63574028015137,-0.49228891730309,-3.22659826278687,0.42818671464920
113,1107216672,44.43924713134766,-85.90719604492188,2.46986770629883,9.86189079284668,0.47073194384575,0.62775725126266,-0.34693038463593,-2.97786664962769,0.32702291011810
114,1107233339,44.72880554199219,-85.91927337646484,2.16236352920532,9.88895320892334,0.48475563526154,0.59753370285034,-0.48278659582138,-2.39860415458679,0.23128910362720
115,1107250006,44.89088439941406,-85.92249298095703,1.97337889671326,9.87855243682861,0.45034193992615,0.57720565795898,-1.00445318222046,-1.66469752788544,0.22698612511158
116,1107266673,44.92786407470703,-85.91956329345703,1.91565799713135,9.90380001068115,0.45241835713387,0.51146072149277,-0.65272688865662,-1.00698888301849,0.35974955558777
117,1107283340,44.84914779663086,-85.90590667724609,1.98005926609039,9.91703319549561,0.49548023939133,0.48106017708778,-0.31565093994141,-0.18023656308651,0.26777437329292
118,1107300007,44.68885040283203,-85.88415527343750,2.12602138519287,9.88025951385498,0.50015044212341,0.50036859512329,-0.31941595673561,0.40946382284164,0.18090887367725
119,1107316674,44.42164611816406,-85.86237335205078,2.37198710441589,9.83258628845215,0.48959645628929,0.49886256456375,-0.75773888826370,0.71255165338516,0.49818620085716
120,1107333341,44.10258483886719,-85.83698272705078,2.67168450355530,9.81407165527344,0.42039868235588,0.50404840707779,-0.63418328762054,1.04518389701843,0.51853555440903
121,1107350008,43.67563629150391,-85.80530548095703,3.09063673019409,9.79315280914307,0.43464830517769,0.49942386150360,0.00839456263930,1.67154252529144,0.66361868381500
122,1107366675,43.14093017578125,-85.76575469970703,3.62549185752869,9.78213882446289,0.47018265724182,0.50943893194199,0.48576402664185,2.38249945640564,0.73634588718414
123,1107383342,42.55951690673828,-85.72625732421875,4.19772529602051,9.76825332641602,0.48955777287483,0.52575784921646,-0.08028941601515,2.51672935485840,0.90027356147766
124,1107400009,41.99956893920898,-85.69024658203125,4.74741220474243,9.77397060394287,0.41574713587761,0.56760036945343,-0.15304228663445,2.30119872093201,1.02116560935974
125,1107416676,41.51904678344727,-85.65842437744141,5.22772836685181,9.78235626220703,0.42235082387924,0.64392155408859,0.47708135843277,1.90851116180420,1.00638067722321
126,1107433343,41.21616363525391,-85.63983154296875,5.53402328491211,9.76704692840576,0.47977328300476,0.63930732011795,0.71169370412827,0.80124849081039,0.96157109737396
127,1107450010,40.89093780517578,-85.62879180908203,5.85491228103638,9.79240608215332,0.48825025558472,0.49047645926476,0.28924420475960,0.50751560926437,1.32527780532837
128,1107466677,40.49682235717773,-85.61876678466797,6.24503564834595,9.78095626831055,0.46434557437897,0.50669997930527,0.25615262985229,0.66042351722717,1.61608469486237
129,1107483344,40.09495925903320,-85.60778045654297,6.64053583145142,9.78347206115723,0.46135929226875,0.55699610710144,0.11024346947670,0.71550995111465,1.61397790908813
130,1107500011,39.81784439086914,-85.60091400146484,6.91561460494995,9.73545646667480,0.48206320405006,0.55796688795090,0.38071998953819,0.16438230872154,1.36257004737854
131,1107516678,39.62600708007812,-85.59705352783203,7.10079336166382,9.75706863403320,0.48873257637024,0.60812520980835,0.14167664945126,-0.22989320755005,1.15974307060242
132,1107533345,39.45454788208008,-85.59762573242188,7.26182126998901,9.79075336456299,0.49593454599380,0.57661485671997,-0.10070913285017,-0.51822173595428,1.25365829467773
133,1107550012,39.27895355224609,-85.59478759765625,7.43444395065308,9.80580615997314,0.48089882731438,0.57676613330841,0.36630645394325,-0.32411593198776,1.16561484336853
134,1107566679,39.19430160522461,-85.59349060058594,7.52077007293701,9.76866149902344,0.48059555888176,0.60077714920044,0.64834064245224,-0.64787328243256,0.91758137941360
135,1107583346,39.12597274780273,-85.59237670898438,7.58666849136353,9.78443717956543,0.50163888931274,0.63747221231461,0.40957909822464,-0.71680986881256,0.85347288846970
136,1107600013,39.06926727294922,-85.59216308593750,7.64386796951294,9.81356430053711,0.47734183073044,0.64045614004135,0.57771366834641,-0.77822917699814,0.84940040111542
137,1107616680,38.96563339233398,-85.59246826171875,7.74982881546021,9.78865814208984,0.51037883758545,0.64202612638474,0.67478579282761,-0.66594308614731,1.04798853397369
138,1107633347,38.87218856811523,-85.59144592285156,7.83586215972900,9.78736019134521,0.47908315062523,0.66067653894424,0.10245719552040,-0.67066848278046,0.93540775775909
139,1107650014,38.84538269042969,-85.59260559082031,7.85742664337158,9.76470947265625,0.45865952968597,0.63197433948517,0.25413560867310,-0.94252169132233,0.77234452962875
140,1107666681,38.84458923339844,-85.59504699707031,7.85556888580322,9.78838443756104,0.47049760818481,0.63033729791641,0.43520456552505,-1.07488811016083,0.74536156654358
141,1107683348,38.85140609741211,-85.59469604492188,7.84634399414062,9.79522609710693,0.44628679752350,0.65009742975235,0.43296986818314,-0.96679610013962,0.61186176538467
142,1107700015,38.88417434692383,-85.59153747558594,7.81683635711670,9.79587841033936,0.44121912121773,0.66472876071930,0.76326483488083,-0.89210307598114,0.42978745698929
143,1107716682,38.95227050781250,-85.59424591064453,7.75417375564575,9.77975654602051,0.48037910461426,0.66295909881592,0.90248274803162,-1.26374351978302,0.53462028503418
144,1107733349,39.02422714233398,-85.59669494628906,7.68280601501465,9.79828834533691,0.46477469801903,0.63767993450165,0.61273902654648,-1.28227424621582,0.49821189045906
145,1107750016,39.06968688964844,-85.59664916992188,7.63757228851318,9.81708240509033,0.46418538689613,0.62622064352036,0.60584920644760,-1.09023010730743,0.49996626377106
146,1107766683,39.09069061279297,-85.59353637695312,7.61782121658325,9.80604171752930,0.45694169402122,0.61369848251343,0.65660715103149,-0.86497294902802,0.46716284751892
147,1107783350,39.16105270385742,-85.59246826171875,7.55248880386353,9.80190944671631,0.47214782238007,0.66808694601059,0.86287260055542,-1.10231935977936,0.38618189096451
148,1107800017,39.26715850830078,-85.59611511230469,7.44820785522461,9.79533958435059,0.48356229066849,0.66572469472885,0.69710719585419,-1.42512893676758,0.42052847146988
149,1107816684,39.34846496582031,-85.59971618652344,7.36929702758789,9.79246520996094,0.45755296945572,0.67081511020660,0.70771092176437,-1.36609172821045,0.52215975522995
150,1107833351,39.40993118286133,-85.60483551025391,7.31273269653320,9.78600311279297,0.48377460241318,0.71447700262070,0.88123059272766,-1.35573792457581,0.64952534437180
151,1107850018,39.48549652099609,-85.61103820800781,7.24134349822998,9.79957580566406,0.44844853878021,0.68149769306183,0.83467948436737,-1.44822514057159,0.63707745075226
152,1107866685,39.57033157348633,-85.61429595947266,7.16098022460938,9.82499599456787,0.47131150960922,0.63127136230469,0.88740968704224,-1.34718978404999,0.50685614347458
153,1107883352,39.62983703613281,-85.61581420898438,7.10339689254761,9.83046245574951,0.46649387478828,0.66539639234543,0.69179254770279,-1.19841814041138,0.51582056283951
154,1107900019,39.70415115356445,-85.61948394775391,7.03889036178589,9.83454132080078,0.43939644098282,0.70236700773239,1.15599691867828,-1.31006371974945,0.56556034088135
155,1107916686,39.86123657226562,-85.62821197509766,6.89715051651001,9.81733322143555,0.44719535112381,0.71718800067902,1.51294875144958,-1.77072131633759,0.49007984995842
156,1107933353,39.97480773925781,-85.63951873779297,6.79724597930908,9.83695125579834,0.50652325153351,0.62132823467255,1.40369772911072,-1.77713727951050,0.75047135353088
157,1107950020,39.99073791503906,-85.64620971679688,6.78673505783081,9.80531787872314,0.49466696381569,0.60362464189529,0.92459928989410,-1.28888237476349,0.87625533342361
158,1107966687,39.93819427490234,-85.64783477783203,6.83947229385376,9.77188682556152,0.48652863502502,0.60746788978577,0.57594639062881,-0.88450902700424,0.90992325544357
159,1107983354,39.90544509887695,-85.64773559570312,6.88342714309692,9.78315448760986,0.46455088257790,0.62040793895721,1.21794164180756,-0.83301466703415,0.81279981136322
160,1108000021,39.86628341674805,-85.64594268798828,6.93473148345947,9.78438758850098,0.47122183442116,0.65370172262192,1.28356122970581,-0.72034430503845,0.76316231489182
161,1108016688,39.90883255004883,-85.64778900146484,6.89843368530273,9.74975681304932,0.46939304471016,0.65551751852036,0.94849592447281,-1.14755117893219,0.60016310214996
162,1108033355,39.96908950805664,-85.65151977539062,6.84557485580444,9.77301692962646,0.45499011874199,0.64082920551300,1.03292810916901,-1.27718985080719,0.61422449350357
163,1108050022,40.03736114501953,-85.65823364257812,6.79064369201660,9.78366661071777,0.44736811518669,0.63544541597366,1.38977718353271,-1.43620657920837,0.73601299524307
164,1108066689,40.11718750000000,-85.66090393066406,6.72707986831665,9.80766677856445,0.46780166029930,0.63266289234161,1.55139315128326,-1.26613795757294,0.54071611166000
165,1108083356,40.21812820434570,-85.66740417480469,6.64475440979004,9.80261135101318,0.47530147433281,0.64682215452194,1.69742393493652,-1.49363029003143,0.62252306938171
166,1108100023,40.34682464599609,-85.67691040039062,6.53319263458252,9.79784107208252,0.48914706707001,0.66357022523880,1.61710906028748,-1.71804237365723,0.64162373542786
167,1108116690,40.47279357910156,-85.69207000732422,6.42328882217407,9.81109905242920,0.51522517204285,0.62964051961899,1.55153405666351,-1.97575092315674,0.87447518110275
168,1108133357,40.55340957641602,-85.70440673828125,6.35883140563965,9.82011699676514,0.48002564907074,0.61352396011353,1.55401849746704,-1.70930206775665,0.92011702060699
169,1108150024,40.64556503295898,-85.71586608886719,6.28359889984131,9.81409263610840,0.46513935923576,0.61046588420868,1.61452865600586,-1.69421601295471,0.84724897146225
170,1108166691,40.73188781738281,-85.72703552246094,6.21706390380859,9.80307960510254,0.49082770943642,0.59848201274872,1.73799443244934,-1.66563200950623,0.87176018953323
171,1108183358,40.76183319091797,-85.73740386962891,6.20297384262085,9.77234935760498,0.48498305678368,0.62046873569489,1.52761185169220,-1.46630156040192,1.01292467117310
172,1108200025,40.78260421752930,-85.74955749511719,6.19580459594727,9.77750587463379,0.49839395284653,0.64179980754852,1.38283622264862,-1.53386771678925,1.11330091953278
173,1108216692,40.80020904541016,-85.76113128662109,6.19092369079590,9.78324508666992,0.48945221304893,0.64281785488129,1.32664191722870,-1.49133789539337,1.08916091918945
174,1108233359,40.80203247070312,-85.77311706542969,6.19985818862915,9.80436897277832,0.49027305841446,0.59598600864410,1.19859755039215,-1.48927593231201,1.16737568378448
175,1108250026,40.81790924072266,-85.78401947021484,6.18961811065674,9.80695247650146,0.51218897104263,0.62753492593765,0.90798294544220,-1.47946000099182,1.04814851284027
176,1108266693,40.88796234130859,-85.79905700683594,6.12001895904541,9.80001544952393,0.48145246505737,0.62131929397583,0.62500751018524,-1.84120750427246,1.02013468742371
177,1108283360,40.96449279785156,-85.81745910644531,6.04486751556396,9.80691146850586,0.45485031604767,0.61407148838043,0.66536033153534,-2.00932908058167,1.13569915294647
178,1108300027,41.00955963134766,-85.83570861816406,5.99964475631714,9.79697990417480,0.48691201210022,0.61268162727356,0.53994774818420,-1.91525375843048,1.22563815116882
179,1108316694,41.06898498535156,-85.85371398925781,5.93757772445679,9.77199077606201,0.47308146953583,0.63036710023880,0.39920595288277,-1.94846069812775,1.16062033176422
180,1108333361,41.19961547851562,-85.87574005126953,5.80409908294678,9.79412841796875,0.46569296717644,0.62873661518097,0.39205998182297,-2.34071898460388,1.09826612472534
181,1108350028,41.33718490600586,-85.89516448974609,5.66235685348511,9.81928539276123,0.48057010769844,0.58092862367630,0.35437092185020,-2.23491311073303,0.96948558092117
182,1108366695,41.42925643920898,-85.90853881835938,5.55803203582764,9.78435420989990,0.48377382755280,0.56231576204300,-0.14386652410030,-1.85200309753418,0.85162860155106
183,1108383362,41.48193359375000,-85.91788482666016,5.49379873275757,9.80854701995850,0.44846406579018,0.58657240867615,-0.12539978325367,-1.56562757492065,0.82787293195724
184,1108400029,41.55645370483398,-85.92878723144531,5.42086219787598,9.85096359252930,0.44357022643089,0.61615842580795,0.66504013538361,-1.65773081779480,0.86320555210114
185,1108416696,41.68265533447266,-85.94518280029297,5.30099391937256,9.84219646453857,0.49277400970459,0.61762595176697,0.97076612710953,-2.02738618850708,0.92812103033066
186,1108433363,41.72655487060547,-85.95979309082031,5.25579023361206,9.86023426055908,0.49846404790878,0.52544176578522,0.51090294122696,-1.73787307739258,1.09908568859100
187,1108450030,41.64934539794922,-85.96570587158203,5.32315921783447,9.79322528839111,0.45767864584923,0.53868621587753,-0.00883638020605,-1.03655874729156,1.11140537261963
188,1108466697,41.58327102661133,-85.96662902832031,5.37991428375244,9.75341892242432,0.43735691905022,0.58364808559418,0.00009604762454,-0.84171009063721,0.87548685073853
189,1108483364,41.62873840332031,-85.97167968750000,5.33047246932983,9.80696487426758,0.44318377971649,0.59328109025955,0.33238238096237,-1.31688976287842,0.69699198007584
190,1108500031,41.67416000366211,-85.97396850585938,5.28062343597412,9.78518295288086,0.44399693608284,0.57484483718872,0.27700775861740,-1.21069943904877,0.59981745481491
191,1108516698,41.74296951293945,-85.97713470458984,5.20334053039551,9.77007865905762,0.42552101612091,0.59513729810715,0.07455217093229,-1.31117820739746,0.53835976123810
192,1108533365,41.86235427856445,-85.98151397705078,5.07710409164429,9.79300689697266,0.43920412659645,0.59293276071548,0.16896057128906,-1.51312148571014,0.44311887025833
193,1108550032,42.00256347656250,-85.98535919189453,4.93499612808228,9.81257343292236,0.42830219864845,0.57570463418961,0.48320275545120,-1.52133035659790,0.36375796794891
194,1108566699,42.13281631469727,-85.98551177978516,4.80597400665283,9.82275009155273,0.41394972801208,0.58483678102493,0.69446921348572,-1.32482969760895,0.26472648978233
195,1108583366,42.31071472167969,-85.98873901367188,4.63314723968506,9.79026222229004,0.41904571652412,0.63475775718689,0.91094779968262,-1.58388936519623,0.25001198053360
196,1108600033,42.51102447509766,-85.99449920654297,4.44095659255981,9.79556179046631,0.44692233204842,0.60680741071701,0.99472039937973,-1.75596177577972,0.28628593683243
197,1108616700,42.70076370239258,-85.99801635742188,4.26372575759888,9.81094264984131,0.44931802153587,0.60478430986404,1.33323717117310,-1.62410140037537,0.26343303918839
198,1108633367,42.93712234497070,-85.99923706054688,4.03469133377075,9.78340911865234,0.45126268267632,0.59865063428879,1.04706633090973,-1.65977978706360,0.00539787625894
199,1108650034,43.17680358886719,-85.99806213378906,3.80163168907166,9.82415390014648,0.45361581444740,0.56471198797226,1.03798663616180,-1.56510233879089,-0.10296304523945
200,1108666701,43.33674621582031,-85.99474334716797,3.64902734756470,9.85754680633545,0.47908639907837,0.57149010896683,1.02058279514313,-1.25311422348022,0.05959435552359
201,1108683368,43.51174545288086,-85.99430084228516,3.47954797744751,9.82634449005127,0.48373243212700,0.57389259338379,0.92032200098038,-1.42304170131683,0.12018119543791
202,1108700035,43.65925979614258,-85.99405670166016,3.33456659317017,9.81831169128418,0.47296494245529,0.54418498277664,0.72943049669266,-1.36333847045898,0.20447258651257
203,1108716702,43.72644805908203,-85.98824310302734,3.27250337600708,9.80570030212402,0.49869510531425,0.55423259735107,0.88285052776337,-0.88667321205139,0.23134030401707
204,1108733369,43.79705810546875,-85.98072814941406,3.19851255416870,9.75360488891602,0.50033831596375,0.59208774566650,0.38114899396896,-0.84701192378998,0.12112887203693
205,1108750036,43.90689468383789,-85.97649383544922,3.07682275772095,9.77055549621582,0.47823339700699,0.56816291809082,-0.09411385655403,-1.12744534015656,0.11601911485195
206,1108766703,44.01299285888672,-85.97362518310547,2.96030259132385,9.81143951416016,0.47478994727135,0.56141853332520,-0.03692070767283,-1.16970646381378,0.18379032611847
207,1108783370,44.09665298461914,-85.97036743164062,2.86846685409546,9.82562446594238,0.46116724610329,0.59143370389938,0.10715712606907,-1.08910310268402,0.24978142976761
208,1108800037,44.15911483764648,-85.96521759033203,2.79829096794128,9.81609439849854,0.45958188176155,0.58664369583130,0.10796392709017,-0.94476276636124,0.23319722712040
209,1108816704,44.25511169433594,-85.95979309082031,2.69717907905579,9.77858543395996,0.45442077517509,0.58388829231262,0.30565556883812,-1.01254689693451,0.11964333057404
210,1108833371,44.37510299682617,-85.95625305175781,2.57427835464478,9.78466129302979,0.43678227066994,0.56626528501511,0.40427729487419,-1.17183232307434,0.14082503318787
211,1108850038,44.45013809204102,-85.95576477050781,2.49778079986572,9.82375812530518,0.47337061166763,0.52588772773743,0.52706456184387,-1.15864169597626,0.40687692165375
212,1108866705,44.44446182250977,-85.95301055908203,2.49994182586670,9.82447528839111,0.48928284645081,0.50927489995956,0.36177298426628,-0.83310425281525,0.54847681522369
213,1108883372,44.42750167846680,-85.94430541992188,2.51303291320801,9.82354736328125,0.45777571201324,0.55965858697891,0.34260189533234,-0.54881608486176,0.33598101139069
214,1108900039,44.47134780883789,-85.93788909912109,2.47155117988586,9.82879829406738,0.46539449691772,0.59734880924225,0.72307848930359,-0.79804039001465,0.25409716367722
215,1108916706,44.53504180908203,-85.93803405761719,2.41247344017029,9.85627746582031,0.49763742089272,0.54868608713150,0.84463644027710,-1.14762830734253,0.49339663982391
216,1108933373,44.42655181884766,-85.93505096435547,2.51598453521729,9.84393501281738,0.51051729917526,0.46572041511536,0.31677144765854,-0.51389318704605,0.84458512067795
217,1108950040,44.23622512817383,-85.92215728759766,2.69153690338135,9.75858592987061,0.49013352394104,0.50497478246689,-0.30826166272163,0.11907984316349,0.65364241600037
218,1108966707,44.10824584960938,-85.90729522705078,2.80341362953186,9.73652839660645,0.46897667646408,0.51626127958298,-0.36888691782951,0.02237909473479,0.37665393948555
219,1108983374,44.03353500366211,-85.90065002441406,2.86613011360168,9.82264328002930,0.49345579743385,0.52264481782913,-0.15352252125740,-0.48657730221748,0.57540851831436
220,1109000041,43.93424606323242,-85.89282989501953,2.95462465286255,9.80063533782959,0.49310892820358,0.54783922433853,-0.09371685981750,-0.35042011737823,0.59954839944839
221,1109016708,43.82332229614258,-85.88453674316406,3.04751181602478,9.76572799682617,0.45721101760864,0.58897590637207,-0.50802785158157,-0.32168269157410,0.60200726985931
222,1109033375,43.75103759765625,-85.88053894042969,3.10259509086609,9.76868343353271,0.44183436036110,0.58305811882019,-0.45856979489326,-0.62264472246170,0.66739654541016
223,1109050042,43.71574783325195,-85.88253784179688,3.12412261962891,9.79212188720703,0.44852259755135,0.55965465307236,-0.23880000412464,-0.97087502479553,0.80115884542465
224,1109066709,43.68679046630859,-85.88496398925781,3.14700651168823,9.82740402221680,0.43644550442696,0.58029460906982,0.22076225280762,-0.99851113557816,0.83536458015442
225,1109083376,43.69466018676758,-85.88610839843750,3.14004993438721,9.80115222930908,0.44921293854713,0.57294416427612,0.64465248584747,-1.02978420257568,0.68871915340424
226,1109100043,43.72225952148438,-85.88762664794922,3.11386179924011,9.83286094665527,0.49295517802238,0.54761517047882,0.63933783769608,-1.10639178752899,0.64201438426971
227,1109116710,43.71656417846680,-85.88996124267578,3.11557674407959,9.84115219116211,0.46930566430092,0.53789746761322,0.33438020944595,-1.04922437667847,0.75465899705887
228,1109133377,43.67353820800781,-85.88848876953125,3.15510678291321,9.80222320556641,0.46717533469200,0.56289464235306,0.38355654478073,-0.77514272928238,0.72209233045578
229,1109150044,43.59311676025391,-85.88743591308594,3.22906088829041,9.75893211364746,0.48380383849144,0.57077205181122,0.19555935263634,-0.69105619192123,0.84550720453262
230,1109166711,43.50191497802734,-85.88349151611328,3.30995392799377,9.76853084564209,0.49214687943459,0.55092990398407,-0.05436295270920,-0.55034005641937,0.75193125009537
231,1109183378,43.46272659301758,-85.88363647460938,3.33723688125610,9.78015899658203,0.48634096980095,0.55614441633224,-0.12426000833511,-0.87749105691910,0.74646282196045
232,1109200045,43.43481445312500,-85.88477325439453,3.35290312767029,9.82217693328857,0.46164619922638,0.52314060926437,-0.15079477429390,-0.95527690649033,0.74972850084305
233,1109216712,43.29741668701172,-85.88182067871094,3.48340678215027,9.84756946563721,0.45081526041031,0.55701714754105,0.14622288942337,-0.43765059113503,0.94007563591003
234,1109233379,43.09594345092773,-85.87854766845703,3.67099618911743,9.79772853851318,0.47153580188751,0.57926458120346,-0.31978735327721,-0.26547560095787,1.11225068569183
235,1109250046,42.92621231079102,-85.87669372558594,3.82098340988159,9.77385234832764,0.44636064767838,0.58252942562103,-0.60389626026154,-0.42634898424149,1.04829585552216
236,1109266713,42.82712173461914,-85.87564849853516,3.90353846549988,9.78039741516113,0.45662340521812,0.56159442663193,-0.43174049258232,-0.67408788204193,0.88050699234009
237,1109283380,42.72627639770508,-85.87270355224609,3.99383449554443,9.82692623138428,0.46102389693260,0.52965968847275,-0.08228079229593,-0.56931912899017,0.82947373390198
238,1109300047,42.60633087158203,-85.86487579345703,4.10314416885376,9.83101749420166,0.47375443577766,0.55566024780273,-0.09184713661671,-0.29047358036041,0.68273854255676
239,1109316714,42.46163177490234,-85.85816192626953,4.24324750900269,9.77430534362793,0.42305761575699,0.60680627822876,0.26149922609329,-0.25067147612572,0.82893586158752
240,1109333381,42.38471221923828,-85.85848999023438,4.31357049942017,9.76909255981445,0.44105798006058,0.57424610853195,0.18974529206753,-0.76004409790039,0.89281392097473
241,1109350048,42.30229949951172,-85.86360168457031,4.39532136917114,9.79652404785156,0.47046566009521,0.50648289918900,0.53111135959625,-0.94783645868301,1.12857890129089
242,1109366715,42.15427017211914,-85.85944366455078,4.54103994369507,9.82053089141846,0.48737514019012,0.55069601535797,0.42435756325722,-0.34205755591393,0.95059609413147
243,1109383382,42.05280685424805,-85.85168457031250,4.63360643386841,9.79795551300049,0.46272176504135,0.63576382398605,0.04005826264620,-0.33948993682861,0.64099621772766
244,1109400049,42.04422760009766,-85.84970855712891,4.63937282562256,9.76525688171387,0.45617944002151,0.66395497322083,0.38788512349129,-0.85974144935608,0.60266041755676
245,1109416716,42.02527999877930,-85.85462188720703,4.66157150268555,9.86463451385498,0.47914826869965,0.52158468961716,0.76291912794113,-1.11448550224304,0.92908149957657
246,1109433383,41.85007095336914,-85.85045623779297,4.83595323562622,9.85871696472168,0.52704954147339,0.52215713262558,0.50088840723038,-0.26374679803848,1.04975581169128
247,1109450050,41.67483520507812,-85.83849334716797,5.00017166137695,9.76282024383545,0.47199141979218,0.54966664314270,-0.09671995043755,0.05878114327788,0.70815271139145
248,1109466717,41.59500122070312,-85.82707214355469,5.07475280761719,9.74338436126709,0.44096067547798,0.57845509052277,0.24960213899612,-0.23013010621071,0.44671747088432
249,1109483384,41.55484771728516,-85.82205200195312,5.11522626876831,9.79738712310791,0.49690502882004,0.57292848825455,0.59092980623245,-0.61097806692123,0.58642196655273
250,1109500051,41.52542495727539,-85.82195281982422,5.14366006851196,9.78738784790039,0.48961198329926,0.55101966857910,0.51770311594009,-0.86773270368576,0.74604040384293
251,1109516718,41.49229431152344,-85.81933593750000,5.17538738250732,9.76518726348877,0.46574929356575,0.61327981948853,0.45869138836861,-0.74264025688171,0.65008234977722
252,1109533385,41.48755645751953,-85.81732177734375,5.17810583114624,9.74829006195068,0.45035868883133,0.62709182500839,0.44552654027939,-0.85939574241638,0.58579450845718
253,1109550052,41.50533294677734,-85.81736755371094,5.16390323638916,9.78596305847168,0.47470292448997,0.59642410278320,0.79543447494507,-1.00196886062622,0.61582541465759
254,1109566719,41.49073028564453,-85.81751251220703,5.18409109115601,9.81993770599365,0.45030215382576,0.61224687099457,0.91535305976868,-0.90262991189957,0.72821384668350
255,1109583386,41.54722976684570,-85.82083892822266,5.13311624526978,9.83581542968750,0.46289694309235,0.62870591878891,0.88399022817612,-1.25622606277466,0.62230539321899
256,1109600053,41.64905929565430,-85.82556915283203,5.03638648986816,9.81702613830566,0.46040019392967,0.60525685548782,0.90282839536667,-1.45241928100586,0.53590089082718
257,1109616720,41.75423049926758,-85.83096313476562,4.93797159194946,9.81621360778809,0.45555657148361,0.59420943260193,1.00664949417114,-1.47553479671478,0.54701679944992
258,1109633387,41.82819366455078,-85.83195495605469,4.87767362594604,9.85113048553467,0.45849230885506,0.56308346986771,1.38279747962952,-1.17979776859283,0.50269401073456
259,1109650054,41.83841705322266,-85.82599639892578,4.88080072402954,9.82952690124512,0.46714672446251,0.61064046621323,1.38429594039917,-0.68257844448090,0.43197736144066
260,1109666721,41.87430572509766,-85.82326507568359,4.85143947601318,9.78797912597656,0.49151834845543,0.63045251369476,0.98477625846863,-0.91492414474487,0.44981661438942
261,1109683388,41.89429855346680,-85.82476806640625,4.83476114273071,9.79428100585938,0.48814406991005,0.59045809507370,0.79168218374252,-1.06574440002441,0.65879064798355
262,1109700055,41.88735961914062,-85.82176971435547,4.84880447387695,9.81225013732910,0.47326231002808,0.56828469038010,0.96297985315323,-0.79248255491257,0.58882957696915
263,1109716722,41.85810852050781,-85.81399536132812,4.88465166091919,9.78124713897705,0.50584173202515,0.62403917312622,0.96259564161301,-0.50218814611435,0.45970311760902
264,1109733389,41.83578872680664,-85.80642700195312,4.90369176864624,9.78554058074951,0.50950580835342,0.62016081809998,0.37715342640877,-0.55906122922897,0.41352343559265
265,1109750056,41.79087829589844,-85.80287933349609,4.94212198257446,9.78881645202637,0.45767915248871,0.62518131732941,0.16948562860489,-0.69031345844269,0.64481890201569
266,1109766723,41.78344726562500,-85.80297088623047,4.94933366775513,9.84014225006104,0.44855588674545,0.60592275857925,0.56198751926422,-0.93852603435516,0.68471068143845
267,1109783390,41.79039382934570,-85.79727935791016,4.94880723953247,9.83503532409668,0.46410638093948,0.62880152463913,0.99220389127731,-0.69911140203476,0.42743110656738
268,1109800057,41.80631637573242,-85.79150390625000,4.93366861343384,9.76470184326172,0.45692172646523,0.63285124301910,0.62092226743698,-0.74440741539001,0.37904870510101
269,1109816724,41.84384155273438,-85.78862762451172,4.90019226074219,9.79075527191162,0.44375085830688,0.63794934749603,0.81997138261795,-0.92465692758560,0.43126025795937
270,1109833391,41.87565612792969,-85.78778839111328,4.87591075897217,9.80999755859375,0.48844957351685,0.59432512521744,1.03201901912689,-0.98776662349701,0.54224008321762
271,1109850058,41.85131454467773,-85.78643798828125,4.90593242645264,9.81747531890869,0.51313608884811,0.57308477163315,0.98376452922821,-0.80741465091705,0.71074593067169
272,1109866725,41.79390716552734,-85.77914428710938,4.95923376083374,9.79099369049072,0.46632671356201,0.60591322183609,0.32320022583008,-0.47119688987732,0.53902566432953
273,1109883392,41.80455017089844,-85.77376556396484,4.94609069824219,9.80061435699463,0.44468459486961,0.65002965927124,0.43269458413124,-0.74754512310028,0.39408344030380
274,1109900059,41.89553451538086,-85.77465057373047,4.86161518096924,9.80460357666016,0.48101347684860,0.65766096115112,0.98106235265732,-1.24938738346100,0.41978573799133
275,1109916726,41.90399551391602,-85.77896118164062,4.86421680450439,9.87768936157227,0.53289741277695,0.51972180604935,1.20923316478729,-1.14369666576385,0.83647871017456
276,1109933393,41.72518539428711,-85.77182006835938,5.03891706466675,9.83765411376953,0.51275849342346,0.54259526729584,0.30164715647697,-0.12168592959642,0.94604980945587
277,1109950060,41.54970169067383,-85.75942230224609,5.19947576522827,9.73906612396240,0.48141819238663,0.64068436622620,-0.31011852622032,0.07193966209888,0.69809323549271
278,1109966727,41.44910049438477,-85.75472259521484,5.29109287261963,9.73586368560791,0.47545456886292,0.61009955406189,0.04001344367862,-0.46894291043282,0.77023160457611
279,1109983394,41.40173339843750,-85.75740051269531,5.32790803909302,9.78438758850098,0.46975788474083,0.57840770483017,-0.04824152216315,-0.96617507934570,0.88525819778442
280,1110000061,41.36246490478516,-85.75790405273438,5.35998773574829,9.79281997680664,0.45041355490685,0.61087876558304,0.11439912021160,-0.88497638702393,0.78023964166641
281,1110016728,41.31878662109375,-85.75688171386719,5.39737129211426,9.76174831390381,0.42496773600578,0.63083165884018,0.17497316002846,-0.80898350477219,0.74757063388824
282,1110033395,41.31964492797852,-85.75947570800781,5.39425659179688,9.76495838165283,0.43746644258499,0.61772346496582,0.44984865188599,-1.07824969291687,0.74707120656967
283,1110050062,41.34807968139648,-85.76520538330078,5.36903047561646,9.84090900421143,0.43555894494057,0.59837353229523,0.80439883470535,-1.29123854637146,0.80788218975067
284,1110066729,41.35343551635742,-85.77052307128906,5.37029075622559,9.83401203155518,0.44992408156395,0.62836474180222,0.97494113445282,-1.19077301025391,0.87184995412827
285,1110083396,41.40621185302734,-85.77909851074219,5.32469558715820,9.81183052062988,0.44891032576561,0.63733673095703,0.98815709352493,-1.47951757907867,0.84746658802032
286,1110100063,41.45447158813477,-85.78834533691406,5.27940225601196,9.82070541381836,0.47642859816551,0.55413568019867,0.76227873563766,-1.49347651004791,0.86337202787399
287,1110116730,41.44946670532227,-85.79495239257812,5.28748321533203,9.82973194122314,0.48049619793892,0.55336987972260,0.76887410879135,-1.23564636707306,0.95447647571564
288,1110133397,41.40552139282227,-85.79858398437500,5.33654451370239,9.83617782592773,0.48508858680725,0.57269155979156,0.86845618486404,-0.97957050800323,0.96510565280914
289,1110150064,41.35325241088867,-85.79891204833984,5.38464450836182,9.78969860076904,0.47272789478302,0.60252511501312,0.37561666965485,-0.82691890001297,0.83207339048386
290,1110166731,41.31055068969727,-85.79849243164062,5.42369556427002,9.80016231536865,0.46008825302124,0.60394459962845,0.35635590553284,-0.83032536506653,0.77548223733902
291,1110183398,41.23722076416016,-85.79769897460938,5.49634027481079,9.79044532775879,0.46377813816071,0.58799588680267,0.50061941146851,-0.69904732704163,0.85060411691666
292,1110200065,41.19091796875000,-85.79653167724609,5.54299163818359,9.80369853973389,0.44951492547989,0.60295212268829,0.54190707206726,-0.77379804849625,0.76366186141968
293,1110216732,41.14760589599609,-85.79420471191406,5.58538436889648,9.77385520935059,0.45569413900375,0.59687012434006,0.51598703861237,-0.72629928588867,0.70456045866013
294,1110233399,41.09239196777344,-85.79299926757812,5.63874387741089,9.79185104370117,0.45191794633865,0.63823109865189,0.44506546854973,-0.75040084123611,0.78755837678909
295,1110250066,41.06856155395508,-85.79597473144531,5.66229248046875,9.80781078338623,0.45185256004333,0.59529191255569,0.54405850172043,-1.02505862712860,0.85483020544052
296,1110266733,41.03773117065430,-85.80049896240234,5.69298362731934,9.81172752380371,0.48174464702606,0.57240605354309,0.58811241388321,-1.06507861614227,0.93238562345505
297,1110283400,41.00083541870117,-85.80464935302734,5.73487758636475,9.82244682312012,0.43392014503479,0.60857695341110,0.85386973619461,-1.03310096263885,0.96728265285492
298,1110300067,40.95623397827148,-85.80744934082031,5.78704881668091,9.81699657440186,0.42731684446335,0.59821301698685,1.03177559375763,-0.93239200115204,0.94040232896805
299,1110316734,40.92288208007812,-85.80819702148438,5.83655405044556,9.82753467559814,0.41311085224152,0.61605858802795,1.50256252288818,-0.83866220712662,0.83631223440170
300,1110333401,40.85876083374023,-85.80904388427734,5.91383695602417,9.81064319610596,0.43866264820099,0.59692090749741,1.35598099231720,-0.77683311700821,0.94996857643127
301,1110350068,40.76619338989258,-85.80904388427734,6.01879882812500,9.80591011047363,0.47675707936287,0.57012522220612,1.31849062442780,-0.65556347370148,1.00691211223602
302,1110366735,40.57193374633789,-85.80670166015625,6.21787929534912,9.80086326599121,0.46018376946449,0.56423217058182,0.89556717872620,-0.27504193782806,1.22905719280243
303,1110383402,40.39119338989258,-85.80152130126953,6.40447854995728,9.81612300872803,0.44434139132500,0.63978838920593,0.89002203941345,-0.19723059237003,1.08344924449921
304,1110400069,40.31964492797852,-85.79886627197266,6.48614358901978,9.81459236145020,0.42957034707069,0.66923183202744,1.17790877819061,-0.59863281250000,0.82442796230316
305,1110416736,40.22564697265625,-85.80101013183594,6.59617376327515,9.86744403839111,0.49100092053413,0.57492744922638,1.53385460376740,-0.73971384763718,1.10787713527679
306,1110433403,39.95932388305664,-85.79653167724609,6.86484003067017,9.84298610687256,0.46777689456940,0.56576234102249,0.66489291191101,0.00808080658317,1.38530135154724
307,1110450070,39.66633605957031,-85.78732299804688,7.14831447601318,9.75469970703125,0.46185350418091,0.60949099063873,-0.02692535333335,0.26734536886215,1.26009356975555
308,1110466737,39.48925399780273,-85.77886962890625,7.31739616394043,9.73563575744629,0.45462891459465,0.59252512454987,0.10578044503927,-0.09086745232344,0.91274690628052
309,1110483404,39.35330581665039,-85.77201080322266,7.44738578796387,9.79071140289307,0.46824878454208,0.59148693084717,0.19943968951702,-0.27359482645988,0.83929610252380
310,1110500071,39.23871994018555,-85.76789093017578,7.55579614639282,9.78424167633057,0.47220087051392,0.62291717529297,0.18790118396282,-0.45672568678856,0.86706036329269
311,1110516738,39.15727615356445,-85.76885986328125,7.62467098236084,9.81032657623291,0.45636048913002,0.64517724514008,-0.17284731566906,-0.81307524442673,0.93597137928009
312,1110533405,39.08745956420898,-85.76973724365234,7.67925596237183,9.77512359619141,0.44277715682983,0.64090400934219,-0.34226250648499,-0.84721696376801,0.87930327653885
313,1110550072,39.04880142211914,-85.77195739746094,7.70742034912109,9.81856632232666,0.45052030682564,0.61326259374619,-0.04135170578957,-0.97429436445236,0.83491647243500
314,1110566739,39.02635574340820,-85.77033996582031,7.72143936157227,9.80299949645996,0.44494041800499,0.62007021903992,0.08060957491398,-0.83820122480392,0.64274436235428
315,1110583406,39.08259201049805,-85.77330780029297,7.65397500991821,9.79320240020752,0.45647373795509,0.63276356458664,-0.03941794484854,-1.28187716007233,0.54462206363678
316,1110600073,39.13204574584961,-85.77571868896484,7.58865690231323,9.81119823455811,0.45613428950310,0.59220546483994,-0.35029208660126,-1.25050151348114,0.52792251110077
317,1110616740,39.11954116821289,-85.77325439453125,7.58458900451660,9.85159397125244,0.46588814258575,0.59023541212082,-0.45440128445625,-0.85121881961823,0.54334777593613
318,1110633407,39.08781433105469,-85.76385498046875,7.59358167648315,9.81506252288818,0.46248772740364,0.58778262138367,-0.78935778141022,-0.49406895041466,0.33281779289246
319,1110650074,39.12779998779297,-85.75720977783203,7.52802562713623,9.78749275207520,0.44791379570961,0.60642874240875,-0.92796093225479,-0.82729023694992,0.18094733357430
320,1110666741,39.16473388671875,-85.75061798095703,7.46775579452515,9.78469657897949,0.44830575585365,0.61550462245941,-0.80389297008514,-0.81750607490540,0.20109169185162
321,1110683408,39.16667556762695,-85.74255371093750,7.44510030746460,9.82429981231689,0.43580347299576,0.60629886388779,-0.64912819862366,-0.64029181003571,0.27230781316757
322,1110700075,39.15403747558594,-85.72740173339844,7.44054508209229,9.80486202239990,0.41828393936157,0.63824927806854,-0.48702546954155,-0.26555246114731,0.06333380192518
323,1110716742,39.14559555053711,-85.71467590332031,7.43171548843384,9.76110363006592,0.42920923233032,0.64286619424820,-0.46334654092789,-0.39015823602676,0.14534565806389
324,1110733409,39.16939544677734,-85.70523071289062,7.38552474975586,9.78429698944092,0.45281934738159,0.62012732028961,-0.73782497644424,-0.64253300428391,0.13800761103630
325,1110750076,39.13644027709961,-85.69152069091797,7.39996767044067,9.81812667846680,0.45972502231598,0.60978269577026,-0.52365165948868,-0.26643612980843,0.17868059873581
326,1110766743,39.10070800781250,-85.67546081542969,7.41479969024658,9.81212615966797,0.44063165783882,0.60904955863953,-0.67165458202362,-0.16703321039677,0.10344327986240
327,1110783410,39.13026809692383,-85.66311645507812,7.36877965927124,9.81460094451904,0.44648560881615,0.60874575376511,-0.40840724110603,-0.51818329095840,0.03240646421909
328,1110800077,39.14815902709961,-85.64936065673828,7.33489990234375,9.83436965942383,0.42021152377129,0.59917920827866,-0.38175728917122,-0.41295355558395,0.01828106306493
329,1110816744,39.17404174804688,-85.63282775878906,7.30151414871216,9.80140399932861,0.41603448987007,0.64989697933197,0.16100783646107,-0.27148181200027,-0.09282042086124
330,1110833411,39.24606704711914,-85.61979675292969,7.22561693191528,9.76312065124512,0.43649041652679,0.66419827938080,0.34355595707893,-0.57109916210175,-0.10607499629259
331,1110850078,39.32604980468750,-85.61357879638672,7.13710212707520,9.75933456420898,0.47886702418327,0.59731048345566,0.10768220573664,-0.92717975378036,0.11475130170584
332,1110866745,39.31878662109375,-85.60885620117188,7.13548183441162,9.81100845336914,0.50642603635788,0.57178753614426,0.07157470285892,-0.73352211713791,0.46839228272438
333,1110883412,39.26196670532227,-85.59847259521484,7.17514944076538,9.81892776489258,0.46631932258606,0.64435052871704,-0.46590781211853,-0.35672086477280,0.40154945850372
334,1110900079,39.32758712768555,-85.59211730957031,7.09210586547852,9.80491065979004,0.43113684654236,0.72348594665527,-0.45585477352142,-0.90127241611481,0.11900299787521
335,1110916746,39.47512054443359,-85.59158325195312,6.93552446365356,9.81150054931641,0.44569033384323,0.63051599264145,0.05271733552217,-1.39253687858582,0.08127550035715
336,1110933413,39.48604202270508,-85.58474731445312,6.91671657562256,9.89964675903320,0.48847058415413,0.47785282135010,0.10432692617178,-0.69735699892044,0.33316358923912
337,1110950080,39.31023025512695,-85.56655120849609,7.08162117004395,9.82343006134033,0.47747731208801,0.60001248121262,-0.04972705617547,0.37648746371269,0.55577647686005
338,1110966747,39.13027572631836,-85.54456329345703,7.24322080612183,9.74869155883789,0.46597057580948,0.64817035198212,-0.50163745880127,0.55266439914703,0.39982062578201
339,1110983414,39.04537200927734,-85.53283691406250,7.31619215011597,9.78931331634521,0.45570179820061,0.63223052024841,-0.14829753339291,-0.19101952016354,0.47512200474739
340,1111000081,38.96333312988281,-85.52394104003906,7.38807582855225,9.80044269561768,0.46534681320190,0.60628873109818,-0.06007458269596,-0.33501407504082,0.58425766229630
341,1111016748,38.88610839843750,-85.51615905761719,7.45680379867554,9.78817558288574,0.45897760987282,0.63716214895248,0.02031727507710,-0.38727682828903,0.60605412721634
342,1111033415,38.84393692016602,-85.50965881347656,7.48935890197754,9.73730468750000,0.44372507929802,0.66536051034927,0.00569242192432,-0.55069863796234,0.52881896495819
343,1111050082,38.84529113769531,-85.51158142089844,7.48244857788086,9.74733066558838,0.44624048471451,0.63811504840851,0.26616078615189,-1.06039142608643,0.70303660631180
344,1111066749,38.85548400878906,-85.51668548583984,7.47816085815430,9.85031795501709,0.44772872328758,0.59537506103516,0.95359289646149,-1.21461844444275,0.84275394678116
345,1111083416,38.85012817382812,-85.51660156250000,7.49632835388184,9.84600830078125,0.46216726303101,0.64593052864075,1.31781828403473,-0.89132195711136,0.71115589141846
346,1111100083,38.82754898071289,-85.51720428466797,7.52866220474243,9.79037284851074,0.47466120123863,0.64348250627518,1.16573011875153,-0.89389598369598,0.80224746465683
347,1111116750,38.81674575805664,-85.51939392089844,7.54666233062744,9.81278419494629,0.49324265122414,0.62272059917450,1.00292277336121,-1.00273704528809,0.80178630352020
348,1111133417,38.79793548583984,-85.52062225341797,7.56977748870850,9.84071445465088,0.50362473726273,0.57326990365982,0.82658588886261,-0.94525593519211,0.78748798370361
349,1111150084,38.72739028930664,-85.51152801513672,7.64239025115967,9.84129714965820,0.47763910889626,0.59351038932800,0.71195620298386,-0.31299358606339,0.58015322685242
350,1111166751,38.50122833251953,-85.47875213623047,7.86110734939575,9.85049629211426,0.32972443103790,0.59792244434357,0.09596439450979,1.22625291347504,0.23213431239128
351,1111183418,38.28013229370117,-85.42705535888672,8.12131977081299,9.79753303527832,0.30365383625031,0.58166790008545,2.86213564872742,2.25562715530396,-0.31361466646194
352,1111200085,38.15103912353516,-85.36798095703125,8.31422710418701,9.81983280181885,0.49452772736549,0.65288770198822,4.30746078491211,2.39366674423218,-0.80696648359299
353,1111216752,38.08217620849609,-85.31692504882812,8.42581176757812,9.84412860870361,0.50151908397675,0.68962913751602,3.09568524360657,1.80376803874969,-0.82252627611160
354,1111233419,37.93555068969727,-85.27246093750000,8.62297534942627,9.80972576141357,0.51330411434174,0.72380596399307,3.56492328643799,1.74127304553986,-0.22039732336998
355,1111250086,37.87265396118164,-85.23728942871094,8.74155235290527,9.78916549682617,0.59037768840790,0.71631824970245,3.92227149009705,1.07909524440765,-0.17852054536343
356,1111266753,37.91284561157227,-85.21283721923828,8.73711109161377,9.84464645385742,0.60666871070862,0.65481793880463,2.73669791221619,0.18744014203548,-0.25733077526093
357,1111283420,37.89407348632812,-85.18968963623047,8.78093338012695,9.82636451721191,0.71554344892502,0.70240181684494,2.05527186393738,0.27877503633499,-0.02748242579401
358,1111300087,37.83341217041016,-85.16880798339844,8.84584426879883,9.74188804626465,0.72928571701050,0.70868450403214,0.81002080440521,0.24001018702984,0.14013347029686
359,1111316754,37.84395217895508,-85.14465332031250,8.83484554290771,9.75745964050293,0.76581615209579,0.71728706359863,0.52050769329071,0.15378506481647,-0.27848690748215
360,1111333421,37.87117385864258,-85.11681365966797,8.80212593078613,9.78899860382080,0.74423736333847,0.78431946039200,0.24947407841682,0.27080944180489,-0.50770777463913
361,1111350088,37.90842437744141,-85.09639739990234,8.76152801513672,9.76918220520020,0.66841816902161,0.90129721164703,0.38150757551193,-0.11667865514755,-0.25762534141541
362,1111366755,38.01145935058594,-85.09248352050781,8.64512157440186,9.71065998077393,0.67971813678741,0.90943926572800,-0.19780686497688,-1.13991880416870,0.04712096229196
363,1111383422,38.20164871215820,-85.10127258300781,8.43665790557861,9.71899414062500,0.70211827754974,0.87211889028549,-0.47815066576004,-2.02919149398804,0.14397539198399
364,1111400089,38.41189575195312,-85.10726928710938,8.19870281219482,9.78701496124268,0.75786668062210,0.91860270500183,-1.07198107242584,-1.99082410335541,-0.08057755976915
365,1111416756,38.66477584838867,-85.11593627929688,7.90007781982422,9.81439399719238,0.72196483612061,0.98894107341766,-2.08810114860535,-2.31323695182800,-0.20607979595661
366,1111433423,38.95670318603516,-85.12525177001953,7.57907676696777,9.87810802459717,0.73866927623749,0.86854499578476,-1.14272332191467,-2.41892743110657,-0.26947119832039
367,1111450090,39.10433197021484,-85.12380218505859,7.40528583526611,9.99337482452393,0.79240471124649,0.78331106901169,-0.95528960227966,-1.44871830940247,-0.08007810264826
368,1111466757,39.17599487304688,-85.11785888671875,7.25155639648438,10.02760124206543,0.88633561134338,0.68788540363312,-4.30016756057739,-1.17278003692627,-0.17253996431828
369,1111483424,39.00585174560547,-85.08275604248047,7.30148267745972,9.97835826873779,0.87585681676865,0.73934459686279,-6.60306262969971,0.85725712776184,-0.47916883230209
370,1111500091,38.90167236328125,-85.05284118652344,7.32082557678223,9.88687801361084,0.85973739624023,0.77411985397339,-4.54655551910400,0.49712970852852,-0.38994696736336
371,1111516758,38.99127578735352,-85.05121612548828,7.22730731964111,9.91195201873779,0.88195002079010,0.79202485084534,0.35511365532875,-1.18953061103821,0.22748558223248
372,1111533425,39.14117050170898,-85.07805633544922,7.12589645385742,9.85998725891113,0.88964825868607,0.74634653329849,3.51733517646790,-2.53164911270142,1.26848828792572
373,1111550092,38.97618103027344,-85.08354949951172,7.32207965850830,9.84706687927246,0.88345217704773,0.69320988655090,2.42502975463867,-0.57640099525452,1.65352380275726
374,1111566759,38.72173690795898,-85.09048461914062,7.59079647064209,9.73765850067139,0.83760201931000,0.67506414651871,1.40599000453949,-0.41164734959602,1.99910330772400
375,1111583426,38.72124481201172,-85.13132476806641,7.61943626403809,9.70477581024170,0.77908986806870,0.76205170154572,2.31235933303833,-2.77901625633240,2.31950545310974
376,1111600093,38.86460876464844,-85.20008850097656,7.48548507690430,9.70966625213623,0.78583317995071,0.75434798002243,1.16917490959167,-4.60125780105591,2.72524881362915
377,1111616760,39.22991180419922,-85.30622863769531,7.08097457885742,9.71508121490479,0.84841006994247,0.61927193403244,-1.70667684078217,-7.16975116729736,3.11830186843872
378,1111633427,39.06667327880859,-85.37281036376953,7.16442394256592,9.72615051269531,0.82502591609955,0.44717609882355,-4.21778488159180,-3.80857038497925,3.51255774497986
379,1111650094,38.69164276123047,-85.42893981933594,7.46032047271729,9.69066238403320,0.84175354242325,0.47756928205490,-4.20568323135376,-2.68080496788025,3.88344335556030
380,1111666761,38.36736297607422,-85.50460052490234,7.66193819046021,9.58686351776123,0.89308005571365,0.51745122671127,-6.82523536682129,-3.91765570640564,4.24202108383179
381,1111683428,38.25240325927734,-85.62158966064453,7.56414842605591,9.59309577941895,0.89402252435684,0.52290356159210,-12.18100070953369,-6.75623846054077,4.66814279556274
382,1111700095,37.77856063842773,-85.72900390625000,7.78641939163208,9.80608367919922,0.80228322744370,0.16118933260441,-14.56496047973633,-5.42462730407715,5.43085670471191
383,1111716762,36.69958877563477,-85.80128479003906,8.66631698608398,9.76713466644287,0.74132382869720,0.15654054284096,-11.52539348602295,-2.06407094001770,6.39363718032837
384,1111733429,35.48791885375977,-85.85811614990234,9.69683647155762,9.63984489440918,0.74496853351593,0.28234651684761,-10.45104122161865,-1.05938649177551,6.29308176040649
385,1111750096,34.33299255371094,-85.89984130859375,10.69439983367920,9.59804916381836,0.70938646793365,0.22898231446743,-9.02799987792969,-0.55663454532623,5.62097787857056
386,1111766763,33.14568710327148,-85.92456054687500,11.76659584045410,9.64349269866943,0.64146322011948,0.28687837719917,-6.51419401168823,0.34242263436317,5.30050373077393
387,1111783430,31.91347122192383,-85.95262145996094,12.91396903991699,9.66438579559326,0.67989921569824,0.30375427007675,-4.69172191619873,0.25037059187889,5.66615104675293
388,1111800097,30.54626274108887,-85.98229217529297,14.19395160675049,9.65071010589600,0.72840869426727,0.33232915401459,-4.88101339340210,0.30232593417168,6.20312213897705
389,1111816764,29.04710006713867,-86.00693511962891,15.60766410827637,9.70299053192139,0.68926286697388,0.36494117975235,-4.77498912811279,0.71374285221100,6.52045059204102
390,1111833431,27.35723495483398,-86.02153015136719,17.22064208984375,9.75647354125977,0.64954459667206,0.39832279086113,-4.30988264083862,1.43861460685730,6.99626445770264
391,1111850098,25.47735023498535,-86.02478027343750,19.02087783813477,9.75596714019775,0.66434288024902,0.50139111280441,-4.50603055953979,2.18788218498230,7.44804048538208
392,1111866765,23.60259819030762,-86.03143310546875,20.81656265258789,9.71941089630127,0.56689196825027,0.57841062545776,-4.45419073104858,1.77942359447479,7.60143613815308
393,1111883432,21.67348480224609,-86.04012298583984,22.68453407287598,9.78172016143799,0.47674912214279,0.57015532255173,-3.29509973526001,1.53953480720520,8.01032829284668
394,1111900099,19.67513465881348,-86.05295562744141,24.61409378051758,9.79966640472412,0.53359180688858,0.58440607786179,-3.77485227584839,1.13758194446564,8.39494323730469
395,1111916766,17.57415199279785,-86.06726837158203,26.62614440917969,9.90347766876221,0.38183847069740,0.53628516197205,-4.99261474609375,0.87952762842178,8.78796386718750
396,1111933433,15.19538307189941,-86.05524444580078,28.90190887451172,10.02034282684326,0.25339850783348,0.62115597724915,-5.86961412429810,2.36954092979431,9.44995784759521
397,1111950100,12.82212066650391,-86.01995086669922,31.17298126220703,9.92903518676758,0.09845656156540,0.74993574619293,-5.79935741424561,3.39548301696777,9.27160072326660
398,1111966767,10.50936508178711,-85.98946380615234,33.37017059326172,9.86427783966064,0.01349349506199,0.84049040079117,-6.60495471954346,2.69585943222046,9.27955532073975
399,1111983434,8.25936317443848,-85.98180389404297,35.46576309204102,9.93969821929932,0.04547111317515,0.72032511234283,-8.92525005340576,0.93977522850037,9.26257514953613
400,1112000101,6.04150724411011,-85.97440338134766,37.47466659545898,9.93217563629150,0.04327711462975,0.79477441310883,-12.19829463958740,0.53088760375977,8.98795032501221
401,1112016768,3.68049526214600,-85.97898101806641,39.58139801025391,9.94191837310791,-0.05540717765689,0.77781081199646,-14.91877460479736,-0.47238838672638,9.51266193389893
402,1112033435,1.23790121078491,-85.97664642333984,41.75352096557617,9.94581127166748,-0.14088508486748,0.79776865243912,-15.90181827545166,-0.42412120103836,9.77974128723145
403,1112050102,-1.10093986988068,-85.97119903564453,43.79761123657227,9.82511711120605,-0.34061717987061,0.75872725248337,-17.34339523315430,-0.62213331460953,9.26368522644043
404,1112066769,-3.17740201950073,-85.97353363037109,45.59576797485352,9.66543960571289,-0.50195324420929,0.66787242889404,-16.31760597229004,-1.36964690685272,8.22356796264648
405,1112083436,-4.97599363327026,-85.98776245117188,47.17312622070312,9.58519554138184,-0.71813082695007,0.48263594508171,-12.85771465301514,-2.27378225326538,7.21295833587646
406,1112100103,-6.61508321762085,-86.00669097900391,48.67621994018555,9.59831142425537,-0.82250040769577,0.31022644042969,-7.73958444595337,-2.72053074836731,6.80522584915161
407,1112116770,-8.18798351287842,-86.02113342285156,50.20141983032227,9.73653030395508,-0.87234407663345,0.17896437644958,-2.45555377006531,-2.64410209655762,6.84870243072510
408,1112133437,-9.79202270507812,-86.02458190917969,51.84736633300781,9.89779186248779,-0.94539511203766,0.03663791716099,2.91866397857666,-2.22068548202515,7.38723659515381
409,1112150104,-11.47865200042725,-85.99488830566406,53.65550231933594,10.05559349060059,-0.92157149314880,0.09981627017260,7.67499589920044,-0.58370077610016,8.40107727050781
410,1112166771,-13.23775291442871,-85.94189453125000,55.56690979003906,10.02681636810303,-0.85062325000763,0.22012150287628,9.49307823181152,0.43347600102425,9.20515346527100
411,1112183438,-15.10535240173340,-85.88886260986328,57.60755920410156,9.84710979461670,-0.73081386089325,0.31580978631973,10.72771358489990,0.01716692559421,9.88698959350586
412,1112200105,-17.17706108093262,-85.83825683593750,59.83046340942383,9.71883296966553,-0.60884875059128,0.36144542694092,9.37313270568848,-0.68744528293610,10.73666477203369
413,1112216772,-19.45045089721680,-85.79867553710938,62.22113037109375,9.65068435668945,-0.48668611049652,0.38139224052429,7.30019426345825,-1.97735297679901,11.31936645507812
414,1112233439,-21.68278884887695,-85.76238250732422,64.51578521728516,9.72302246093750,-0.39024770259857,0.31057488918304,4.00239038467407,-2.46423745155334,10.89418220520020
415,1112250106,-23.77304267883301,-85.72840881347656,66.59998321533203,9.72486305236816,-0.31652417778969,0.24932014942169,-0.15495689213276,-2.64672780036926,9.98230361938477
416,1112266773,-25.45799446105957,-85.68039703369141,68.21297454833984,9.76211738586426,-0.34244459867477,0.28666630387306,-4.03526878356934,-1.33257782459259,8.43753719329834
417,1112283440,-26.75878715515137,-85.62950897216797,69.41682434082031,9.75904560089111,-0.55826824903488,0.37001919746399,-5.38704299926758,-0.61666417121887,6.90996837615967
418,1112300107,-27.77013778686523,-85.56783294677734,70.30844879150391,9.72945117950439,-0.65756517648697,0.45739662647247,-6.69819688796997,0.47318837046623,6.00786399841309
419,1112316774,-28.56284713745117,-85.49263000488281,71.00051116943359,9.66677093505859,-0.74171543121338,0.40842443704605,-5.61158895492554,1.51913428306580,5.63993644714355
420,1112333441,-29.19539070129395,-85.39776611328125,71.55358123779297,9.70630073547363,-0.76299887895584,0.37003803253174,-4.32083749771118,2.77547574043274,5.71275424957275
421,1112350108,-29.72342300415039,-85.29817962646484,72.01437377929688,9.76464748382568,-0.74978554248810,0.31099957227707,-3.57796621322632,3.16240668296814,5.54429864883423
422,1112366775,-30.01215171813965,-85.18997955322266,72.27075958251953,9.74798488616943,-0.77655100822449,0.30628508329391,-1.44595229625702,4.05790328979492,4.99537992477417
423,1112383442,-30.09933662414551,-85.07407379150391,72.34133148193359,9.72722434997559,-0.69736397266388,0.30155009031296,-0.46008101105690,4.91375255584717,4.45924234390259
424,1112400109,-30.03436088562012,-84.95520019531250,72.25811004638672,9.71797180175781,-0.60314714908600,0.25352567434311,-0.53499817848206,5.44355106353760,3.84853291511536
425,1112416776,-29.78978919982910,-84.82774353027344,72.00904083251953,9.71599483489990,-0.57127094268799,0.29192468523979,0.33927223086357,6.36013936996460,3.32208895683289
426,1112433443,-29.50588417053223,-84.71662139892578,71.71486663818359,9.67193126678467,-0.54580926895142,0.35819125175476,-0.00172245420981,5.65168571472168,2.55724883079529
427,1112450110,-29.08010482788086,-84.61970520019531,71.28163146972656,9.71510601043701,-0.60468435287476,0.29246264696121,0.21216280758381,5.31548023223877,1.39692938327789
428,1112466777,-28.44916534423828,-84.53449249267578,70.65029907226562,9.71352386474609,-0.60724002122879,0.25771239399910,0.68513339757919,5.25929307937622,-0.02264163084328
429,1112483444,-27.60655021667480,-84.45439910888672,69.82637023925781,9.74109268188477,-0.63620465993881,0.27427548170090,1.88930189609528,5.53081321716309,-1.27037715911865
430,1112500111,-26.61429023742676,-84.37541961669922,68.87052917480469,9.80832481384277,-0.69543552398682,0.36335158348083,3.00076508522034,5.82676887512207,-2.14635753631592
431,1112516778,-25.52673149108887,-84.30213165283203,67.84354400634766,9.84047126770020,-0.69653534889221,0.45399683713913,4.47379064559937,5.68181324005127,-2.86844372749329
432,1112533445,-24.48839759826660,-84.23530578613281,66.88108062744141,9.83209133148193,-0.70067620277405,0.36970907449722,5.38314342498779,5.13459825515747,-2.87292575836182
433,1112550112,-23.36614990234375,-84.14006805419922,65.83460998535156,9.76447868347168,-0.72344696521759,0.52860605716705,5.40786075592041,6.85887193679810,-2.83811855316162
434,1112566779,-22.26507186889648,-84.04681396484375,64.81403350830078,9.72661590576172,-0.67462056875229,0.57320791482925,5.69660472869873,6.66877317428589,-2.97834777832031
435,1112583446,-21.25145149230957,-83.97071838378906,63.88584899902344,9.75225353240967,-0.69718956947327,0.54102194309235,5.97324800491333,5.45830488204956,-3.04943609237671
436,1112600113,-20.21226882934570,-83.90358734130859,62.95198822021484,9.85641956329346,-0.72889500856400,0.53710943460464,7.17052745819092,4.92084789276123,-3.45492362976074
437,1112616780,-19.12296676635742,-83.83156585693359,61.98912429809570,9.84593105316162,-0.83546030521393,0.60703498125076,8.46004962921143,5.21147537231445,-3.69983243942261
438,1112633447,-17.96211433410645,-83.74724578857422,60.96401596069336,9.85563468933105,-0.83543735742569,0.61866348981857,9.04461193084717,5.97579813003540,-4.04525947570801
439,1112650114,-16.68426322937012,-83.65016937255859,59.82343673706055,9.91626167297363,-0.77703118324280,0.69419825077057,9.19115447998047,6.86682605743408,-4.77855062484741
440,1112666781,-15.33519363403320,-83.55238342285156,58.61704635620117,9.94205951690674,-0.81246840953827,0.77636307477951,9.55616188049316,6.93334293365479,-5.47854661941528
441,1112683448,-13.91843795776367,-83.45312500000000,57.34465789794922,9.98407554626465,-0.82747495174408,0.76355773210526,9.69334411621094,7.01258850097656,-6.19837951660156
442,1112700115,-12.36720275878906,-83.33217620849609,55.95353698730469,9.99697113037109,-0.75783455371857,0.85248476266861,10.70059108734131,8.31721210479736,-7.04773712158203
443,1112716782,-10.81211376190186,-83.19980621337891,54.56481552124023,9.91714096069336,-0.77552127838135,0.97688657045364,11.10236644744873,8.81872367858887,-7.31920766830444
444,1112733449,-9.28021907806396,-83.07102966308594,53.21298980712891,9.84185886383057,-0.78119915723801,0.98345458507538,11.92119216918945,8.35750198364258,-7.54727649688721
445,1112750116,-7.72193002700806,-82.94392395019531,51.83416366577148,9.89318943023682,-0.79850697517395,1.07157671451569,11.92671203613281,8.10120773315430,-8.17923069000244
446,1112766783,-6.08845853805542,-82.82936096191406,50.39063644409180,9.93462657928467,-0.74084895849228,1.14238905906677,12.60249042510986,7.17767763137817,-9.16894531250000
447,1112783450,-4.37604999542236,-82.71629333496094,48.85810089111328,9.88018989562988,-0.82685959339142,1.19747006893158,12.06705760955811,6.88516807556152,-10.24797153472900
448,1112800117,-2.52948999404907,-82.60227203369141,47.20212173461914,9.74857044219971,-0.93582123517990,1.38931894302368,12.79385757446289,6.66509103775024,-11.60730361938477
449,1112816784,-0.55741471052170,-82.51486206054688,45.44531250000000,9.66336154937744,-0.95640957355499,1.56278693675995,14.33965587615967,4.67235851287842,-12.85428905487061
450,1112833451,1.57474911212921,-82.45059204101562,43.55949020385742,9.60763835906982,-0.99807590246201,1.86426901817322,16.29698944091797,2.79451632499695,-14.18440723419189
451,1112850118,3.96404409408569,-82.38779449462891,41.49554061889648,9.41810035705566,-1.08366334438324,2.14869236946106,21.13878631591797,2.03804564476013,-15.84950160980225
452,1112866785,6.60853815078735,-82.26285552978516,39.34840774536133,9.13559341430664,-1.50670778751373,2.61042428016663,31.53627204895020,4.94836378097534,-17.17189407348633
453,1112883452,9.14806365966797,-81.97255706787109,37.61916351318359,8.99482822418213,-1.63665080070496,2.92758202552795,50.14026260375977,14.37172603607178,-15.83562850952148
454,1112900119,10.62924861907959,-81.30475616455078,37.22787857055664,8.48349475860596,-1.58518183231354,2.97296261787415,66.19915771484375,37.97049331665039,-9.61012363433838
455,1112916786,10.47538566589355,-80.17611694335938,38.66342544555664,6.26216936111450,-1.12371551990509,2.70961761474609,76.34170532226562,68.18829345703125,1.85022103786469
456,1112933453,9.01374340057373,-78.84597778320312,41.41871643066406,2.32216429710388,-0.01496079936624,1.91942751407623,75.42697906494141,82.80532836914062,16.77571105957031
457,1112950120,6.78751468658447,-77.61189270019531,44.60435104370117,-1.23251819610596,1.39072191715240,0.50992792844772,54.11666870117188,77.74097442626953,29.06694602966309
458,1112966787,3.88801217079163,-76.58405303955078,47.58875274658203,-2.77694439888000,1.58509790897369,-0.65461331605911,1.14229023456573,64.16416168212891,34.69549179077148
459,1112983454,1.02919483184814,-75.33312225341797,50.15670013427734,-1.88332128524780,0.49524477124214,-1.68058669567108,-21.48239135742188,75.63590240478516,34.75657653808594
460,1113000121,-0.31320351362228,-74.05593872070312,51.48522186279297,-0.71717804670334,-0.01329371705651,-0.55601471662521,-3.21241497993469,75.81974029541016,21.16187286376953
461,1113016788,-0.00206896080635,-72.76247406005859,51.22620010375977,0.40685153007507,0.81082004308701,-0.40382122993469,4.19368648529053,76.68261718750000,-3.62806296348572
462,1113033455,1.19854331016541,-71.62690734863281,49.89411544799805,0.55864870548248,1.69183111190796,0.28756523132324,-3.67678213119507,66.93107604980469,-24.56401824951172
463,1113050122,2.62953734397888,-70.36412811279297,48.09640502929688,2.56532406806946,1.29179835319519,1.10068154335022,-15.76883602142334,73.59984588623047,-37.05984115600586
464,1113066789,4.42852973937988,-69.54200744628906,46.12421417236328,2.48450160026550,1.23069334030151,0.13214048743248,-2.90661406517029,45.78421783447266,-42.96329116821289
465,1113083456,6.03520011901855,-68.63893127441406,44.29039382934570,3.27864336967468,0.93663716316223,-1.23094248771667,-6.09693479537964,49.41977691650391,-43.50287628173828
466,1113100123,7.15685462951660,-67.63526916503906,42.78887176513672,2.34373545646667,0.88709664344788,-0.86691105365753,-16.07788085937500,55.00987243652344,-39.72932052612305
467,1113116790,7.90255117416382,-66.43965911865234,41.58044433593750,0.86165338754654,1.58827948570251,0.30919453501701,-21.80081748962402,66.45334625244141,-36.94400405883789
468,1113133457,7.72575426101685,-65.47045135498047,40.52793502807617,1.23590242862701,1.98497092723846,6.36638402938843,-68.03736114501953,53.15899658203125,-32.89698410034180
469,1113150124,6.10308694839478,-64.45200347900391,40.12384414672852,6.26987791061401,7.85401439666748,8.88978481292725,-119.11359405517578,58.46854400634766,-17.06521224975586
470,1113166791,4.34404039382935,-63.40335464477539,39.70590209960938,15.74838352203369,11.11993598937988,4.68797540664673,-127.82720947265625,60.69346618652344,-16.21072578430176
471,1113183458,3.59484505653381,-62.52051162719727,38.29012298583984,16.11640357971191,2.55287075042725,9.03534507751465,-120.36361694335938,49.21283340454102,-41.68118286132812
472,1113200125,3.34372544288635,-62.72530364990234,39.18993377685547,31.95702171325684,-7.75446844100952,12.32550525665283,33.11540985107422,-11.72130870819092,26.02695846557617
473,1113216792,0.96409028768539,-62.63076400756836,41.61985397338867,28.46502113342285,-1.79348552227020,13.12368774414062,-12.70022964477539,7.23654699325562,67.30688476562500
474,1113233459,-0.31910035014153,-63.17825317382812,42.51625442504883,32.86396789550781,-1.18644642829895,13.36187744140625,-28.56641578674316,-33.65481948852539,25.33533477783203
475,1113250126,-0.79728698730469,-64.00673675537109,42.20531082153320,35.53364944458008,0.54451549053192,10.39505767822266,-44.85876083374023,-50.56902694702148,-8.12775993347168
476,1113266793,-0.72222316265106,-64.95871734619141,41.33193969726562,36.63648605346680,5.25433063507080,9.69640159606934,-42.32350158691406,-57.74758911132812,-22.71253967285156
477,1113283460,-0.26428434252739,-65.96419525146484,40.15573120117188,36.46588897705078,2.52464675903320,9.71468353271484,-36.26967620849609,-60.99830245971680,-29.20606422424316
478,1113300127,0.02163686789572,-67.08155822753906,39.29549789428711,35.30529785156250,0.91620332002640,8.98181724548340,-29.78607368469238,-67.91764831542969,-20.10318374633789
479,1113316794,-0.04215528070927,-68.45282745361328,38.85038757324219,33.97000122070312,0.97993016242981,7.02005672454834,-28.25536346435547,-83.18905639648438,-9.56180477142334
480,1113333461,-0.42648449540138,-70.42085266113281,38.74079895019531,32.53304672241211,0.20812535285950,4.89544773101807,-29.00106239318848,-118.98300170898438,-2.25927472114563
481,1113350128,-0.62149095535278,-73.05407714843750,38.54552459716797,31.02168655395508,-2.75211191177368,2.81594800949097,-22.63360214233398,-158.86395263671875,-4.57397174835205
482,1113366795,-0.08363845199347,-76.18697357177734,38.05837631225586,28.12055397033691,-3.02814555168152,-0.19530504941940,4.29167366027832,-188.82647705078125,-8.34278774261475
483,1113383462,0.86646896600723,-78.84020233154297,37.28273010253906,20.21545791625977,0.01462896633893,-2.42641210556030,11.74973678588867,-160.17010498046875,-8.39649295806885
484,1113400129,2.66040396690369,-80.56062316894531,35.61833190917969,12.20449924468994,0.58019441366196,1.84524726867676,9.59837341308594,-104.61633300781250,-14.06715393066406
485,1113416796,5.30560111999512,-81.62123870849609,32.95837402343750,4.57162332534790,-3.86759281158447,11.82725906372070,1.23993790149689,-66.08519744873047,-19.62117958068848
486,1113433463,7.96269083023071,-82.32839965820312,30.64188957214355,4.50676488876343,-0.65098351240158,20.60060501098633,22.31470870971680,-45.28728485107422,-13.70452499389648
487,1113450130,7.14632272720337,-78.89324951171875,30.11982345581055,-0.43598076701164,1.60652816295624,15.56856155395508,-79.27976989746094,202.81939697265625,-31.50790977478027
488,1113466797,7.93436765670776,-77.47385406494141,30.64351844787598,-18.71684646606445,-4.19491815567017,22.85112380981445,78.58703613281250,84.36569976806641,-4.14108896255493
489,1113483464,10.48807716369629,-78.29309082031250,28.73635101318359,-7.42027378082275,-1.50605678558350,8.94502735137939,41.86668395996094,-53.32040023803711,-15.18028831481934
490,1113500131,14.06986713409424,-79.70533752441406,25.39640808105469,-7.10193157196045,-3.63864445686340,-3.45082068443298,18.69856071472168,-91.87764739990234,-18.68181419372559
491,1113516798,15.79616546630859,-80.55061340332031,24.38502693176270,-1.93947279453278,0.68049424886703,-6.57161617279053,44.31809234619141,-52.66348266601562,3.67313408851624
492,1113533465,17.25894737243652,-82.07697296142578,23.17366218566895,5.51129055023193,4.83513355255127,-3.23453187942505,16.42187690734863,-91.91062927246094,16.19153404235840
493,1113550132,16.95765876770020,-82.52378082275391,23.24458694458008,10.96973514556885,2.11832022666931,-0.61504936218262,-13.32594871520996,-26.42131805419922,9.09100818634033
494,1113566799,16.92469596862793,-82.76389312744141,22.92646980285645,6.52428388595581,2.41783475875854,0.67240250110626,-20.37277221679688,-15.45060157775879,2.52044272422791
495,1113583466,12.35657501220703,-81.74614715576172,26.23025321960449,1.00390493869781,0.90342396497726,1.35604941844940,-77.08083343505859,64.89646911621094,11.05140304565430
496,1113600133,8.25481128692627,-80.20905303955078,29.60027885437012,-0.69783973693848,-2.77938008308411,3.13883376121521,-45.80835342407227,95.45733642578125,15.34387493133545
497,1113616800,7.27332019805908,-79.32773590087891,30.81316566467285,2.00897240638733,-2.75401949882507,2.73978710174561,13.27995300292969,53.20008468627930,6.31562042236328
498,1113633467,7.11642837524414,-78.25467681884766,31.20359611511230,1.31040549278259,-1.89309763908386,3.72860884666443,14.12038135528564,63.51409912109375,-2.89262580871582
499,1113650134,8.09082126617432,-77.55688476562500,30.68913650512695,0.94576752185822,-1.05377876758575,2.66738605499268,28.82365417480469,39.69566345214844,-11.29724693298340
500,1113666801,8.45059394836426,-76.47115325927734,30.54022789001465,-0.77688097953796,-0.36060729622841,2.40151095390320,13.42925643920898,63.23197937011719,-10.70461940765381
501,1113683468,8.51515388488770,-75.90920257568359,30.61780166625977,-3.89583945274353,0.41256529092789,1.77736771106720,8.94015598297119,32.56344223022461,-3.22335815429688
502,1113700135,8.10296535491943,-75.66616821289062,30.82861518859863,-4.66158103942871,1.35801053047180,0.33624094724655,-11.92208480834961,13.92325210571289,1.61643850803375
503,1113716802,7.47090435028076,-75.63834381103516,31.17868614196777,-1.81666886806488,1.03265464305878,-0.64655214548111,-17.03172111511230,1.39966511726379,5.58295345306396
504,1113733469,6.19071769714355,-75.22776031494141,32.09239959716797,-0.14761437475681,0.97270536422729,-1.32031345367432,-23.20435333251953,25.14612007141113,11.41195011138916
505,1113750136,4.49826717376709,-74.61870574951172,33.34325790405273,0.69522988796234,0.67809349298477,-0.86046808958054,-28.52785682678223,37.25215911865234,16.68417358398438
506,1113766803,2.97495007514954,-73.90849304199219,34.45987319946289,1.72824847698212,0.24422250688076,-0.11953371763229,-26.36403846740723,42.75726699829102,16.00756263732910
507,1113783470,1.97232425212860,-73.10540771484375,35.07352066040039,1.87756812572479,-0.31076899170876,0.39426267147064,-24.30409431457520,47.64596939086914,9.01774311065674
508,1113800137,1.71289551258087,-72.34207916259766,34.99586486816406,1.36298060417175,-0.51894879341125,0.81419694423676,-19.47128295898438,44.78508377075195,-2.20013618469238
509,1113816804,1.94422662258148,-71.74134826660156,34.41265487670898,0.94700360298157,-0.67926198244095,0.50242406129837,-18.86387825012207,34.73516845703125,-11.27724838256836
510,1113833471,2.39982414245605,-71.23464965820312,33.73571777343750,0.25717881321907,-0.76649016141891,-0.11174411326647,-10.63625335693359,28.94425201416016,-13.38385295867920
511,1113850138,2.67498564720154,-70.83599853515625,33.21613311767578,-0.28280174732208,-0.20100779831409,0.03041362576187,-12.42867374420166,22.50353813171387,-10.52486419677734
512,1113866805,2.78680610656738,-70.55116271972656,32.82520294189453,-0.86692708730698,0.04985907673836,0.65187144279480,-14.88479709625244,15.75490760803223,-7.90664243698120
513,1113883472,2.91995596885681,-70.36965179443359,32.47364425659180,-1.36337542533875,0.03865828737617,1.05303609371185,-11.34698772430420,9.58164978027344,-6.93447828292847
514,1113900139,2.94796919822693,-70.33992004394531,32.33494567871094,-1.32328200340271,0.52399504184723,0.41800382733345,-5.61452150344849,0.69303494691849,-2.23255681991577
515,1113916806,2.56724762916565,-70.31604003906250,32.50559997558594,-0.93687033653259,0.86675435304642,0.86049032211304,-12.66018581390381,0.64754706621170,4.02667093276978
516,1113933473,2.23983693122864,-70.48854827880859,32.82896423339844,-1.04726147651672,0.49887722730637,-1.01939892768860,-0.82563871145248,-11.01341724395752,7.58846569061279
517,1113950140,1.96589493751526,-70.56926727294922,33.22075271606445,0.90751230716705,-2.48168396949768,4.29100799560547,6.26661109924316,-5.49867153167725,8.66077232360840
518,1113966807,1.21448802947998,-70.63880920410156,34.31994247436523,11.95655155181885,-2.14284729957581,13.15023040771484,17.33970642089844,-4.50804615020752,22.53505134582520
519,1113983474,-0.70906150341034,-70.94379425048828,36.54593276977539,46.42882537841797,0.22033712267876,13.83536434173584,10.92741394042969,-19.05030059814453,44.54256820678711
520,1114000141,0.37852612137794,-69.17684936523438,35.74394607543945,66.18336486816406,-4.69748544692993,26.78436660766602,20.25705337524414,105.12327575683594,-15.56719303131104
521,1114016808,-0.75851362943649,-68.01173400878906,36.83094787597656,34.02727890014648,4.61082267761230,9.99321842193604,-7.08494091033936,68.88237762451172,24.62571525573730
522,1114033475,-1.21045172214508,-67.72452545166016,37.43864440917969,22.47162437438965,2.34750604629517,0.96315020322800,7.09434032440186,16.05004119873047,14.63482284545898
523,1114050142,-0.15026980638504,-68.42713928222656,36.58564758300781,27.29406356811523,0.87869715690613,-0.58742558956146,16.56705856323242,-42.86723327636719,-18.99730873107910
524,1114066809,-0.05623349547386,-69.02534484863281,36.65594863891602,30.04592704772949,1.65819060802460,-3.24134016036987,10.01571750640869,-36.82961654663086,2.07903170585632
525,1114083476,-0.19463513791561,-69.52138519287109,37.04851531982422,26.38695144653320,-0.83449912071228,0.95542794466019,14.15556335449219,-30.70889663696289,8.88006877899170
526,1114100143,0.26615944504738,-69.50245666503906,36.80202484130859,21.80311584472656,-1.58293509483337,4.43239164352417,14.21648693084717,0.21047890186310,-4.57029533386230
527,1114116810,1.09133601188660,-69.48688507080078,36.20468139648438,15.49208641052246,-0.04005740210414,4.95311641693115,16.32749557495117,-0.13257151842117,-11.97210979461670
528,1114133477,1.82049155235291,-69.25500488281250,35.70060729980469,10.81975746154785,0.01519298180938,4.60224294662476,15.80768775939941,12.71442413330078,-10.42284584045410
529,1114150144,2.10980486869812,-68.88715362548828,35.65119552612305,9.69231700897217,-0.18007363379002,4.47481918334961,14.95787048339844,21.09932136535645,-1.23205041885376
530,1114166811,2.18206930160522,-68.62159729003906,35.87040328979492,5.70307064056396,0.28427645564079,3.53925728797913,16.95166397094727,15.17616271972656,4.74250125885010
531,1114183478,2.32232761383057,-68.65970611572266,35.93268585205078,2.65379095077515,1.07764232158661,2.73490929603577,12.27124977111816,-3.15535807609558,2.03366827964783
532,1114200145,2.81509184837341,-68.90170288085938,35.48137664794922,1.90181326866150,0.86411422491074,1.82049679756165,4.71611738204956,-15.86817550659180,-8.54721164703369
533,1114216812,3.56776165962219,-69.22269439697266,34.79351806640625,0.89061844348907,-0.09547216445208,1.42243301868439,7.03143930435181,-20.98118972778320,-13.04753589630127
534,1114233479,4.30949401855469,-69.70512390136719,34.15830230712891,1.26741003990173,0.29903969168663,1.32629549503326,9.23722553253174,-30.72778129577637,-10.74016475677490
535,1114250146,5.10319757461548,-70.23112487792969,33.51273727416992,1.95489227771759,0.16598938405514,1.72121012210846,11.67283153533936,-33.47321701049805,-10.01613712310791
536,1114266813,5.95867156982422,-70.67796325683594,32.80153274536133,2.19815516471863,-0.39998576045036,1.82222461700439,11.55821704864502,-28.99216270446777,-11.00589656829834
537,1114283480,6.67486858367920,-71.06756591796875,32.27524185180664,2.88834404945374,-0.25471493601799,2.49281764030457,13.58121967315674,-25.30623245239258,-7.09133338928223
538,1114300147,7.11540937423706,-71.44658660888672,32.02949142456055,4.01055192947388,0.29087027907372,3.35195207595825,12.92458057403564,-24.07472038269043,-1.35065078735352
539,1114316814,7.46115970611572,-71.85084533691406,31.86593437194824,6.55251836776733,0.52887147665024,3.57678413391113,11.88298702239990,-25.38927268981934,0.63602274656296
540,1114333481,7.93326044082642,-72.23686981201172,31.57575988769531,10.18852329254150,0.83296757936478,3.90974879264832,12.21856307983398,-24.60462379455566,-1.59221768379211
541,1114350148,8.55686378479004,-72.54040527343750,31.04935073852539,12.93162059783936,0.97633022069931,4.12180995941162,7.76933765411377,-20.32836151123047,-6.21897935867310
542,1114366815,9.39677524566650,-72.83660888671875,30.26837921142578,12.90059661865234,0.77869695425034,4.12669420242310,6.12251710891724,-20.66169166564941,-10.36861705780029
543,1114383482,10.22187709808350,-73.19379425048828,29.43512725830078,11.92434501647949,0.91634309291840,3.81902813911438,2.14268064498901,-24.54365921020508,-10.11158561706543
544,1114400149,10.84033107757568,-73.52561950683594,28.77604866027832,12.04143905639648,1.13911342620850,3.56147170066833,-0.32914939522743,-22.57807159423828,-6.86671304702759
545,1114416816,11.29820156097412,-73.88039398193359,28.28334999084473,11.94181060791016,1.06359171867371,3.33081173896790,-0.44970861077309,-23.42146301269531,-3.42538475990295
546,1114433483,11.62202548980713,-74.24861145019531,27.96848106384277,11.69183444976807,0.72654676437378,2.98381376266479,1.71727740764618,-23.61762046813965,-0.06521006673574
547,1114450150,11.70055770874023,-74.61305236816406,27.91132926940918,11.45060920715332,0.30631306767464,2.79032969474792,1.86063766479492,-22.53941345214844,4.14710044860840
548,1114466817,11.62634754180908,-74.95546722412109,27.98504447937012,10.94298744201660,0.11783619970083,2.70859789848328,0.26764672994614,-20.82173538208008,5.91920042037964
549,1114483484,11.59868717193604,-75.26966857910156,28.00085258483887,10.26170253753662,0.31808954477310,2.67882633209229,-0.29753032326698,-19.35603141784668,4.66107606887817
550,1114500151,11.62249469757080,-75.51038360595703,27.93341827392578,9.60969448089600,0.50180488824844,2.63877058029175,-2.03792715072632,-15.29049682617188,2.53617787361145
551,1114516818,11.74641513824463,-75.68800354003906,27.75657463073730,8.98459243774414,0.43911516666412,2.70983910560608,-2.39399480819702,-11.90550518035889,0.20332010090351
552,1114533485,11.94544696807861,-75.77667236328125,27.53479003906250,8.61841011047363,0.45148566365242,2.51993536949158,-0.50841230154037,-6.81523418426514,-1.48821353912354
553,1114550152,12.03985786437988,-75.77986907958984,27.43600082397461,8.52775764465332,0.64226496219635,2.66968560218811,0.36872681975365,-1.42227315902710,-0.75593322515488
554,1114566819,12.00211143493652,-75.77714538574219,27.41987991333008,9.16610908508301,0.54925280809402,3.01540708541870,-2.75163650512695,-0.82252621650696,0.36234927177429
555,1114583486,12.18060398101807,-75.89910125732422,27.06468582153320,9.26955699920654,0.70598739385605,2.96851825714111,-9.50139617919922,-9.17941856384277,-2.93544793128967
556,1114600153,12.70052051544189,-75.98747253417969,26.26362800598145,9.57990360260010,1.23681688308716,2.49697065353394,-14.98397541046143,-8.63348865509033,-9.62485599517822
557,1114616820,13.45304870605469,-76.02742004394531,25.19925880432129,9.64136028289795,1.58367908000946,2.41471934318542,-16.36060142517090,-6.76113700866699,-13.86396026611328
558,1114633487,13.98410701751709,-76.03034973144531,24.32021141052246,10.17927265167236,1.48291826248169,2.52863693237305,-18.86219024658203,-4.12424707412720,-11.69436168670654
559,1114650154,14.11377716064453,-75.96768951416016,23.85113143920898,10.99724006652832,1.52127516269684,3.10392665863037,-19.07422065734863,1.05853593349457,-6.88543891906738
560,1114666821,13.87567806243896,-75.83226776123047,23.76454734802246,11.16431236267090,1.28684628009796,3.67395615577698,-18.86763954162598,6.64974451065063,-2.56285500526428
561,1114683488,13.46368885040283,-75.64050292968750,23.85891723632812,10.44178390502930,0.80101430416107,4.09446191787720,-18.78293228149414,10.57236289978027,-0.73333764076233
562,1114700155,13.09897613525391,-75.40805816650391,23.92642402648926,9.92064476013184,0.34008669853210,4.05141496658325,-17.51141929626465,12.87458419799805,-1.59140920639038
563,1114716822,12.87247753143311,-75.14460754394531,23.84152412414551,9.63590049743652,0.30830878019333,3.67603087425232,-18.06482315063477,14.17758464813232,-4.18384218215942
564,1114733489,12.76283359527588,-74.88359832763672,23.66499900817871,9.84310817718506,0.40712311863899,3.48872208595276,-16.35420989990234,13.73321342468262,-5.51589632034302
565,1114750156,12.67396926879883,-74.64003753662109,23.45762825012207,10.19190311431885,0.66031152009964,3.65799498558044,-16.88413810729980,12.59539222717285,-5.77694129943848
566,1114766823,12.73698902130127,-74.44150543212891,23.14321136474609,10.06056213378906,0.76828986406326,3.96507596969604,-13.94832324981689,9.58144760131836,-6.89653587341309
567,1114783490,13.03191089630127,-74.26073455810547,22.68437004089355,9.76863765716553,0.85027414560318,3.76900458335876,-8.37343883514404,7.98027610778809,-9.03136539459229
568,1114800157,13.39312934875488,-74.02587890625000,22.28177070617676,9.32242202758789,1.00536286830902,3.73094987869263,-1.11937808990479,11.27381420135498,-9.02020931243896
569,1114816824,13.62746524810791,-73.77469635009766,22.07069396972656,9.22055244445801,1.08373105525970,3.58697509765625,2.34349322319031,12.89945507049561,-6.30916786193848
570,1114833491,13.60657310485840,-73.51603698730469,22.08431434631348,9.38838672637939,1.26924574375153,3.76178407669067,-0.02316030114889,14.20238018035889,-2.80523943901062
571,1114850158,13.47067832946777,-73.32836914062500,22.07900428771973,9.51572227478027,1.10389721393585,3.45762801170349,-8.01179313659668,9.98844718933105,-2.09958338737488
572,1114866825,13.30745029449463,-73.02709197998047,22.03454589843750,9.78842258453369,0.79390400648117,2.95745730400085,-11.89500427246094,16.47144508361816,-4.31112337112427
573,1114883492,13.13895893096924,-72.61645507812500,21.86813545227051,9.76858329772949,0.90322715044022,3.15050005912781,-19.19750022888184,22.37474632263184,-7.88177108764648
574,1114900159,13.02242469787598,-72.15727996826172,21.55521011352539,9.89220619201660,1.14642524719238,2.73887610435486,-24.43895912170410,24.61352539062500,-11.14521312713623
575,1114916826,12.83701610565186,-71.61565399169922,21.30143928527832,9.70023822784424,1.21363079547882,2.71363162994385,-25.14540672302246,29.68120574951172,-11.26247501373291
576,1114933493,12.54834270477295,-70.98848724365234,21.21790504455566,9.72533988952637,1.37489390373230,2.46396780014038,-21.61139869689941,35.42247390747070,-9.21189022064209
577,1114950160,12.19943046569824,-70.32745361328125,21.27021789550781,9.47396755218506,1.20631802082062,2.56847476959229,-17.52375221252441,38.02780151367188,-6.86194849014282
578,1114966827,11.75769138336182,-69.60516357421875,21.44958114624023,9.52987575531006,1.07706475257874,2.44154453277588,-15.94032001495361,42.22624206542969,-4.76960611343384
579,1114983494,11.42668151855469,-68.89957427978516,21.61378669738770,8.84268093109131,0.72060567140579,2.38974666595459,-10.19542407989502,41.23663330078125,-4.46863174438477
580,1115000161,11.27480125427246,-68.23568725585938,21.69686126708984,8.63834190368652,0.49447277188301,2.46650004386902,-4.01889038085938,38.47909545898438,-5.43580532073975
581,1115016828,11.25963401794434,-67.61522674560547,21.71385383605957,8.64017868041992,0.72793197631836,2.75129437446594,0.48672676086426,35.64874267578125,-6.27981424331665
582,1115033495,11.27987003326416,-67.06035614013672,21.74885559082031,8.52726268768311,0.81079250574112,2.89472079277039,3.60587811470032,31.87374496459961,-5.09606266021729
583,1115050162,11.17146396636963,-66.52114105224609,21.88485717773438,9.19592761993408,0.83577799797058,2.21717143058777,1.45997381210327,31.42425918579102,-2.52242422103882
584,1115066829,10.93894386291504,-65.97245025634766,22.10754394531250,9.22598457336426,0.65878969430923,2.81894612312317,-1.25973951816559,32.40887451171875,-0.41415888071060
585,1115083496,10.68136978149414,-65.45616149902344,22.31140899658203,8.86699295043945,0.64983236789703,2.94799232482910,-3.84835863113403,30.43340682983398,-0.25249081850052
586,1115100163,10.51107120513916,-65.01686859130859,22.42886924743652,8.62813568115234,0.54637467861176,3.04051470756531,-3.35829353332520,25.51624107360840,-1.32922518253326
587,1115116830,10.40117931365967,-64.66409301757812,22.51294898986816,8.80740165710449,0.59290349483490,3.30619835853577,-1.56206965446472,20.26908111572266,-1.11371874809265
588,1115133497,10.36541748046875,-64.38198089599609,22.56818389892578,8.98320865631104,0.73173063993454,3.32750153541565,1.31026363372803,15.97116470336914,-1.03216695785522
589,1115150164,10.33844661712646,-64.11374664306641,22.64038085937500,9.06272602081299,0.84706532955170,3.25322628021240,2.75451326370239,15.23756313323975,-0.42141884565353
590,1115166831,10.37209701538086,-63.89719390869141,22.71212768554688,9.05067443847656,0.80405539274216,3.73398876190186,6.35733842849731,12.18672943115234,0.13924993574619
591,1115183498,10.39960861206055,-63.74029541015625,22.82839202880859,9.16770553588867,0.81419152021408,3.73071837425232,8.37810420989990,8.87661743164062,1.94778919219971
592,1115200165,10.42620277404785,-63.64112854003906,22.96492767333984,9.22145175933838,0.76172518730164,3.73275732994080,9.41065406799316,5.57460021972656,3.11497282981873
593,1115216832,10.49984836578369,-63.58605575561523,23.07111167907715,9.27988624572754,0.81611889600754,3.75902795791626,10.59492206573486,2.82937884330750,2.80158877372742
594,1115233499,10.60935306549072,-63.59465026855469,23.15535163879395,9.35845565795898,0.87942695617676,3.73471331596375,11.57400608062744,-1.02919554710388,2.92666840553284
595,1115250166,10.70595932006836,-63.65437316894531,23.24529647827148,9.35141086578369,0.80432450771332,3.54035019874573,11.09639453887939,-4.01517724990845,3.63539814949036
596,1115266833,10.78705215454102,-63.78028488159180,23.31794548034668,9.19989299774170,0.64762693643570,3.55731177330017,9.25239467620850,-7.99669933319092,3.92857408523560
597,1115283500,10.92046451568604,-63.96637344360352,23.33695220947266,9.24113750457764,0.69641143083572,3.40172004699707,9.49895763397217,-11.80509376525879,3.21527338027954
598,1115300167,11.11203575134277,-64.19007873535156,23.31588363647461,9.34814167022705,0.77502673864365,3.47503066062927,10.82607746124268,-14.21581268310547,2.64118456840515
599,1115316834,11.30492591857910,-64.43421173095703,23.30229949951172,9.49421977996826,0.82133477926254,3.57072925567627,11.31047344207764,-15.37099456787109,3.12123799324036
600,1115333501,11.52316761016846,-64.67566680908203,23.28808021545410,9.44307231903076,0.85598003864288,3.52874541282654,12.79644870758057,-15.20483303070068,3.12812805175781
601,1115350168,11.74750709533691,-64.94013977050781,23.27537345886230,9.30887699127197,1.06636548042297,3.38371968269348,13.24194240570068,-16.54394340515137,3.50464272499084
602,1115366835,11.94522190093994,-65.22225952148438,23.28193283081055,9.63283348083496,1.26376426219940,3.31342840194702,12.68921184539795,-17.46673774719238,4.25815010070801
603,1115383502,12.09230041503906,-65.50408935546875,23.30922508239746,9.71204471588135,1.24163126945496,3.23092103004456,10.78226566314697,-17.32941246032715,4.80956697463989
604,1115400169,12.22033214569092,-65.78830718994141,23.33363914489746,9.46683788299561,1.03006768226624,3.20107221603394,9.49307155609131,-17.47801589965820,4.80621051788330
605,1115416836,12.38499641418457,-66.05334472656250,23.33050155639648,9.37059593200684,1.02172613143921,3.34292221069336,10.18188762664795,-16.48783874511719,3.93768215179443
606,1115433503,12.59576606750488,-66.29895782470703,23.31252670288086,9.29961681365967,1.03796935081482,3.36801362037659,12.13480854034424,-15.41388607025146,3.38638186454773
607,1115450170,12.77692604064941,-66.52956390380859,23.32311630249023,9.37655353546143,1.03301632404327,3.15561866760254,11.93124866485596,-14.37601470947266,3.91466879844666
608,1115466837,12.94411468505859,-66.74610900878906,23.35692787170410,9.46663284301758,0.96699762344360,3.23605704307556,12.36424446105957,-13.42081546783447,4.29994821548462
609,1115483504,13.13094139099121,-66.94419097900391,23.37677955627441,9.43529033660889,1.05184423923492,3.25136566162109,12.77820873260498,-12.40511417388916,3.76286149024963
610,1115500171,13.40529727935791,-67.10359191894531,23.33874130249023,9.49491119384766,0.94428861141205,3.31829214096069,14.83016109466553,-10.44859790802002,1.95301532745361
611,1115516838,13.75456714630127,-67.17456054687500,23.26017379760742,9.76062107086182,0.89708030223846,3.67770791053772,17.08763504028320,-5.50270175933838,-0.15293355286121
612,1115533505,14.26009273529053,-67.17044067382812,23.13029861450195,9.49127674102783,0.77624320983887,4.04840135574341,23.63168716430664,-1.42182767391205,-2.36396694183350
613,1115550172,14.93297767639160,-67.15229034423828,22.96778869628906,9.15309715270996,0.74102425575256,3.72722101211548,31.86225891113281,-0.83251172304153,-3.30890989303589
614,1115566839,15.59197807312012,-67.12441253662109,22.84355735778809,9.02249526977539,0.94798511266708,3.50200724601746,33.20846939086914,-0.07453964650631,-2.57994532585144
615,1115583506,16.30275726318359,-67.08155822753906,22.68820190429688,8.95050048828125,1.24436450004578,3.44570183753967,34.59477996826172,0.54728806018829,-3.53967738151550
616,1115600173,17.16441917419434,-66.99381256103516,22.47588348388672,8.83154869079590,1.37272667884827,3.41074228286743,40.44618225097656,2.67744588851929,-5.64745426177979
617,1115616840,18.09144020080566,-66.87787628173828,22.32053375244141,8.36079502105713,1.48681855201721,3.16299700737000,47.58294677734375,4.60000753402710,-4.93323802947998
618,1115633507,18.88945960998535,-66.80825042724609,22.31421852111816,7.67863941192627,1.72612094879150,2.59788656234741,48.06774520874023,2.98738718032837,-0.81207650899887
619,1115650174,19.51734352111816,-66.80203247070312,22.45316123962402,7.32753372192383,1.91654479503632,1.94653463363647,45.87285614013672,0.50707119703293,3.63081979751587
620,1115666841,19.97473526000977,-66.77483367919922,22.71457290649414,7.56086254119873,1.70830488204956,1.66913628578186,42.39531326293945,2.69940423965454,5.92079877853394
621,1115683508,20.32647323608398,-66.68708801269531,23.03396034240723,8.07091999053955,1.37645447254181,1.80358529090881,39.24395370483398,6.62106704711914,5.94687366485596
622,1115700175,20.74065780639648,-66.56044769287109,23.29752159118652,8.66729354858398,1.33695566654205,1.72861015796661,39.90327072143555,8.39072418212891,3.86385822296143
623,1115716842,21.20199584960938,-66.36782836914062,23.48174667358398,9.19675827026367,1.62458717823029,2.00225710868835,38.35258865356445,11.44768047332764,0.63863712549210
624,1115733509,21.67356681823730,-66.14640808105469,23.58509063720703,9.70464801788330,2.18647122383118,2.20038437843323,34.50578689575195,12.35212135314941,-1.87907147407532
625,1115750176,22.14287948608398,-65.93538665771484,23.60865592956543,9.86136150360107,2.72014808654785,2.10122680664062,29.98688316345215,11.03598117828369,-3.53758692741394
626,1115766843,22.53512001037598,-65.77573394775391,23.62534713745117,9.60714817047119,2.94577407836914,1.87286031246185,24.98419952392578,8.09168529510498,-2.60774397850037
627,1115783510,22.76839447021484,-65.67253112792969,23.71136474609375,9.50300407409668,3.00576543807983,1.33223807811737,19.23720741271973,5.60913133621216,0.22703769803047
628,1115800177,22.83070564270020,-65.59357452392578,23.91959953308105,9.02867507934570,2.88180851936340,1.08655989170074,15.65629673004150,5.44191694259644,3.56974148750305
629,1115816844,22.74628829956055,-65.56726074218750,24.21827888488770,8.52564144134521,2.67597532272339,1.02940833568573,11.79179382324219,3.40186166763306,6.87379360198975
630,1115833511,22.56156730651855,-65.66909027099609,24.51544761657715,7.96593475341797,2.44845890998840,0.90538185834885,5.69175958633423,-3.72623372077942,9.80034637451172
631,1115850178,22.26864051818848,-65.89089965820312,24.78039741516113,7.57265233993530,2.44865274429321,0.71198523044586,-2.54300403594971,-10.74168872833252,11.75853252410889
632,1115866845,21.95496559143066,-66.26256561279297,24.96599197387695,7.05742025375366,2.26624989509583,0.54426556825638,-8.10591220855713,-19.88416862487793,13.23311805725098
633,1115883512,21.44617080688477,-66.63744354248047,25.28322029113770,7.04447412490845,2.27148938179016,-0.07268694043159,-12.54345798492432,-19.00867271423340,16.03745460510254
634,1115900179,20.53471565246582,-67.07075500488281,25.77127075195312,6.28108406066895,2.49606609344482,0.31456696987152,-27.22215843200684,-21.07052993774414,20.71462059020996
635,1115916846,19.10568237304688,-67.67410278320312,26.35506820678711,5.33265972137451,2.81135487556458,-0.13273867964745,-52.87361526489258,-30.41264724731445,25.60858345031738
636,1115933513,16.97042846679688,-68.33969879150391,27.10621833801270,4.63349771499634,3.21342206001282,1.82372617721558,-85.78617858886719,-33.67099380493164,29.07069587707520
637,1115950180,15.46520614624023,-68.90052795410156,27.17783355712891,6.86289310455322,-0.66363775730133,15.59935283660889,-85.77421569824219,-32.79533004760742,11.55946254730225
638,1115966847,19.04200744628906,-69.40328216552734,24.50289344787598,18.35636138916016,-5.97664070129395,11.25742435455322,65.14418792724609,-46.66273117065430,-44.93613433837891
639,1115983514,19.20490646362305,-69.03339385986328,23.09833908081055,14.10926437377930,-0.87128728628159,3.68720340728760,-68.47658538818359,10.25023937225342,-34.86174011230469
640,1116000181,18.43217468261719,-69.80902099609375,22.36763191223145,13.02039527893066,7.48320150375366,2.01310992240906,-86.86976623535156,-49.94836425781250,1.08219408988953
641,1116016848,18.33773040771484,-70.25680541992188,21.17650032043457,19.13830757141113,2.95531702041626,3.11699342727661,-72.30110168457031,-34.11698150634766,-14.02505779266357
642,1116033515,18.58057594299316,-70.66468048095703,20.25363540649414,14.64231014251709,-0.44888442754745,5.50446891784668,-37.07557678222656,-29.99944496154785,-9.15874290466309
643,1116050182,18.28628540039062,-70.90592193603516,20.35474014282227,14.80561256408691,0.42147544026375,5.63750553131104,-11.39024448394775,-14.02160739898682,7.12716627120972
644,1116066849,17.46609687805176,-71.00366210937500,20.96128654479980,14.33282756805420,-0.29418724775314,4.76149272918701,-14.27556610107422,-2.86402869224548,13.75828361511230
645,1116083516,16.25071144104004,-71.18041229248047,21.92160797119141,13.11969375610352,-1.03288614749908,4.28649759292603,-17.87583351135254,-5.66149902343750,21.59813117980957
646,1116100183,14.78112888336182,-71.43570709228516,23.14098167419434,12.16042041778564,-1.08373892307281,3.87858533859253,-18.33036231994629,-9.40765476226807,27.34127235412598
647,1116116850,13.40105628967285,-71.70510101318359,24.29843902587891,11.92659473419189,-0.30645608901978,3.42725706100464,-16.38023567199707,-11.25750923156738,25.88197326660156
648,1116133517,12.64825534820557,-71.88129425048828,24.82433700561523,11.40710735321045,0.26835006475449,3.00519466400146,-14.65577316284180,-9.00145530700684,12.64073753356934
649,1116150184,12.33119106292725,-71.97941589355469,24.93909645080566,10.50656414031982,0.09634029120207,2.66405773162842,-11.94125175476074,-6.21005964279175,4.01305818557739
650,1116166851,12.05327892303467,-72.03012084960938,25.10503005981445,9.86934471130371,0.20025305449963,2.63309955596924,-6.66753816604614,-3.24779343605042,4.30306911468506
651,1116183518,11.76743698120117,-72.04238891601562,25.35323905944824,8.99178695678711,0.03103096038103,2.52415561676025,-2.44719123840332,-0.69684481620789,5.30005550384521
652,1116200185,11.48421001434326,-72.05770111083984,25.69548225402832,8.39735794067383,-0.51552391052246,2.48058414459229,3.08065128326416,-0.54392415285110,7.03632879257202
653,1116216852,11.32548236846924,-72.07853698730469,26.04565811157227,7.93592548370361,-0.89311718940735,2.23935222625732,11.00322246551514,-0.86989110708237,7.24168777465820
654,1116233519,11.41385459899902,-72.08241271972656,26.25901985168457,7.47355270385742,-1.01812171936035,2.11538362503052,18.02100944519043,-0.37331837415695,4.56027650833130
655,1116250186,11.87329578399658,-72.15742492675781,26.25572967529297,6.82436037063599,-1.19783234596252,1.89536535739899,27.91583061218262,-5.34212017059326,1.50252842903137
656,1116266853,12.62537193298340,-72.33679962158203,26.09066009521484,6.31990480422974,-1.09753131866455,1.74665796756744,36.22529220581055,-12.08231449127197,-0.01402302179486
657,1116283520,13.72675132751465,-72.65292358398438,25.69234657287598,5.91424608230591,-0.81004089117050,1.27158451080322,43.82371520996094,-21.03364372253418,-2.02230620384216
658,1116300187,15.35838890075684,-73.06723022460938,24.90501213073730,5.76950359344482,-0.74417877197266,1.00324857234955,53.28867721557617,-28.48089790344238,-6.58038520812988
659,1116316854,17.61092185974121,-73.55915832519531,23.63472175598145,5.62648963928223,-0.40225097537041,0.71868926286697,62.67256546020508,-35.43712997436523,-11.95513057708740
660,1116333521,20.22968482971191,-74.07963562011719,22.04125213623047,5.98631143569946,-0.29808616638184,0.72140085697174,65.83492279052734,-39.09968566894531,-14.42306327819824
661,1116350188,22.88114166259766,-74.58125305175781,20.33980751037598,6.71028804779053,-0.08163090795279,1.89431035518646,61.32395935058594,-39.04269027709961,-13.93077182769775
662,1116366855,25.54227066040039,-75.08664703369141,18.46995162963867,7.42455434799194,0.06245812028646,2.26233530044556,51.91296768188477,-40.61265563964844,-13.67912769317627
663,1116383522,28.24763870239258,-75.44036865234375,16.62945556640625,8.91485881805420,-0.09811386466026,3.95138430595398,56.05406951904297,-32.55524826049805,-14.79570102691650
664,1116400189,30.06578636169434,-75.66564178466797,15.48365783691406,12.93753528594971,1.71930408477783,8.07536029815674,43.04819107055664,-21.08253860473633,-7.73994064331055
665,1116416856,31.30371665954590,-76.05437469482422,14.71635150909424,15.35097980499268,4.05253362655640,4.43834257125854,30.16515159606934,-26.72306060791016,2.88285994529724
666,1116433523,33.38977432250977,-76.31796264648438,13.84996509552002,11.35077762603760,0.98580002784729,1.56842851638794,75.21429443359375,-20.92798423767090,-1.37094891071320
667,1116450190,35.94248962402344,-76.64376831054688,13.19627285003662,11.71485710144043,-0.11187709867954,1.35338437557220,115.55847930908203,-22.21839523315430,4.22948408126831
668,1116466857,37.52573394775391,-77.02008819580078,13.61100101470947,12.44367408752441,0.54012334346771,2.85454773902893,119.75026702880859,-15.63516521453857,18.69857406616211
669,1116483524,38.27730178833008,-77.52297973632812,14.64653968811035,11.45312309265137,1.49504899978638,3.57259082794189,106.22656250000000,-16.33266067504883,29.98734855651855
670,1116500191,38.34761810302734,-77.96775817871094,16.06461906433105,11.09647941589355,2.42809820175171,3.62393283843994,87.89392089843750,-10.67624187469482,31.35994911193848
671,1116516858,38.38553619384766,-78.32289886474609,17.28645515441895,10.82435798645020,2.85913801193237,3.43429660797119,74.55208587646484,-8.29154682159424,25.68055343627930
672,1116533525,38.95664596557617,-78.60462951660156,17.80074310302734,10.72080421447754,3.32356119155884,3.02765941619873,65.02875518798828,-10.27568626403809,16.03071403503418
673,1116550192,39.87580490112305,-78.79135131835938,17.82170867919922,10.48016071319580,3.31093645095825,2.72533154487610,56.91431808471680,-9.42819786071777,7.95513582229614
674,1116566859,41.10049438476562,-78.90465545654297,17.40022087097168,10.42692279815674,3.07704043388367,2.37071466445923,49.20708465576172,-9.27255821228027,1.34563267230988
675,1116583526,42.43561935424805,-78.94345855712891,16.73221397399902,10.09414958953857,3.11071634292603,2.16462922096252,41.31043624877930,-7.79056072235107,-3.54082441329956
676,1116600193,43.86692428588867,-78.93740844726562,15.89059925079346,9.75348854064941,3.21089744567871,2.08684039115906,36.84919738769531,-7.28874588012695,-6.65981006622314
677,1116616860,45.30494689941406,-78.91663360595703,14.99792957305908,9.61884021759033,3.24290966987610,2.03475499153137,34.25864028930664,-7.25723743438721,-7.54845428466797
678,1116633527,46.43051147460938,-78.90532684326172,14.37632751464844,9.34636688232422,3.07539176940918,2.17647242546082,31.47161293029785,-5.60041713714600,-4.82993268966675
679,1116650194,47.11960983276367,-78.93699645996094,14.14546871185303,9.00623321533203,2.78716468811035,2.34699511528015,28.28584480285645,-4.17187213897705,0.21886752545834
680,1116666861,47.50453567504883,-79.01183319091797,14.17694759368896,8.71232700347900,2.63456058502197,2.33858823776245,25.48278045654297,-3.70984935760498,4.20044279098511
681,1116683528,47.55405807495117,-79.07890319824219,14.51492214202881,8.69881534576416,2.52584171295166,2.33680176734924,23.41822814941406,-0.80502808094025,6.22307968139648
682,1116700195,47.25765228271484,-79.10375213623047,15.19867897033691,8.64734363555908,2.43318867683411,2.59821653366089,23.03738021850586,3.77666425704956,7.00365400314331
683,1116716862,46.71584701538086,-79.09365844726562,16.13890647888184,8.63858699798584,2.32639145851135,2.70561337471008,23.42108726501465,7.27910661697388,7.48956727981567
684,1116733529,45.86571884155273,-79.06719207763672,17.33110809326172,8.43485164642334,2.41183090209961,3.02015638351440,19.76669692993164,9.95720481872559,8.86739635467529
685,1116750196,45.07516479492188,-79.07084655761719,18.37649345397949,8.48092651367188,2.58747005462646,2.60716390609741,14.68901157379150,7.38998365402222,9.15009212493896
686,1116766863,44.32957077026367,-79.05923461914062,19.28788757324219,8.64242935180664,2.69969534873962,2.50334668159485,9.49629878997803,6.85900831222534,7.53500509262085
687,1116783530,43.85430908203125,-79.08727264404297,19.81727218627930,8.69498634338379,2.58395624160767,2.36665225028992,3.20954680442810,2.04625630378723,6.15088367462158
688,1116800197,43.68074417114258,-79.15367126464844,19.95564460754395,8.74108695983887,2.55265998840332,1.93862473964691,-1.72196781635284,-2.72565245628357,4.54423761367798
