sep=,
DeviceTag:,Xsens_DOT_4
FirmwareVersion:,3.0.0
AppVersion:,2023.6.0
StartTime: ,2025-04-09_10:40:51_000 CEST
© Movella Technologies B. V. 2005-2025

PacketCounter,SampleTimeFine,Euler_X,Euler_Y,Euler_Z,Acc_X,Acc_Y,Acc_Z,Gyr_X,Gyr_Y,Gyr_Z
0,1105316634,-49.81721496582031,-82.56998443603516,20.97307205200195,0.00000000000000,0.00000000000000,0.00000000000000,0.00000000000000,0.00000000000000,0.00000000000000
1,1105333301,-49.90980911254883,-82.56011962890625,21.06634521484375,9.75351238250732,-1.11358785629272,0.91364264488220,-0.34814059734344,-0.07450734823942,-0.32088869810104
2,1105349968,-50.01316452026367,-82.55764007568359,21.17624664306641,9.68250370025635,-1.05986702442169,0.87011808156967,0.50562667846680,-0.51277899742126,-0.53931379318237
3,1105366635,-50.11942291259766,-82.56043243408203,21.27837562561035,9.67841625213623,-1.01305007934570,0.83861911296844,-0.34248021245003,-0.64980703592300,-0.83741998672485
4,1105383302,-50.26165390014648,-82.57075500488281,21.39479827880859,9.62537574768066,-1.04290711879730,0.86555385589600,-1.71734452247620,-1.01401960849762,-1.11679065227509
5,1105399969,-50.42673873901367,-82.59111785888672,21.54956626892090,9.69390106201172,-1.11795389652252,0.87821018695831,-0.66555881500244,-1.64555191993713,-1.39035987854004
6,1105416636,-50.59146881103516,-82.62166595458984,21.71675682067871,9.67445087432861,-1.09925341606140,0.88364952802658,-0.00463589886203,-2.08956074714661,-1.81067717075348
7,1105433303,-50.78957366943359,-82.65853118896484,21.90994644165039,9.65389442443848,-1.07446980476379,0.89733707904816,-0.45212823152542,-2.48198580741882,-1.99069583415985
8,1105449970,-51.01154327392578,-82.70044708251953,22.12746620178223,9.72201251983643,-1.08844316005707,0.91206729412079,-0.07792662829161,-2.84375238418579,-2.09287762641907
9,1105466637,-51.24117279052734,-82.74658966064453,22.36772537231445,9.72475719451904,-1.05334258079529,0.88412040472031,0.65683138370514,-3.10721778869629,-2.20932602882385
10,1105483304,-51.46730804443359,-82.79339599609375,22.60725975036621,9.76691722869873,-1.04360640048981,0.84356504678726,0.81954878568649,-3.11787247657776,-2.26818394660950
11,1105499971,-51.65261077880859,-82.83371734619141,22.79863929748535,9.84051036834717,-1.00688076019287,0.81339931488037,0.57886618375778,-2.59420776367188,-2.19115328788757
12,1105516638,-51.78739166259766,-82.86337280273438,22.93208122253418,9.81313610076904,-0.95758229494095,0.78002935647964,-0.26751184463501,-1.80921721458435,-2.00485968589783
13,1105533305,-51.89157104492188,-82.88702392578125,23.03170776367188,9.68802452087402,-0.95817029476166,0.75169211626053,-0.12441369891167,-1.41546022891998,-1.86040413379669
14,1105549972,-52.02984619140625,-82.91056060791016,23.17529487609863,9.69768142700195,-1.01484680175781,0.79942005872726,0.47904077172279,-1.66327595710754,-1.64582085609436
15,1105566639,-52.15835952758789,-82.93295288085938,23.33957862854004,9.77099037170410,-1.02923631668091,0.78193807601929,2.23514962196350,-1.74339234828949,-1.52716994285583
16,1105583306,-52.26495742797852,-82.95185089111328,23.47124290466309,9.72156047821045,-0.98471885919571,0.77413308620453,1.26859068870544,-1.37732303142548,-1.52334094047546
17,1105599973,-52.30900955200195,-82.96017456054688,23.52279090881348,9.69308662414551,-0.95912462472916,0.70746225118637,0.20525376498699,-0.52120566368103,-1.39792835712433
18,1105616640,-52.31446075439453,-82.96293640136719,23.52563285827637,9.70611953735352,-0.98321181535721,0.71625542640686,-0.21572297811508,-0.04958618432283,-1.34224641323090
19,1105633307,-52.31049728393555,-82.96743011474609,23.52277183532715,9.73713302612305,-0.99087762832642,0.76519376039505,0.03245769441128,-0.07390543818474,-1.43582224845886
20,1105649974,-52.33657073974609,-82.97421264648438,23.54980278015137,9.72287654876709,-1.02517926692963,0.83367156982422,-0.04674317687750,-0.33451467752457,-1.42688357830048
21,1105666641,-52.39634323120117,-82.98404693603516,23.61369132995605,9.68195056915283,-1.01071214675903,0.86901724338531,0.08182616531849,-0.65396898984909,-1.40785324573517
22,1105683308,-52.52074813842773,-83.00090026855469,23.75342178344727,9.68246364593506,-1.03502213954926,0.91519749164581,0.78016924858093,-1.35443818569183,-1.39756977558136
23,1105699975,-52.69103622436523,-83.01944732666016,23.94554710388184,9.74319076538086,-1.02109968662262,0.82690429687500,1.38013398647308,-1.74527502059937,-1.24106347560883
24,1105716642,-52.86007690429688,-83.03691864013672,24.16296958923340,9.76574802398682,-1.03130447864532,0.75861012935638,2.30367660522461,-1.77786719799042,-1.12056839466095
25,1105733309,-52.98995590209961,-83.04904174804688,24.31908416748047,9.74661254882812,-0.94283264875412,0.74745905399323,1.50539278984070,-1.28451550006866,-1.11948001384735
26,1105749976,-53.08863449096680,-83.05694580078125,24.40538215637207,9.70905208587646,-0.99007505178452,0.73730212450027,-0.38785311579704,-0.75989043712616,-1.18909513950348
27,1105766643,-53.18463134765625,-83.06571197509766,24.51331710815430,9.70148277282715,-1.08331525325775,0.73846036195755,0.62528926134109,-0.86992257833481,-1.16683781147003
28,1105783310,-53.26848983764648,-83.07717895507812,24.62882995605469,9.74322032928467,-1.01805496215820,0.73654085397720,2.04302883148193,-1.03931212425232,-1.25703287124634
29,1105799977,-53.36695098876953,-83.08638763427734,24.74672698974609,9.72860050201416,-0.91749531030655,0.76692241430283,0.97670823335648,-0.93395417928696,-1.15698969364166
30,1105816644,-53.49906539916992,-83.09587097167969,24.89275741577148,9.66880035400391,-0.99825501441956,0.77291965484619,0.74876815080643,-1.11649608612061,-1.04271876811981
31,1105833311,-53.66741943359375,-83.10821533203125,25.08820343017578,9.68782138824463,-1.05682039260864,0.82320445775986,1.44312834739685,-1.50322234630585,-0.98785626888275
32,1105849978,-53.81969070434570,-83.12382507324219,25.28718948364258,9.70621109008789,-1.07692468166351,0.74586474895477,2.59452152252197,-1.62727725505829,-1.12310397624969
33,1105866645,-53.99589538574219,-83.14048004150391,25.48971939086914,9.72989940643311,-0.99313920736313,0.75805735588074,1.40216088294983,-1.69275605678558,-1.17823541164398
34,1105883312,-54.16974639892578,-83.15859985351562,25.68103599548340,9.70490455627441,-0.97991317510605,0.74677103757858,0.80269563198090,-1.66777098178864,-1.30649113655090
35,1105899979,-54.39694213867188,-83.18281555175781,25.92239570617676,9.66508960723877,-1.07269752025604,0.76238173246384,0.71506166458130,-2.17733550071716,-1.38746547698975
36,1105916646,-54.64707183837891,-83.21042633056641,26.20768547058105,9.71834850311279,-1.01544642448425,0.79092919826508,1.76609158515930,-2.52813982963562,-1.40133476257324
37,1105933313,-54.88147354125977,-83.23236083984375,26.48461532592773,9.77957153320312,-0.99018609523773,0.72025340795517,2.21884727478027,-2.27890276908875,-1.17627596855164
38,1105949980,-55.04341888427734,-83.24480438232422,26.67093276977539,9.76268672943115,-1.00316023826599,0.72078168392181,1.24510383605957,-1.42761349678040,-1.07881975173950
39,1105966647,-55.13825607299805,-83.25284576416016,26.77604293823242,9.77318286895752,-1.00188589096069,0.66698479652405,0.69139552116394,-0.83286088705063,-1.18325531482697
40,1105983314,-55.21396636962891,-83.25884246826172,26.86569976806641,9.77525520324707,-1.01624655723572,0.66340744495392,0.76104933023453,-0.65304696559906,-1.14967727661133
41,1105999981,-55.26087951660156,-83.26053619384766,26.92010498046875,9.75174045562744,-0.95115691423416,0.69251668453217,0.49338379502296,-0.31280785799026,-1.07678353786469
42,1106016648,-55.32331466674805,-83.25840759277344,26.97868156433105,9.71698570251465,-0.95853388309479,0.70478469133377,-0.27437603473663,-0.20131580531597,-0.87943762540817
43,1106033315,-55.34640121459961,-83.25221252441406,27.01377105712891,9.72109699249268,-1.00954508781433,0.68149185180664,0.55452132225037,0.08840861916542,-0.78251910209656
44,1106049982,-55.36195755004883,-83.24393463134766,27.03163909912109,9.73360538482666,-1.02609598636627,0.75638926029205,0.06429427862167,0.24773243069649,-0.74599546194077
45,1106066649,-55.36715316772461,-83.23656463623047,27.04080963134766,9.73190879821777,-1.03788626194000,0.70781707763672,0.68788677453995,0.21802172064781,-0.78987014293671
46,1106083316,-55.36886596679688,-83.22911071777344,27.04438400268555,9.74285697937012,-1.02064239978790,0.73925763368607,0.07327152788639,0.30633428692818,-0.82969778776169
47,1106099983,-55.35269546508789,-83.22237396240234,27.02809333801270,9.68861389160156,-1.05670762062073,0.70960044860840,-0.13921783864498,0.40318867564201,-0.96173119544983
48,1106116650,-55.32825469970703,-83.21591949462891,27.02453422546387,9.71187210083008,-1.03469240665436,0.74904781579971,0.48995172977448,0.38054707646370,-0.96844178438187
49,1106133317,-55.30612182617188,-83.20909881591797,27.00232124328613,9.71185493469238,-0.95672106742859,0.72414273023605,0.16718050837517,0.41260135173798,-0.96052736043930
50,1106149984,-55.28557205200195,-83.20176696777344,26.98515129089355,9.76304817199707,-1.04797089099884,0.71537071466446,0.10886038094759,0.42421674728394,-0.93651562929153
51,1106166651,-55.25969314575195,-83.19628906250000,26.96284294128418,9.75374507904053,-1.04013907909393,0.73915022611618,0.14314298331738,0.39135563373566,-1.04177093505859
52,1106183318,-55.19916915893555,-83.18985748291016,26.90591239929199,9.74938106536865,-1.04789769649506,0.74229204654694,0.28393599390984,0.61521065235138,-1.12893104553223
53,1106199985,-55.13086700439453,-83.18223571777344,26.82522201538086,9.72183609008789,-0.96530169248581,0.72138392925262,-0.69119703769684,0.79846942424774,-1.16906607151031
54,1106216652,-55.07392120361328,-83.17542266845703,26.76201629638672,9.69852638244629,-1.04165041446686,0.70914644002914,-0.59155094623566,0.69390565156937,-1.15458214282990
55,1106233319,-55.01186752319336,-83.17199707031250,26.69634628295898,9.72124004364014,-1.06755220890045,0.73994797468185,-0.25532019138336,0.57434552907944,-1.32316482067108
56,1106249986,-54.93720245361328,-83.16769409179688,26.61467361450195,9.75547695159912,-1.04162204265594,0.76216596364975,-0.37155061960220,0.68948739767075,-1.34366786479950
57,1106266653,-54.83255004882812,-83.16158294677734,26.50136375427246,9.77738285064697,-1.00185787677765,0.74080443382263,-0.57865488529205,0.95005828142166,-1.39294672012329
58,1106283320,-54.73694992065430,-83.15513610839844,26.38661575317383,9.76390266418457,-0.99912214279175,0.74947297573090,-1.17476475238800,0.96861451864243,-1.38046038150787
59,1106299987,-54.61245727539062,-83.14888763427734,26.24812316894531,9.73094558715820,-1.03925704956055,0.74911183118820,-0.78523409366608,1.09092795848846,-1.48767518997192
60,1106316654,-54.49847793579102,-83.14542388916016,26.12038040161133,9.69671344757080,-1.04354095458984,0.73486727476120,-0.61197704076767,0.91824722290039,-1.56685698032379
61,1106333321,-54.41913986206055,-83.14508056640625,26.03832244873047,9.69156074523926,-1.04996800422668,0.74404996633530,-0.41817858815193,0.58643484115601,-1.56409084796906
62,1106349988,-54.33310317993164,-83.14533996582031,25.94864463806152,9.72986030578613,-1.01667714118958,0.77918374538422,-0.23201264441013,0.58640921115875,-1.60879778862000
63,1106366655,-54.22016143798828,-83.14250946044922,25.83117675781250,9.69813156127930,-0.99720990657806,0.71972036361694,-0.05219868570566,0.82953780889511,-1.56589651107788
64,1106383322,-54.10022735595703,-83.14019012451172,25.70829010009766,9.72319412231445,-1.01881551742554,0.69019043445587,-0.19290201365948,0.86863547563553,-1.62621414661407
65,1106399989,-53.97947692871094,-83.13787841796875,25.57779693603516,9.74692821502686,-1.01768207550049,0.75635534524918,-0.61547315120697,0.91441816091537,-1.66368567943573
66,1106416656,-53.85234451293945,-83.13687133789062,25.44097709655762,9.70677852630615,-1.01897311210632,0.75702613592148,-0.52115440368652,0.89641237258911,-1.74734950065613
67,1106433323,-53.74135589599609,-83.13925170898438,25.31000709533691,9.64916229248047,-1.02382218837738,0.76974070072174,-1.19232249259949,0.74929314851761,-1.88654184341431
68,1106449990,-53.66809082031250,-83.14986419677734,25.21835708618164,9.73881721496582,-1.07389819622040,0.79214024543762,-1.14268505573273,0.22375893592834,-2.13134813308716
69,1106466657,-53.61084747314453,-83.16422271728516,25.16493988037109,9.74526882171631,-1.07367658615112,0.78840619325638,0.05680256709456,-0.11518032103777,-2.15192818641663
70,1106483324,-53.56700134277344,-83.17758178710938,25.10365486145020,9.71776294708252,-0.96772128343582,0.79892116785049,-0.96865957975388,-0.06208518519998,-2.11886191368103
71,1106499991,-53.50632476806641,-83.18758392333984,25.02645683288574,9.71938514709473,-0.95404726266861,0.68888086080551,-1.01109981536865,0.15959915518761,-2.03102326393127
72,1106516658,-53.47711181640625,-83.19654846191406,24.97045898437500,9.72418880462646,-0.95305490493774,0.75350958108902,-1.65582263469696,0.07688292115927,-1.89028131961823
73,1106533325,-53.45680618286133,-83.20627593994141,24.94328880310059,9.75048065185547,-0.99225896596909,0.76081162691116,-0.30938857793808,-0.13470998406410,-1.79952263832092
74,1106549992,-53.44734954833984,-83.21574401855469,24.92049980163574,9.73663330078125,-0.97364723682404,0.76192027330399,-0.88927274942398,-0.13241763412952,-1.77875041961670
75,1106566659,-53.47758483886719,-83.22786712646484,24.94657325744629,9.74473667144775,-1.02791011333466,0.80949318408966,-1.04913473129272,-0.43869429826736,-1.74732410907745
76,1106583326,-53.50352859497070,-83.24004364013672,24.96983528137207,9.76005935668945,-0.98721015453339,0.78177428245544,-0.21409656107426,-0.49883294105530,-1.71602535247803
77,1106599993,-53.54043579101562,-83.25241088867188,24.99810600280762,9.70667552947998,-0.99977433681488,0.79562771320343,-0.74713522195816,-0.51330411434174,-1.71037757396698
78,1106616660,-53.58192062377930,-83.26798248291016,25.03252983093262,9.67700195312500,-1.00083827972412,0.71866583824158,-0.43676054477692,-0.68052929639816,-1.82326543331146
79,1106633327,-53.65363693237305,-83.28814697265625,25.10108184814453,9.71297168731689,-1.05359232425690,0.73760145902634,-0.18265697360039,-1.04017019271851,-1.89986050128937
80,1106649994,-53.73487854003906,-83.31150054931641,25.18429565429688,9.69899654388428,-0.94840019941330,0.72403633594513,0.16716769337654,-1.24219036102295,-2.00099229812622
81,1106666661,-53.80776596069336,-83.33143615722656,25.25697708129883,9.73536968231201,-0.94246059656143,0.69105714559555,-0.09711054712534,-1.04554879665375,-1.88692605495453
82,1106683328,-53.87169647216797,-83.34642791748047,25.31404113769531,9.70810890197754,-0.90167760848999,0.71833473443985,-0.51386755704880,-0.77656418085098,-1.71552550792694
83,1106699995,-53.94847488403320,-83.36043548583984,25.38736343383789,9.75788974761963,-1.02263271808624,0.71503746509552,-0.48381102085114,-0.81443244218826,-1.61055195331573
84,1106716662,-54.01607131958008,-83.37445068359375,25.46079635620117,9.70505809783936,-0.98016709089279,0.71901106834412,0.29879131913185,-0.83922570943832,-1.60535275936127
85,1106733329,-54.09526062011719,-83.39084625244141,25.54079627990723,9.70634174346924,-0.94961607456207,0.69770091772079,-0.23244801163673,-0.93326252698898,-1.70613849163055
86,1106749996,-54.19339370727539,-83.40614318847656,25.64131927490234,9.72478580474854,-0.96895086765289,0.68702560663223,-0.13664375245571,-1.00906348228455,-1.57195377349854
87,1106766663,-54.27408981323242,-83.42099761962891,25.72830009460449,9.72537803649902,-0.97222024202347,0.69640207290649,0.23885756731033,-0.92748695611954,-1.59467208385468
88,1106783330,-54.34688186645508,-83.43296051025391,25.80697441101074,9.73973464965820,-0.97937899827957,0.72847193479538,0.23510536551476,-0.78408157825470,-1.49406564235687
89,1106799997,-54.40637588500977,-83.44387054443359,25.85327720642090,9.73064231872559,-0.97040927410126,0.67647302150726,-0.75055450201035,-0.57742542028427,-1.56305325031281
90,1106816664,-54.46241378784180,-83.45572662353516,25.91807556152344,9.71343612670898,-1.01157522201538,0.68262159824371,0.25832331180573,-0.68840539455414,-1.56079959869385
91,1106833331,-54.51048660278320,-83.46796417236328,25.96182632446289,9.71189022064209,-0.95297306776047,0.68090528249741,-0.05295426025987,-0.61706119775772,-1.61973428726196
92,1106849998,-54.54843139648438,-83.47853851318359,25.99953460693359,9.69497013092041,-0.94160622358322,0.67011475563049,-0.08432981371880,-0.50667035579681,-1.59556865692139
93,1106866665,-54.59511184692383,-83.48913574218750,26.03333854675293,9.71280288696289,-0.99751210212708,0.71324175596237,-0.46983942389488,-0.51865720748901,-1.58505475521088
94,1106883332,-54.65473937988281,-83.50248718261719,26.10046577453613,9.74498462677002,-1.00738358497620,0.72653371095657,0.48641714453697,-0.77183872461319,-1.60057592391968
95,1106899999,-54.68948745727539,-83.51278686523438,26.15851783752441,9.73140430450439,-0.95056939125061,0.67102533578873,1.16551220417023,-0.59080809354782,-1.50933063030243
96,1106916666,-54.70521926879883,-83.51938629150391,26.17659950256348,9.75665569305420,-0.91719925403595,0.63069587945938,0.07077428698540,-0.25484633445740,-1.47767341136932
97,1106933333,-54.71165847778320,-83.52385711669922,26.17699813842773,9.74944496154785,-0.98416167497635,0.68648993968964,0.02264803089201,-0.12822997570038,-1.41843140125275
98,1106950000,-54.69693756103516,-83.52931213378906,26.16927146911621,9.71199607849121,-0.99979549646378,0.70979738235474,0.61725968122482,-0.09293568134308,-1.50030219554901
99,1106966667,-54.70148468017578,-83.53698730468750,26.18201065063477,9.70477294921875,-0.98015987873077,0.69729655981064,0.53638756275177,-0.26988101005554,-1.53859329223633
100,1106983334,-54.70959472656250,-83.54429626464844,26.20435142517090,9.74142265319824,-0.99334311485291,0.71321731805801,0.78179568052292,-0.30479115247726,-1.49921381473541
101,1107000001,-54.66039276123047,-83.54809570312500,26.16237831115723,9.74510765075684,-0.91913473606110,0.65281748771667,0.67549020051956,0.14794537425041,-1.55444753170013
102,1107016668,-54.59344482421875,-83.54669952392578,26.08664894104004,9.73502349853516,-0.89810204505920,0.64392888545990,-0.56688588857651,0.53934592008591,-1.45466065406799
103,1107033335,-54.51060485839844,-83.54508972167969,25.99632644653320,9.69958496093750,-1.02804267406464,0.63106918334961,-0.49296763539314,0.62982261180878,-1.49958503246307
104,1107050002,-54.40530395507812,-83.54338836669922,25.89290237426758,9.72190475463867,-0.95605975389481,0.67150032520294,0.26910626888275,0.68437772989273,-1.53673636913300
105,1107066669,-54.27929306030273,-83.53874969482422,25.76043319702148,9.71137142181396,-0.89926326274872,0.66582506895065,-0.48758897185326,0.97293037176132,-1.52619671821594
106,1107083336,-54.18350219726562,-83.53458404541016,25.65104484558105,9.70416641235352,-0.92439687252045,0.71786081790924,-0.79113775491714,0.81650078296661,-1.45093369483948
107,1107100003,-54.10643005371094,-83.53131866455078,25.56561660766602,9.74360179901123,-1.00103318691254,0.74522680044174,-0.22197245061398,0.62823462486267,-1.38638973236084
108,1107116670,-54.02541732788086,-83.52943420410156,25.50165939331055,9.74714565277100,-0.98857700824738,0.72009247541428,0.75204652547836,0.51178658008575,-1.40492069721222
109,1107133337,-53.95752716064453,-83.52786254882812,25.42991638183594,9.72985935211182,-0.94231981039047,0.72053724527359,-0.33397680521011,0.53130346536636,-1.43486189842224
110,1107150004,-53.88368988037109,-83.52758789062500,25.35321044921875,9.68863296508789,-0.96801644563675,0.73919916152954,-0.27150744199753,0.50839293003082,-1.52437829971313
111,1107166671,-53.83562469482422,-83.53100585937500,25.31640434265137,9.68208694458008,-0.97858923673630,0.74149125814438,0.25791350007057,0.18896409869194,-1.56000566482544
112,1107183338,-53.80340194702148,-83.53671264648438,25.29885864257812,9.70991420745850,-0.92594915628433,0.72568571567535,0.76590299606323,-0.02721349522471,-1.57625675201416
113,1107200005,-53.78160858154297,-83.54508972167969,25.28205490112305,9.71942234039307,-0.95848786830902,0.69267547130585,0.42210367321968,-0.14524960517883,-1.68399655818939
114,1107216672,-53.75354385375977,-83.55515289306641,25.26343727111816,9.70967102050781,-0.95353674888611,0.68385386466980,0.72877717018127,-0.20013760030270,-1.77043914794922
115,1107233339,-53.72872161865234,-83.56468200683594,25.24908065795898,9.73615455627441,-0.95175099372864,0.66513365507126,0.57554936408997,-0.18617869913578,-1.74413514137268
116,1107250006,-53.68823623657227,-83.57063293457031,25.20641899108887,9.77315330505371,-0.91684603691101,0.69817596673965,0.28255289793015,0.05160318315029,-1.65440106391907
117,1107266673,-53.61998367309570,-83.57035064697266,25.13361549377441,9.75975322723389,-0.88388061523438,0.69248843193054,0.12233266234398,0.43987894058228,-1.47460007667542
118,1107283340,-53.53007507324219,-83.56565856933594,25.03655242919922,9.76945018768311,-0.97896504402161,0.67378002405167,-0.44047433137894,0.76423811912537,-1.38719654083252
119,1107300007,-53.42507171630859,-83.55908203125000,24.93567085266113,9.74930953979492,-0.92855465412140,0.68285858631134,0.34388250112534,0.84703111648560,-1.30321252346039
120,1107316674,-53.29840469360352,-83.54657745361328,24.80835151672363,9.72689437866211,-0.89514684677124,0.68793606758118,0.04379131644964,1.20413637161255,-1.12950730323792
121,1107333341,-53.16161727905273,-83.52912902832031,24.66092109680176,9.72816467285156,-0.90206968784332,0.68750357627869,-0.62744700908661,1.49719667434692,-0.98396295309067
122,1107350008,-53.02607345581055,-83.51019287109375,24.52018737792969,9.71860694885254,-0.93909049034119,0.71090966463089,-0.28783553838730,1.51415252685547,-0.89293563365936
123,1107366675,-52.91365051269531,-83.49205780029297,24.41671562194824,9.70379638671875,-0.94555526971817,0.74131947755814,0.51501375436783,1.29383194446564,-0.77884376049042
124,1107383342,-52.80839538574219,-83.47186279296875,24.32278823852539,9.72311305999756,-0.91747218370438,0.72271960973740,0.68141943216324,1.31447565555573,-0.64487653970718
125,1107400009,-52.69990539550781,-83.44958496093750,24.21135711669922,9.75984477996826,-0.95409053564072,0.72130048274994,-0.01344666630030,1.46898424625397,-0.61785513162613
126,1107416676,-52.59756088256836,-83.42711639404297,24.10709571838379,9.74299430847168,-0.96982461214066,0.74986124038696,-0.11679391562939,1.46176159381866,-0.58485323190689
127,1107433343,-52.50979232788086,-83.40846252441406,24.01801490783691,9.71480751037598,-0.98419445753098,0.81448441743851,0.12085992842913,1.22033631801605,-0.69658857584000
128,1107450010,-52.44290161132812,-83.39019012451172,23.95667839050293,9.71904659271240,-0.97875857353210,0.79664641618729,0.23992054164410,1.08227097988129,-0.61981451511383
129,1107466677,-52.35251998901367,-83.37099456787109,23.87118339538574,9.73104000091553,-0.98023378849030,0.75621473789215,0.05174405127764,1.26538896560669,-0.69181185960770
130,1107483344,-52.29262542724609,-83.35553741455078,23.80079269409180,9.76462078094482,-0.93826729059219,0.79760652780533,-0.53419131040573,1.01848244667053,-0.77938157320023
131,1107500011,-52.25095367431641,-83.33979797363281,23.74678802490234,9.71360778808594,-0.97240036725998,0.77018016576767,-0.43864312767982,0.91598069667816,-0.68887925148010
132,1107516678,-52.19494628906250,-83.32559204101562,23.68927764892578,9.71130180358887,-0.93964171409607,0.71261131763458,0.04537930339575,0.89826947450638,-0.78725755214691
133,1107533345,-52.13158416748047,-83.30827331542969,23.62519645690918,9.72770500183105,-0.97771316766739,0.73585432767868,-0.06765594333410,1.06639111042023,-0.67762231826782
134,1107550012,-52.05015945434570,-83.28968811035156,23.54279899597168,9.76450824737549,-0.97090691328049,0.77699601650238,-0.23675100505352,1.22812259197235,-0.71283990144730
135,1107566679,-51.97457885742188,-83.27308654785156,23.46260261535645,9.71928691864014,-0.96732378005981,0.76218193769455,-0.52544456720352,1.15584361553192,-0.79987180233002
136,1107583346,-51.91781997680664,-83.25954437255859,23.39383888244629,9.69797611236572,-0.99379581212997,0.80292803049088,-0.41792240738869,0.92289590835571,-0.86560684442520
137,1107600013,-51.87755584716797,-83.25212860107422,23.34420967102051,9.70977020263672,-1.01815426349640,0.84243440628052,-0.25537142157555,0.59004610776901,-1.07239079475403
138,1107616680,-51.86070632934570,-83.24872589111328,23.33044815063477,9.71504116058350,-0.93008661270142,0.80018901824951,0.06950645148754,0.28791874647141,-1.12311673164368
139,1107633347,-51.87062072753906,-83.24723815917969,23.33468627929688,9.71287631988525,-1.00222432613373,0.76604789495468,-0.33576968312263,0.09757798165083,-1.13555181026459
140,1107650014,-51.89129257202148,-83.25075531005859,23.35786628723145,9.72560787200928,-1.01277470588684,0.75542646646500,0.18907937407494,-0.19290205836296,-1.28165960311890
141,1107666681,-51.91893386840820,-83.25499725341797,23.39590263366699,9.73433494567871,-0.98991578817368,0.77372717857361,0.55468779802322,-0.29414907097816,-1.26024723052979
142,1107683348,-51.93484497070312,-83.25986480712891,23.40574645996094,9.72856712341309,-0.92837989330292,0.77914977073669,-0.40548747777939,-0.15972079336643,-1.41014575958252
143,1107700015,-51.95851898193359,-83.26300811767578,23.42066001892090,9.73497772216797,-1.02153885364532,0.74867832660675,-0.33521902561188,-0.15080757439137,-1.29622030258179
144,1107716682,-51.96325302124023,-83.26486968994141,23.42779922485352,9.72015285491943,-0.95391756296158,0.74874889850616,0.21064525842667,-0.04293969273567,-1.27236211299896
145,1107733349,-51.98590850830078,-83.26617431640625,23.45390510559082,9.72407627105713,-0.92326819896698,0.76573574542999,0.29561540484428,-0.13382636010647,-1.16309833526611
146,1107750016,-51.99241638183594,-83.26641082763672,23.46497535705566,9.72049617767334,-0.97869187593460,0.70113319158554,0.40359854698181,-0.01302405912429,-1.17486739158630
147,1107766683,-51.98571777343750,-83.26538848876953,23.46434974670410,9.73380756378174,-0.94557464122772,0.72149002552032,0.32092073559761,0.11763273179531,-1.17677569389343
148,1107783350,-51.98655700683594,-83.26335144042969,23.46332931518555,9.72054100036621,-0.95384174585342,0.74520868062973,0.00443739956245,0.13916018605232,-1.12392365932465
149,1107800017,-51.99269104003906,-83.26245117187500,23.47086334228516,9.71952152252197,-0.97185069322586,0.76193153858185,-0.07014037668705,0.07447533309460,-1.15917944908142
150,1107816684,-52.00613784790039,-83.26379394531250,23.49380493164062,9.71036815643311,-0.97876167297363,0.78849136829376,0.49034872651100,-0.09855765849352,-1.18874943256378
151,1107833351,-52.00283050537109,-83.26574707031250,23.49806594848633,9.74087142944336,-0.98537272214890,0.76764684915543,0.30552747845650,-0.01188429165632,-1.30700325965881
152,1107850018,-52.01727294921875,-83.26602935791016,23.51980209350586,9.74619197845459,-0.96737325191498,0.76441287994385,0.08956120163202,-0.02950582653284,-1.16658163070679
153,1107866685,-52.02455520629883,-83.26486968994141,23.53823089599609,9.73940849304199,-0.95796304941177,0.73668020963669,0.24031753838062,0.04879859462380,-1.11845529079437
154,1107883352,-52.02743530273438,-83.26303100585938,23.54901123046875,9.72982597351074,-0.96950292587280,0.72806096076965,0.35195049643517,0.08872877806425,-1.09729921817780
155,1107900019,-52.02819824218750,-83.26349639892578,23.55241394042969,9.74889755249023,-0.98478525876999,0.74046123027802,0.26517471671104,0.02391586080194,-1.22193074226379
156,1107916686,-52.05748748779297,-83.26554107666016,23.58727455139160,9.72180175781250,-0.96794629096985,0.77386760711670,0.03910418599844,-0.17037566006184,-1.18515074253082
157,1107933353,-52.09851837158203,-83.26687622070312,23.63484954833984,9.70911884307861,-0.95546120405197,0.75817489624023,0.41813373565674,-0.24924999475479,-1.07901179790497
158,1107950020,-52.12880706787109,-83.26830291748047,23.67714118957520,9.76752471923828,-0.96147179603577,0.73325586318970,0.57472980022430,-0.20627190172672,-1.11702108383179
159,1107966687,-52.12761306762695,-83.26612091064453,23.67650985717773,9.73678398132324,-0.95541894435883,0.72112405300140,-0.06975618004799,0.16879409551620,-1.12196421623230
160,1107983354,-52.12667083740234,-83.26518249511719,23.67956352233887,9.72067928314209,-0.98281395435333,0.75098454952240,0.26780000329018,0.08506618440151,-1.16217637062073
161,1108000021,-52.12548446655273,-83.26451110839844,23.67918777465820,9.70473289489746,-0.97472065687180,0.72493076324463,-0.00262530171312,0.09829514473677,-1.20346403121948
162,1108016688,-52.12751770019531,-83.26123046875000,23.68607711791992,9.71965408325195,-0.97272908687592,0.73724120855331,0.28784188628197,0.15192812681198,-1.04033648967743
163,1108033355,-52.12406539916992,-83.25817871093750,23.70254707336426,9.71671962738037,-0.94676494598389,0.76105064153671,0.46439021825790,0.16196830570698,-1.05287396907806
164,1108050022,-52.12870025634766,-83.25558471679688,23.71066093444824,9.71874904632568,-0.98433488607407,0.75512057542801,0.13743133842945,0.12822356820107,-1.06853616237640
165,1108066689,-52.14635086059570,-83.25724029541016,23.74053573608398,9.73593711853027,-0.99744820594788,0.77711558341980,0.50291174650192,-0.13705354928970,-1.18959450721741
166,1108083356,-52.18030929565430,-83.26119995117188,23.78815078735352,9.74605464935303,-0.99948787689209,0.81115847826004,0.67529803514481,-0.32799625396729,-1.21239006519318
167,1108100023,-52.23364639282227,-83.26681518554688,23.85481071472168,9.74893283843994,-0.96371901035309,0.75431036949158,0.71307677030563,-0.49969097971916,-1.20345127582550
168,1108116690,-52.26760482788086,-83.26958465576172,23.90144729614258,9.73509407043457,-0.97358888387680,0.71988970041275,0.78020763397217,-0.29148530960083,-1.14725673198700
169,1108133357,-52.31689453125000,-83.27162170410156,23.96128463745117,9.72447204589844,-0.97737663984299,0.71010631322861,0.52636015415192,-0.33409205079079,-1.07246768474579
170,1108150024,-52.36308288574219,-83.27725219726562,24.01347351074219,9.70545291900635,-0.99001264572144,0.72783160209656,0.31132873892784,-0.41961282491684,-1.26311588287354
171,1108166691,-52.38503265380859,-83.28350067138672,24.04269599914551,9.71446132659912,-0.97919636964798,0.72951912879944,0.35084915161133,-0.31654736399651,-1.40447235107422
172,1108183358,-52.41400909423828,-83.28811645507812,24.07319068908691,9.72744560241699,-0.95292913913727,0.71981537342072,0.06164335832000,-0.26186421513557,-1.30751538276672
173,1108200025,-52.43608093261719,-83.29296875000000,24.09702301025391,9.70085811614990,-0.96037012338638,0.75836163759232,0.02673325315118,-0.23251207172871,-1.35584652423859
174,1108216692,-52.47805023193359,-83.29864501953125,24.14537620544434,9.72332668304443,-1.00143098831177,0.73703902959824,0.39428827166557,-0.40678089857101,-1.28208208084106
175,1108233359,-52.50452041625977,-83.30397033691406,24.19678688049316,9.73056697845459,-0.97105169296265,0.73991566896439,0.74492615461349,-0.34021344780922,-1.30836069583893
176,1108250026,-52.51368713378906,-83.30686950683594,24.20529937744141,9.71749782562256,-0.96438503265381,0.72226071357727,-0.05317195504904,-0.08135873079300,-1.32719886302948
177,1108266693,-52.51527023315430,-83.30968475341797,24.21373748779297,9.71819877624512,-0.98940664529800,0.70741826295853,0.00041620634147,-0.04139012098312,-1.35249149799347
178,1108283360,-52.54293441772461,-83.31610870361328,24.24336814880371,9.72262477874756,-0.99777138233185,0.74615156650543,0.08897212892771,-0.32394945621490,-1.39892733097076
179,1108300027,-52.55968093872070,-83.32247924804688,24.26785469055176,9.74229431152344,-0.97524219751358,0.76712942123413,0.30123734474182,-0.27962663769722,-1.42999541759491
180,1108316694,-52.57144927978516,-83.32717132568359,24.28401374816895,9.73612403869629,-0.98232048749924,0.73348736763000,0.22808746993542,-0.18758741021156,-1.38200998306274
181,1108333361,-52.58224487304688,-83.33132171630859,24.29362487792969,9.73722457885742,-0.96475249528885,0.74714678525925,-0.07250955700874,-0.13226400315762,-1.37864208221436
182,1108350028,-52.57566833496094,-83.33635711669922,24.29210853576660,9.69727134704590,-1.00850605964661,0.75085741281509,0.03804126009345,-0.07988601177931,-1.49000597000122
183,1108366695,-52.58021545410156,-83.34255981445312,24.30211448669434,9.70925807952881,-0.95112174749374,0.72707235813141,0.25861781835556,-0.20556752383709,-1.48370516300201
184,1108383362,-52.57628631591797,-83.34731292724609,24.29729843139648,9.75656414031982,-0.97805684804916,0.71069258451462,-0.15792791545391,-0.06308408081532,-1.47538113594055
185,1108400029,-52.56843566894531,-83.35096740722656,24.28154373168945,9.76438426971436,-0.96159482002258,0.73684579133987,-0.23051430284977,0.00576926022768,-1.44250714778900
186,1108416696,-52.55125045776367,-83.35462188720703,24.26360511779785,9.69628429412842,-0.96315842866898,0.74140512943268,-0.26023781299591,0.05693063512444,-1.49214458465576
187,1108433363,-52.55123901367188,-83.35984802246094,24.25998115539551,9.68072509765625,-0.99552911520004,0.70986163616180,-0.13259695470333,-0.10754772275686,-1.48311614990234
188,1108450030,-52.53226089477539,-83.36452484130859,24.24857139587402,9.74616909027100,-0.95873266458511,0.70085656642914,0.25724753737450,-0.01368998922408,-1.50336313247681
189,1108466697,-52.49183654785156,-83.36608886718750,24.20275306701660,9.73119831085205,-0.90823447704315,0.72988963127136,-0.27126410603523,0.26110228896141,-1.49173498153687
190,1108483364,-52.44828033447266,-83.36555480957031,24.15453147888184,9.70819950103760,-0.97939091920853,0.74394094944000,-0.31074604392052,0.36370670795441,-1.40381920337677
191,1108500031,-52.39286041259766,-83.36605072021484,24.10272789001465,9.69510173797607,-1.00589716434479,0.71312475204468,0.21225883066654,0.34046319127083,-1.47159039974213
192,1108516698,-52.33536911010742,-83.36838531494141,24.05208778381348,9.71663188934326,-0.97406536340714,0.73553013801575,0.25185608863831,0.28312918543816,-1.56014633178711
193,1108533365,-52.27289199829102,-83.36966705322266,23.98781204223633,9.73702907562256,-0.95274913311005,0.74318176507950,-0.14235538244247,0.38299307227135,-1.56254112720490
194,1108550032,-52.21374893188477,-83.36945343017578,23.93674278259277,9.74218654632568,-0.96897089481354,0.75233197212219,-0.10762456059456,0.41376674175262,-1.47643136978149
195,1108566699,-52.16054153442383,-83.37320709228516,23.89113807678223,9.70659255981445,-0.97571319341660,0.75735604763031,0.44848474860191,0.19203761219978,-1.59024131298065
196,1108583366,-52.13904953002930,-83.37907409667969,23.87447547912598,9.73158073425293,-0.94188177585602,0.74690210819244,0.20972318947315,-0.04515518993139,-1.58131515979767
197,1108600033,-52.13221740722656,-83.38692474365234,23.86444664001465,9.70690631866455,-0.97783672809601,0.74186313152313,-0.23390799760818,-0.15850420296192,-1.64252972602844
198,1108616700,-52.12562561035156,-83.40058898925781,23.86431884765625,9.68607521057129,-1.01784813404083,0.74435424804688,0.62545567750931,-0.45265322923660,-1.85643386840820
199,1108633367,-52.12049865722656,-83.41590881347656,23.87334251403809,9.71690750122070,-0.93026673793793,0.76558858156204,0.94548642635345,-0.54734343290329,-1.90085935592651
200,1108650034,-52.11094284057617,-83.42797851562500,23.88112068176270,9.73824596405029,-0.94876426458359,0.73095178604126,0.61394274234772,-0.37719818949699,-1.79423356056213
201,1108666701,-52.07151794433594,-83.43717193603516,23.84258651733398,9.77155208587646,-0.94759875535965,0.71308171749115,0.03687588125467,-0.05718034878373,-1.83012974262238
202,1108683368,-52.00991439819336,-83.44303894042969,23.78722000122070,9.74762535095215,-0.93252986669540,0.67642718553543,0.29359194636345,0.17124010622501,-1.73126471042633
203,1108700035,-51.92204284667969,-83.44605255126953,23.69027519226074,9.72861385345459,-0.91575270891190,0.69538944959641,-0.54528152942657,0.48776185512543,-1.78069722652435
204,1108716702,-51.85350036621094,-83.45079040527344,23.62180900573730,9.68936443328857,-0.93423384428024,0.71837687492371,-0.13123948872089,0.28186139464378,-1.74874567985535
205,1108733369,-51.78853607177734,-83.45545959472656,23.55614852905273,9.71893405914307,-0.94679099321365,0.71722251176834,0.09529846161604,0.24410824477673,-1.71336162090302
206,1108750036,-51.72526931762695,-83.45674133300781,23.49897956848145,9.75129222869873,-0.92186826467514,0.75642323493958,0.19785168766975,0.34992709755898,-1.54069352149963
207,1108766703,-51.67391967773438,-83.45950317382812,23.44727134704590,9.72013664245605,-0.95633697509766,0.75548118352890,-0.14012706279755,0.26426544785500,-1.57849776744843
208,1108783370,-51.62314224243164,-83.46271514892578,23.40534782409668,9.72052097320557,-0.96517109870911,0.74091649055481,0.51067245006561,0.18015332520008,-1.55974936485291
209,1108800037,-51.56640625000000,-83.46723937988281,23.35307884216309,9.72619247436523,-0.94063931703568,0.71763694286346,0.43095290660858,0.16890935599804,-1.65100741386414
210,1108816704,-51.50972366333008,-83.46688842773438,23.29471397399902,9.75049114227295,-0.89008557796478,0.71212953329086,-0.08786437660456,0.40234354138374,-1.45444285869598
211,1108833371,-51.44165039062500,-83.46289062500000,23.21980476379395,9.77246952056885,-0.92422550916672,0.74188345670700,-0.13960202038288,0.59793490171432,-1.34169566631317
212,1108850038,-51.39149856567383,-83.46112060546875,23.16847229003906,9.70528793334961,-0.95764583349228,0.75627160072327,-0.06975618749857,0.41872286796570,-1.35839521884918
213,1108866705,-51.35066223144531,-83.46214294433594,23.13999176025391,9.69034862518311,-1.01165640354156,0.73375457525253,0.66687142848969,0.19540569186211,-1.39861977100372
214,1108883372,-51.29738998413086,-83.46340179443359,23.09881019592285,9.79570293426514,-0.88736933469772,0.71466743946075,0.64886569976807,0.25448137521744,-1.46625018119812
215,1108900039,-51.23220062255859,-83.46163177490234,23.02199935913086,9.75270652770996,-0.91037178039551,0.73699021339417,-0.91789501905441,0.56995296478271,-1.49174761772156
216,1108916706,-51.16066360473633,-83.45962524414062,22.95599365234375,9.69341278076172,-0.96475434303284,0.72167819738388,0.00332324765623,0.53068876266479,-1.43861424922943
217,1108933373,-51.10439682006836,-83.45794677734375,22.90738296508789,9.70705890655518,-0.95412147045135,0.74613583087921,0.29556414484978,0.41389483213425,-1.36619424819946
218,1108950040,-51.02729415893555,-83.45339202880859,22.82615852355957,9.77872943878174,-0.88425928354263,0.72181570529938,0.32275202870369,0.62920802831650,-1.32434296607971
219,1108966707,-50.96120834350586,-83.44570159912109,22.73699569702148,9.73264026641846,-0.93300139904022,0.75079584121704,-1.15499174594879,0.81907486915588,-1.24290740489960
220,1108983374,-50.86826324462891,-83.43651580810547,22.63461112976074,9.73231315612793,-0.95027595758438,0.74533897638321,-0.37502115964890,0.95601326227188,-1.22289121150970
221,1109000041,-50.77569198608398,-83.42839813232422,22.53276443481445,9.72018146514893,-0.94218331575394,0.72189366817474,-0.30744203925133,0.90532577037811,-1.27461612224579
222,1109016708,-50.68244552612305,-83.41905975341797,22.43882179260254,9.72292518615723,-0.91415917873383,0.75329941511154,0.09234018623829,0.91727405786514,-1.19902026653290
223,1109033375,-50.61598968505859,-83.41117095947266,22.36286354064941,9.73184680938721,-0.91262304782867,0.76843702793121,-0.50318711996078,0.77595597505569,-1.18720006942749
224,1109050042,-50.54519653320312,-83.40358734130859,22.28874778747559,9.71884155273438,-0.95983439683914,0.81081229448318,-0.11215801537037,0.74967730045319,-1.19638204574585
225,1109066709,-50.49185943603516,-83.39844512939453,22.23620605468750,9.72966766357422,-0.95002311468124,0.79587906599045,-0.01269109174609,0.55698013305664,-1.22380030155182
226,1109083376,-50.45487594604492,-83.39307403564453,22.19544410705566,9.77175235748291,-0.93900913000107,0.78115701675415,0.34306287765503,0.44612836837769,-1.11611187458038
227,1109100043,-50.40715408325195,-83.38832855224609,22.14264678955078,9.72851657867432,-0.91381943225861,0.74784922599792,-0.20770619809628,0.53441542387009,-1.22460722923279
228,1109116710,-50.37614440917969,-83.38535308837891,22.10878944396973,9.70910453796387,-0.96177798509598,0.75812542438507,-0.09106594324112,0.35620221495628,-1.23994922637939
229,1109133377,-50.35594177246094,-83.38351440429688,22.08902931213379,9.70385360717773,-0.92943149805069,0.74858391284943,0.06941682100296,0.24774526059628,-1.22395408153534
230,1109150044,-50.32894897460938,-83.38259887695312,22.06035423278809,9.70638465881348,-0.93113142251968,0.76402842998505,0.02199490927160,0.24907712638378,-1.30514645576477
231,1109166711,-50.31467437744141,-83.38138580322266,22.03946304321289,9.74442958831787,-0.93569481372833,0.76169854402542,-0.38814768195152,0.23431140184402,-1.25700736045837
232,1109183378,-50.28638839721680,-83.37830352783203,22.00772857666016,9.73806476593018,-0.93493038415909,0.74882698059082,0.05471513047814,0.34074497222900,-1.20224738121033
233,1109200045,-50.25957870483398,-83.37203216552734,21.97898292541504,9.73411941528320,-0.88864040374756,0.79610979557037,-0.07274007052183,0.45961353182793,-1.06897163391113
234,1109216712,-50.22355651855469,-83.36328125000000,21.93100547790527,9.74183750152588,-0.91010671854019,0.72174185514450,-0.55387467145920,0.65411633253098,-1.02361154556274
235,1109233379,-50.18674850463867,-83.35488891601562,21.88817596435547,9.72438812255859,-0.93931633234024,0.74940663576126,-0.59521347284317,0.65079945325851,-1.04123294353485
236,1109250046,-50.16292190551758,-83.34940338134766,21.85990524291992,9.70612430572510,-0.95764881372452,0.76033198833466,-0.17803388834000,0.42722624540329,-1.09409773349762
237,1109266713,-50.15693283081055,-83.34459686279297,21.85269355773926,9.73256301879883,-0.95047944784164,0.81378036737442,-0.01445837039500,0.29009583592415,-1.03612327575684
238,1109283380,-50.14369964599609,-83.34082794189453,21.84360694885254,9.74379444122314,-0.92086082696915,0.78006649017334,0.29263150691986,0.26639127731323,-1.08636260032654
239,1109300047,-50.14865493774414,-83.33591461181641,21.85182762145996,9.74467563629150,-0.93724036216736,0.76341742277145,0.07082551717758,0.23295393586159,-0.96840345859528
240,1109316714,-50.15604019165039,-83.32814788818359,21.86737251281738,9.75318241119385,-0.91068798303604,0.69778776168823,0.35839208960533,0.29902186989784,-0.80774766206741
241,1109333381,-50.12924575805664,-83.31645965576172,21.83898544311523,9.73815441131592,-0.93848592042923,0.75612139701843,-0.14189434051514,0.67916548252106,-0.82160413265228
242,1109350048,-50.09917068481445,-83.30693054199219,21.80290031433105,9.68740463256836,-0.97768175601959,0.78208523988724,-0.38755860924721,0.63956832885742,-0.94912970066071
243,1109366715,-50.07657241821289,-83.29899597167969,21.77651214599609,9.71762943267822,-0.93029981851578,0.78206229209900,-0.15534102916718,0.51169693470001,-0.98030054569244
244,1109383382,-50.05271911621094,-83.29223632812500,21.74698829650879,9.76000785827637,-0.94882899522781,0.78490966558456,-0.30523937940598,0.48842778801918,-1.04962134361267
245,1109400049,-50.05599975585938,-83.28787994384766,21.75211143493652,9.72166824340820,-0.94549757242203,0.79155802726746,0.02214858308434,0.22737033665180,-1.00180232524872
246,1109416716,-50.08361434936523,-83.28688812255859,21.78948593139648,9.70248222351074,-0.95875340700150,0.78175568580627,0.32180437445641,-0.07209975272417,-1.03759610652924
247,1109433383,-50.10858535766602,-83.28682708740234,21.81738281250000,9.72880268096924,-0.97527801990509,0.75818657875061,0.50471740961075,-0.10211782902479,-1.06804955005646
248,1109450050,-50.10960769653320,-83.28636169433594,21.82026863098145,9.75541877746582,-0.94069504737854,0.75600057840347,0.20544585585594,0.07110725343227,-1.17992591857910
249,1109466717,-50.09241485595703,-83.28069305419922,21.79269218444824,9.75470352172852,-0.91183435916901,0.75909423828125,-0.52690446376801,0.43380865454674,-1.08180356025696
250,1109483384,-50.06528854370117,-83.27285003662109,21.75747871398926,9.72652912139893,-0.92608296871185,0.73791050910950,-0.32478183507919,0.55210089683533,-1.01422441005707
251,1109500051,-50.03179931640625,-83.26503753662109,21.72127532958984,9.72651100158691,-0.97873401641846,0.74254786968231,-0.15495683252811,0.57096469402313,-1.03249931335449
252,1109516718,-49.99931335449219,-83.25919342041016,21.68699073791504,9.69780349731445,-0.95935869216919,0.79349815845490,-0.04795978218317,0.48247277736664,-1.10750603675842
253,1109533385,-49.98147583007812,-83.25523376464844,21.66324996948242,9.68547916412354,-0.96627068519592,0.76897925138474,0.02841088548303,0.32154822349548,-1.12470483779907
254,1109550052,-49.98307037353516,-83.25488281250000,21.66430091857910,9.71320724487305,-0.96419972181320,0.81317853927612,0.17720785737038,0.05591892451048,-1.19919943809509
255,1109566719,-50.00068283081055,-83.25968933105469,21.69189262390137,9.73374080657959,-0.97091269493103,0.78612774610519,0.46810412406921,-0.24485740065575,-1.32422769069672
256,1109583386,-50.02350616455078,-83.26576995849609,21.72293472290039,9.72400379180908,-0.96764105558395,0.82486981153488,0.28743213415146,-0.30814638733864,-1.37681066989899
257,1109600053,-50.04777526855469,-83.27136230468750,21.76010704040527,9.75427532196045,-0.95175588130951,0.79016709327698,0.71967208385468,-0.33711436390877,-1.31801676750183
258,1109616720,-50.06110763549805,-83.27559661865234,21.77499580383301,9.75370216369629,-0.94329738616943,0.79355752468109,0.16693717241287,-0.17654836177826,-1.34763789176941
259,1109633387,-50.07431793212891,-83.28020477294922,21.79182434082031,9.73622894287109,-0.94317764043808,0.75707811117172,0.22649951279163,-0.19296607375145,-1.35758829116821
260,1109650054,-50.09145355224609,-83.28536987304688,21.81626892089844,9.72752761840820,-0.93591016530991,0.75170636177063,0.53090643882751,-0.26630806922913,-1.34858548641205
261,1109666721,-50.09698104858398,-83.28936767578125,21.81877326965332,9.72095775604248,-0.93864202499390,0.72245138883591,0.04253629222512,-0.11065968126059,-1.38044774532318
262,1109683388,-50.09068298339844,-83.29109954833984,21.80806732177734,9.70287895202637,-0.94997739791870,0.73544389009476,-0.12849892675877,0.05247401446104,-1.34588325023651
263,1109700055,-50.08176422119141,-83.29364013671875,21.80028724670410,9.72093200683594,-0.95438939332962,0.76030266284943,0.06206597760320,0.01887015625834,-1.38024282455444
264,1109716722,-50.05935287475586,-83.29471588134766,21.78207778930664,9.74302482604980,-0.93158787488937,0.76060223579407,0.30874186754227,0.13292349874973,-1.34753525257111
265,1109733389,-50.02950286865234,-83.29293823242188,21.74660110473633,9.77374744415283,-0.92056220769882,0.74424898624420,-0.02488273568451,0.30502805113792,-1.28420794010162
266,1109750056,-49.99487304687500,-83.29042053222656,21.70938682556152,9.73371315002441,-0.92448669672012,0.76219201087952,-0.28519743680954,0.38771867752075,-1.28683328628540
267,1109766723,-49.97398757934570,-83.28712463378906,21.68711280822754,9.72447204589844,-0.97412484884262,0.77415579557419,-0.07508362829685,0.31811615824699,-1.18250000476837
268,1109783390,-49.95893478393555,-83.28858184814453,21.67893600463867,9.73055744171143,-0.99719965457916,0.78757041692734,0.43416729569435,0.06380764394999,-1.32498347759247
269,1109800057,-49.95294189453125,-83.29209136962891,21.67731285095215,9.72475814819336,-0.94589692354202,0.79836314916611,0.22707578539848,-0.05125100538135,-1.40242338180542
270,1109816724,-49.95379638671875,-83.29562377929688,21.68069458007812,9.75114059448242,-0.97181570529938,0.79974597692490,0.15506568551064,-0.08212711662054,-1.37608063220978
271,1109833391,-49.94441986083984,-83.29855346679688,21.68352508544922,9.74210739135742,-0.95428806543350,0.76741462945938,0.65689533948898,-0.04228656738997,-1.34789395332336
272,1109850058,-49.94471359252930,-83.30154418945312,21.69926643371582,9.73408699035645,-0.92222112417221,0.74716615676880,0.47101113200188,-0.08019335567951,-1.32285749912262
273,1109866725,-49.93949508666992,-83.30250549316406,21.69242858886719,9.73994445800781,-0.93693625926971,0.74028807878494,-0.07177959382534,0.06730376929045,-1.30514633655548
274,1109883392,-49.92634582519531,-83.30215454101562,21.67477798461914,9.77532005310059,-0.94249749183655,0.72243356704712,-0.10584449023008,0.17583759129047,-1.26936542987823
275,1109900059,-49.90692520141602,-83.30142211914062,21.65922355651855,9.72409629821777,-0.93863284587860,0.77761006355286,0.03436583653092,0.20454943180084,-1.28017389774323
276,1109916726,-49.89807891845703,-83.30060577392578,21.65443992614746,9.72012233734131,-0.95863050222397,0.80320638418198,0.20105330646038,0.13576652109623,-1.21701300144196
277,1109933393,-49.89385604858398,-83.30224609375000,21.66401481628418,9.73158836364746,-0.92397177219391,0.74399846792221,0.48251119256020,-0.00808080658317,-1.28326022624969
278,1109950060,-49.88506317138672,-83.30095672607422,21.64862632751465,9.75481319427490,-0.93501830101013,0.73742687702179,-0.42570865154266,0.21485850214958,-1.23441684246063
279,1109966727,-49.86003875732422,-83.29785156250000,21.62331962585449,9.72145366668701,-0.93351215124130,0.74967992305756,-0.00088363821851,0.33006450533867,-1.19870007038116
280,1109983394,-49.82231521606445,-83.29346466064453,21.57531356811523,9.73720455169678,-0.93473708629608,0.77289891242981,-0.41017454862595,0.48265206813812,-1.23416066169739
281,1110000061,-49.76623535156250,-83.28787994384766,21.52350425720215,9.71173095703125,-0.96952593326569,0.76897472143173,0.13508778810501,0.58241361379623,-1.21752536296844
282,1110016728,-49.72320938110352,-83.28492736816406,21.47928047180176,9.74695301055908,-0.92041611671448,0.81470179557800,-0.12605288624763,0.43858546018600,-1.29345417022705
283,1110033395,-49.70147323608398,-83.28390502929688,21.45780754089355,9.72343730926514,-0.93177157640457,0.76467865705490,-0.07019159942865,0.23956197500229,-1.28295302391052
284,1110050062,-49.70041275024414,-83.28343963623047,21.45537376403809,9.73425674438477,-0.97304600477219,0.76918220520020,0.18024297058582,0.08319645375013,-1.19881522655487
285,1110066729,-49.70349502563477,-83.28495788574219,21.46869087219238,9.74928092956543,-0.94789499044418,0.79670858383179,0.69133150577545,-0.06250780075788,-1.23121535778046
286,1110083396,-49.73220443725586,-83.28671264648438,21.49767494201660,9.73492240905762,-0.96643012762070,0.80624794960022,0.18711997568607,-0.16344740986824,-1.16193282604218
287,1110100063,-49.73474884033203,-83.28961181640625,21.51044082641602,9.73882865905762,-0.94000822305679,0.75519132614136,0.52867811918259,-0.09755877405405,-1.30787408351898
288,1110116730,-49.73566055297852,-83.29053497314453,21.51001739501953,9.73005580902100,-0.94576239585876,0.76987016201019,0.13447308540344,0.02299380302429,-1.25600838661194
289,1110133397,-49.73574066162109,-83.29121398925781,21.51036834716797,9.73786449432373,-0.90687769651413,0.73729419708252,0.24693845212460,0.02695096097887,-1.23857879638672
290,1110150064,-49.71120834350586,-83.28864288330078,21.48514556884766,9.73394966125488,-0.90193814039230,0.72832554578781,-0.53983891010284,0.35844334959984,-1.26033699512482
291,1110166731,-49.68571853637695,-83.28475189208984,21.45062637329102,9.70295715332031,-0.94740271568298,0.76596772670746,-0.48739692568779,0.40838804841042,-1.20269560813904
292,1110183398,-49.65147399902344,-83.27947235107422,21.41261863708496,9.72715091705322,-0.94702708721161,0.75096714496613,-0.10083719342947,0.47541654109955,-1.14865279197693
293,1110200065,-49.61467361450195,-83.27465820312500,21.37275505065918,9.70699787139893,-0.95113444328308,0.78474396467209,0.16382524371147,0.44825428724289,-1.16184341907501
294,1110216732,-49.59205245971680,-83.27212524414062,21.35172462463379,9.72207260131836,-0.94982784986496,0.78473174571991,0.03154844418168,0.29282361268997,-1.21609091758728
295,1110233399,-49.57851409912109,-83.26970672607422,21.33910369873047,9.74899291992188,-0.94958633184433,0.79951459169388,-0.04201763123274,0.24686157703400,-1.18155217170715
296,1110250066,-49.55641937255859,-83.26658630371094,21.31159400939941,9.76376056671143,-0.92725229263306,0.76822060346603,0.06946804374456,0.30944624543190,-1.18582952022552
297,1110266733,-49.53980255126953,-83.26349639892578,21.30114364624023,9.74401473999023,-0.94563943147659,0.79326885938644,0.16921672224998,0.27425441145897,-1.14628362655640
298,1110283400,-49.53973007202148,-83.26163482666016,21.30878639221191,9.72071743011475,-0.98259407281876,0.79612165689468,0.38898643851280,0.12073185294867,-1.10572564601898
299,1110300067,-49.53401947021484,-83.26132202148438,21.31222152709961,9.73524188995361,-0.94061201810837,0.80167543888092,0.32473704218864,0.08685906976461,-1.21913897991180
300,1110316734,-49.52604675292969,-83.26093292236328,21.30329322814941,9.73215770721436,-0.93922752141953,0.75721889734268,-0.15968237817287,0.15013524889946,-1.25871050357819
301,1110333401,-49.52402496337891,-83.25971221923828,21.30580520629883,9.73017978668213,-0.93025904893875,0.75416517257690,0.21384684741497,0.11462323367596,-1.16663289070129
302,1110350068,-49.52456665039062,-83.25878143310547,21.30545043945312,9.71188259124756,-0.92201489210129,0.74090021848679,0.07766410708427,0.10298226028681,-1.17621183395386
303,1110366735,-49.52222442626953,-83.25671386718750,21.30129051208496,9.70868110656738,-0.96721607446671,0.75123834609985,0.15171043574810,0.16016259789467,-1.12928950786591
304,1110383402,-49.50009918212891,-83.25331115722656,21.28972816467285,9.76911926269531,-0.94172686338425,0.75049763917923,0.21791924536228,0.30724355578423,-1.15989673137665
305,1110400069,-49.47156906127930,-83.24802398681641,21.26325607299805,9.75420475006104,-0.90812695026398,0.76478010416031,-0.30083397030830,0.46407011151314,-1.14200627803802
306,1110416736,-49.44765472412109,-83.24227905273438,21.23733329772949,9.70526218414307,-0.96526914834976,0.77421009540558,-0.12715426087379,0.44164618849754,-1.08746409416199
307,1110433403,-49.42676544189453,-83.23796081542969,21.21852874755859,9.72625350952148,-0.92732411623001,0.73705613613129,0.36289995908737,0.33057674765587,-1.09206151962280
308,1110450070,-49.41773223876953,-83.23435974121094,21.20740890502930,9.72663116455078,-0.94734072685242,0.73813420534134,-0.05750050768256,0.26842749118805,-1.11326873302460
309,1110466737,-49.41756820678711,-83.23197937011719,21.23578643798828,9.70143985748291,-0.94135117530823,0.76916909217834,0.00529542518780,0.17264880239964,-1.11533057689667
310,1110483404,-49.41362380981445,-83.23079681396484,21.23430061340332,9.72998142242432,-0.95863986015320,0.78671151399612,0.08530951291323,0.13752099871635,-1.18502271175385
311,1110500071,-49.39759445190430,-83.22952270507812,21.22000885009766,9.73981857299805,-0.95991939306259,0.76419013738632,0.23929306864738,0.19386893510818,-1.22282719612122
312,1110516738,-49.39019012451172,-83.22689056396484,21.21965026855469,9.73874473571777,-0.95807343721390,0.78001099824905,-0.06629846990108,0.22780574858189,-1.14550244808197
313,1110533405,-49.37358856201172,-83.22167968750000,21.19815063476562,9.71510696411133,-0.89511847496033,0.78513592481613,-0.10931500047445,0.37370845675468,-1.08523559570312
314,1110550072,-49.35850524902344,-83.21814727783203,21.18301773071289,9.71599388122559,-0.99443978071213,0.78915017843246,0.00980325974524,0.30204418301582,-1.12758636474609
315,1110566739,-49.34272003173828,-83.21823120117188,21.17271232604980,9.72910785675049,-0.95378285646439,0.80740177631378,0.45054656267166,0.11852918565273,-1.27237486839294
316,1110583406,-49.33720397949219,-83.21919250488281,21.16600799560547,9.74271869659424,-0.91414213180542,0.76816254854202,-0.15813279151917,0.08408008515835,-1.31030726432800
317,1110600073,-49.33732604980469,-83.22248077392578,21.16695022583008,9.73129177093506,-0.96204876899719,0.77935522794724,-0.09517678618431,-0.04290126636624,-1.38427662849426
318,1110616740,-49.33371734619141,-83.22734832763672,21.17136383056641,9.72407722473145,-0.97295558452606,0.79951542615891,0.32638901472092,-0.12084070593119,-1.43839633464813
319,1110633407,-49.34014129638672,-83.23497009277344,21.19254875183105,9.71948146820068,-0.95368659496307,0.78139865398407,0.97591441869736,-0.33665335178375,-1.46220350265503
320,1110650074,-49.33768844604492,-83.23915100097656,21.18909072875977,9.76058959960938,-0.90780133008957,0.77265447378159,0.03609469905496,-0.08027020841837,-1.43396544456482
321,1110666741,-49.32479858398438,-83.23937988281250,21.17524147033691,9.76879310607910,-0.96022450923920,0.74993950128555,-0.06321214884520,0.14569143950939,-1.30070257186890
322,1110683408,-49.29544830322266,-83.23859405517578,21.15038299560547,9.74948883056641,-0.92435830831528,0.73121517896652,0.13366627693176,0.25371298193932,-1.31884908676147
323,1110700075,-49.24879074096680,-83.23587036132812,21.10654640197754,9.73199176788330,-0.94349652528763,0.74564749002457,0.09552896022797,0.42864769697189,-1.31340634822845
324,1110716742,-49.21343231201172,-83.23276519775391,21.06239700317383,9.70670127868652,-0.93382596969604,0.77614802122116,-0.55830562114716,0.44210717082024,-1.29356932640076
325,1110733409,-49.18541717529297,-83.23352050781250,21.02966690063477,9.71195602416992,-0.94943940639496,0.76520568132401,-0.14366163313389,0.21301443874836,-1.40475416183472
326,1110750076,-49.17550659179688,-83.23413085937500,21.01956367492676,9.73122215270996,-0.96842104196548,0.79337269067764,0.36998188495636,0.07270804792643,-1.27569174766541
327,1110766743,-49.16275024414062,-83.23415374755859,21.01961708068848,9.75870323181152,-0.91504114866257,0.77437925338745,0.53762978315353,0.09709134697914,-1.24787640571594
328,1110783410,-49.14818572998047,-83.23331451416016,21.00753402709961,9.75535678863525,-0.93530648946762,0.79395556449890,0.28644603490829,0.16426064074039,-1.23574864864349
329,1110800077,-49.13409042358398,-83.23143768310547,20.99736785888672,9.73926925659180,-0.94377267360687,0.78291553258896,0.00242680357769,0.23022617399693,-1.20520567893982
330,1110816744,-49.13330841064453,-83.23354339599609,20.99840164184570,9.69785594940186,-0.97118610143661,0.78945779800415,0.18729929625988,-0.01621283963323,-1.31055068969727
331,1110833411,-49.12897109985352,-83.23693847656250,21.00320625305176,9.72902774810791,-0.95127451419830,0.79563713073730,0.54224002361298,-0.08283146470785,-1.36487507820129
332,1110850078,-49.13293075561523,-83.24221801757812,21.01572990417480,9.74185085296631,-0.96341252326965,0.80642849206924,0.42883986234665,-0.18681903183460,-1.41289913654327
333,1110866745,-49.12957000732422,-83.24758911132812,21.02045440673828,9.72012329101562,-0.95593124628067,0.78003758192062,0.51173532009125,-0.16028428077698,-1.44723284244537
334,1110883412,-49.13330078125000,-83.25319671630859,21.03903961181641,9.76119327545166,-0.94755178689957,0.77418053150177,0.85949182510376,-0.24193757772446,-1.40274357795715
335,1110900079,-49.14218902587891,-83.25441741943359,21.04424476623535,9.79732990264893,-0.88737022876740,0.75414162874222,0.05739165097475,-0.02020841836929,-1.23690140247345
336,1110916746,-49.15065765380859,-83.25328826904297,21.04783821105957,9.73072147369385,-0.92990940809250,0.76622498035431,-0.31700834631920,0.10690098255873,-1.15958929061890
337,1110933413,-49.15950775146484,-83.25282287597656,21.06510353088379,9.71132469177246,-0.95822340250015,0.78926903009415,0.66746056079865,-0.00845219194889,-1.11079716682434
338,1110950080,-49.15672683715820,-83.25166320800781,21.06877136230469,9.75040721893311,-0.91619247198105,0.74247914552689,0.11982262134552,0.12769852578640,-1.18233346939087
339,1110966747,-49.14819335937500,-83.25023651123047,21.05727958679199,9.72923469543457,-0.93690019845963,0.74623829126358,-0.33231195807457,0.21206676959991,-1.22604167461395
340,1110983414,-49.15265274047852,-83.24828338623047,21.05393791198730,9.72246170043945,-0.92050766944885,0.76725709438324,-0.18970046937466,0.14423151314259,-1.13940656185150
341,1111000081,-49.15339660644531,-83.24652099609375,21.04997253417969,9.71538352966309,-0.97541028261185,0.77280133962631,0.04607084020972,0.14282280206680,-1.13861250877380
342,1111016748,-49.15232849121094,-83.24471282958984,21.06301116943359,9.74501514434814,-0.93246901035309,0.78539776802063,0.59571939706802,0.10140708088875,-1.10654556751251
343,1111033415,-49.15776824951172,-83.24312591552734,21.06774520874023,9.75084304809570,-0.93477714061737,0.81130284070969,-0.02840448543429,0.11688996106386,-1.13164591789246
344,1111050082,-49.18201065063477,-83.24117279052734,21.09014129638672,9.73338890075684,-0.96100795269012,0.80299210548401,-0.03830379247665,0.02736076340079,-1.03062939643860
345,1111066749,-49.21440124511719,-83.24378204345703,21.13507652282715,9.73820495605469,-0.96229481697083,0.79575222730637,0.27597042918205,-0.22204932570457,-1.17545652389526
346,1111083416,-49.25837707519531,-83.24843597412109,21.18392753601074,9.72715759277344,-0.95952516794205,0.79376918077469,0.40753009915352,-0.37537974119186,-1.20211923122406
347,1111100083,-49.31142425537109,-83.25444793701172,21.24055290222168,9.75279235839844,-0.93373477458954,0.77034509181976,0.55140942335129,-0.49294206500053,-1.21474635601044
348,1111116750,-49.36074447631836,-83.25924682617188,21.29857444763184,9.74716472625732,-0.94730073213577,0.75696337223053,0.54756754636765,-0.42027881741524,-1.17441916465759
349,1111133417,-49.40321350097656,-83.26373291015625,21.34723472595215,9.72576427459717,-0.93705064058304,0.74623304605484,0.33229273557663,-0.35921809077263,-1.21711540222168
350,1111150084,-49.43436050415039,-83.26897430419922,21.39876365661621,9.70926094055176,-0.92485940456390,0.73340213298798,0.53089356422424,-0.33810043334961,-1.27744615077972
351,1111166751,-49.47063827514648,-83.27171325683594,21.44038581848145,9.66339015960693,-0.87791609764099,0.72566390037537,0.21864920854568,-0.24280837178230,-1.17057728767395
352,1111183418,-49.49293899536133,-83.27317047119141,21.45568275451660,9.75092983245850,-0.74039602279663,0.81614774465561,-0.50786137580872,-0.05050824210048,-1.22988331317902
353,1111200085,-49.56670379638672,-83.26970672607422,21.47690391540527,9.81023120880127,-0.75519675016403,0.77354818582535,-3.18346619606018,0.10235475003719,-0.97529315948486
354,1111216752,-49.62228012084961,-83.26242828369141,21.50452232360840,9.76380538940430,-0.94131308794022,0.71464854478836,-1.72331178188324,0.21822656691074,-0.77071160078049
355,1111233419,-49.69981384277344,-83.25383758544922,21.51069450378418,9.81698894500732,-0.51614236831665,0.74438953399658,-3.69511866569519,0.33101212978363,-0.75740605592728
356,1111250086,-49.74269485473633,-83.22728729248047,21.38405609130859,9.85622692108154,-0.90083515644073,0.69833076000214,-10.16935920715332,1.79275500774384,-0.60055392980576
357,1111266753,-49.67968750000000,-83.19845581054688,21.19760131835938,9.73118209838867,-1.21364760398865,0.67680782079697,-7.69997310638428,2.23901748657227,-0.79727226495743
358,1111283420,-49.55077743530273,-83.17114257812500,20.95828628540039,9.70241928100586,-1.00695240497589,0.75288313627243,-6.68094491958618,2.45536804199219,-1.09740185737610
359,1111300087,-49.43750762939453,-83.14502716064453,20.73121833801270,9.65011215209961,-0.94536125659943,0.82520478963852,-6.73626852035522,2.33496284484863,-1.09248423576355
360,1111316754,-49.35239791870117,-83.12159729003906,20.54470634460449,9.75635337829590,-0.65405273437500,0.80211210250854,-6.04251003265381,2.01036024093628,-1.04434514045715
361,1111333421,-49.23992538452148,-83.09385681152344,20.29286193847656,9.79493904113770,-1.04114389419556,0.68396008014679,-8.01764678955078,2.52340841293335,-1.12720227241516
362,1111350088,-49.05728149414062,-83.06797790527344,19.98768043518066,9.73054409027100,-0.98653239011765,0.74590998888016,-6.85663604736328,2.73222875595093,-1.47166752815247
363,1111366755,-48.84846115112305,-83.04458618164062,19.64567375183105,9.64087581634521,-1.10576081275940,0.80695897340775,-7.76723146438599,2.86535072326660,-1.79952287673950
364,1111383422,-48.63795471191406,-83.03221130371094,19.33590126037598,9.66193771362305,-1.02783977985382,0.83036506175995,-5.86617994308472,2.27126383781433,-2.16221165657043
365,1111400089,-48.44834136962891,-83.02951812744141,19.04061126708984,9.75714111328125,-0.93083047866821,0.86827439069748,-6.27410078048706,1.80595815181732,-2.53801393508911
366,1111416756,-48.22785186767578,-83.03353881835938,18.74367332458496,9.72270298004150,-0.94176167249680,0.83570694923401,-4.76480722427368,1.56754195690155,-2.86953163146973
367,1111433423,-48.02588653564453,-83.04068756103516,18.41846656799316,9.71960258483887,-0.92646151781082,0.81999111175537,-7.36800670623779,1.56852829456329,-3.13849091529846
368,1111450090,-47.76288986206055,-83.05121612548828,18.04812431335449,9.74583148956299,-1.10214817523956,0.74832332134247,-6.19560956954956,1.64868319034576,-3.49555754661560
369,1111466757,-47.41038131713867,-83.05657958984375,17.60256958007812,9.82267951965332,-0.97217333316803,0.75472748279572,-5.41982746124268,2.25785613059998,-3.65132093429565
370,1111483424,-46.94814300537109,-83.05181121826172,17.01357841491699,9.83463668823242,-0.87054783105850,0.72347509860992,-7.35604619979858,3.41309165954590,-3.93244719505310
371,1111500091,-46.41584014892578,-83.03871917724609,16.32853317260742,9.76927375793457,-0.99165588617325,0.74077641963959,-8.92751502990723,4.24959039688110,-4.08530426025391
372,1111516758,-45.82653427124023,-83.02635955810547,15.61331081390381,9.69810771942139,-0.82451242208481,0.77747279405594,-7.31574392318726,4.36537218093872,-4.30870962142944
373,1111533425,-45.21074295043945,-83.01405334472656,14.84760570526123,9.72982501983643,-0.83179140090942,0.75083279609680,-8.69915103912354,4.58991861343384,-4.62521934509277
374,1111550092,-44.52179718017578,-83.00199127197266,14.00416088104248,9.76829910278320,-0.96265989542007,0.83459270000458,-9.01106452941895,4.95912694931030,-5.09869670867920
375,1111566759,-43.80189514160156,-82.99478912353516,13.12951183319092,9.70384502410889,-0.94416415691376,0.86717724800110,-8.77643775939941,4.84599447250366,-5.51350736618042
376,1111583426,-43.05248641967773,-82.99433898925781,12.26597976684570,9.73120307922363,-1.04191899299622,0.95726239681244,-6.85220670700073,4.48571395874023,-5.83980035781860
377,1111600093,-42.27651596069336,-83.00196075439453,11.41015338897705,9.76219749450684,-0.95838707685471,0.95670294761658,-4.34310770034790,3.98732781410217,-6.14411592483521
378,1111616760,-41.45751190185547,-83.01231384277344,10.51015281677246,9.78588199615479,-0.90918678045273,0.96196806430817,-4.50015258789062,4.02223873138428,-6.54704284667969
379,1111633427,-40.59296798706055,-83.02743530273438,9.55498027801514,9.72530937194824,-0.94276148080826,0.99714845418930,-4.79632472991943,3.96218991279602,-7.06324148178101
380,1111650094,-39.69231414794922,-83.05352783203125,8.60238075256348,9.71029281616211,-0.94849216938019,0.98846334218979,-2.37119889259338,3.32819843292236,-7.51397418975830
381,1111666761,-38.76311492919922,-83.09510803222656,7.63416671752930,9.77901268005371,-0.71648752689362,0.96582740545273,-2.07164525985718,2.60004162788391,-8.25483417510986
382,1111683428,-37.80236053466797,-83.14099121093750,6.61434793472290,9.77213382720947,-0.68254166841507,1.03706002235413,-3.28187155723572,2.49003529548645,-8.70960044860840
383,1111700095,-36.83568954467773,-83.19490814208984,5.55710744857788,9.79744815826416,-0.75641489028931,0.99629878997803,-4.99702739715576,2.09694480895996,-9.19895935058594
384,1111716762,-35.83078765869141,-83.25666046142578,4.47296047210693,9.76190567016602,-0.68575298786163,1.08325552940369,-4.36595535278320,1.66100358963013,-9.61643314361572
385,1111733429,-34.82980728149414,-83.32297515869141,3.39245700836182,9.76667308807373,-0.76971292495728,1.02207982540131,-4.02378225326538,1.21288335323334,-9.68393325805664
386,1111750096,-33.76039886474609,-83.39832305908203,2.29479336738586,9.75900936126709,-0.68490654230118,1.04874086380005,-1.46361267566681,0.66224861145020,-10.09394264221191
387,1111766763,-32.62264633178711,-83.47959136962891,1.10756909847260,9.77065849304199,-0.70884746313095,1.00435984134674,-2.88653945922852,0.49465179443359,-10.75352096557617
388,1111783430,-31.40113258361816,-83.57215118408203,-0.19971969723701,9.79532146453857,-0.58533978462219,1.04498183727264,-4.74969768524170,0.08272266387939,-11.69061470031738
389,1111800097,-30.13615798950195,-83.68170928955078,-1.57037711143494,9.68849849700928,-0.63204878568649,1.12892663478851,-6.01348161697388,-0.86874490976334,-12.46102237701416
390,1111816764,-28.81788253784180,-83.81524658203125,-2.98437881469727,9.72526454925537,-0.67023026943207,1.17430305480957,-5.07891273498535,-2.33878707885742,-13.20947837829590
391,1111833431,-27.49817466735840,-83.97406005859375,-4.37755012512207,9.81729793548584,-0.54926836490631,1.22129535675049,-4.22757148742676,-4.08174562454224,-13.59580802917480
392,1111850098,-26.15039634704590,-84.15554809570312,-5.80086898803711,9.79621315002441,-0.50938981771469,1.18996798992157,-3.68907690048218,-5.63525915145874,-13.99085998535156
393,1111866765,-24.70695686340332,-84.36174011230469,-7.30144071578979,9.79856491088867,-0.53769558668137,1.11964750289917,-3.19762039184570,-7.18023300170898,-14.70126819610596
394,1111883432,-23.13816642761230,-84.58666229248047,-8.94940280914307,9.82352638244629,-0.49882835149765,1.06997478008270,-4.18263530731201,-8.36352920532227,-15.40474891662598
395,1111900099,-21.43362998962402,-84.83180236816406,-10.74061870574951,9.84150791168213,-0.60445904731750,1.11509323120117,-4.92429113388062,-9.71677970886230,-16.00038909912109
396,1111916766,-19.54580879211426,-85.10703277587891,-12.69730758666992,9.71422195434570,-0.62349951267242,1.12942409515381,-3.66949868202209,-11.73882865905762,-16.66725921630859
397,1111933433,-17.45500946044922,-85.42221832275391,-14.83616352081299,9.71656703948975,-0.47918802499771,1.17324280738831,-2.75507330894470,-14.41690063476562,-17.31353759765625
398,1111950100,-15.36355972290039,-85.78146362304688,-17.07109451293945,9.89388751983643,-0.46666359901428,1.60141241550446,-8.28649616241455,-17.60799026489258,-17.20335960388184
399,1111966767,-13.46718311309814,-86.19183349609375,-19.24407005310059,9.71482753753662,-0.51268762350082,1.28611755371094,-16.35798072814941,-21.38664054870605,-16.21696853637695
400,1111983434,-11.40812969207764,-86.68891143798828,-21.63866043090820,9.80487632751465,-0.22374157607555,1.69195616245270,-19.97441673278809,-26.95831680297852,-16.38587951660156
401,1112000101,-9.60663795471191,-87.25726318359375,-24.13950157165527,10.22675418853760,0.08272641897202,2.60232615470886,-41.92844009399414,-31.76406860351562,-15.26339817047119
402,1112016768,-6.92406892776489,-87.77050781250000,-27.46396255493164,10.05043029785156,-1.29037284851074,1.03958940505981,-38.54555130004883,-28.81231689453125,-14.27338218688965
403,1112033435,0.89312052726746,-88.49923706054688,-35.45438766479492,9.87892723083496,-0.70053273439407,1.33287024497986,-10.57970333099365,-41.85226058959961,-19.36777114868164
404,1112050102,24.96944999694824,-89.22418975830078,-59.48454666137695,10.40402698516846,-0.06468979269266,0.79193931818008,2.48524188995361,-46.11541366577148,-21.32801437377930
405,1112066769,99.22408294677734,-89.35350799560547,-133.75457763671875,10.37545394897461,-0.07622868567705,0.68169283866882,2.57810878753662,-53.31439590454102,-23.19937515258789
406,1112083436,134.06579589843750,-88.47543334960938,-168.45724487304688,10.55918979644775,-0.13975594937801,0.46198040246964,8.55553817749023,-57.98257064819336,-25.20302581787109
407,1112100103,143.62977600097656,-87.47679138183594,-177.81739807128906,10.52434253692627,0.44919416308403,-0.01124738156796,12.10091209411621,-57.40984344482422,-24.73960876464844
408,1112116770,147.56436157226562,-86.56156921386719,178.16540527343750,10.27248764038086,1.31308841705322,-0.29879412055016,-4.86554670333862,-52.01942062377930,-21.60941314697266
409,1112133437,148.93885803222656,-85.83425903320312,176.15406799316406,10.10573387145996,0.30960351228714,1.92298662662506,-38.06454849243164,-41.10952377319336,-17.26543617248535
410,1112150104,148.79766845703125,-85.48433685302734,175.94129943847656,9.51651668548584,-1.01451075077057,3.22569823265076,-21.27671623229980,-18.33180809020996,-11.21861457824707
411,1112166771,147.18341064453125,-85.51865386962891,177.39695739746094,9.40331459045410,-0.82857608795166,3.65253043174744,-9.81882667541504,5.44757509231567,-5.97827672958374
412,1112183438,143.97741699218750,-85.91471862792969,-179.38626098632812,9.53440475463867,-0.81599473953247,3.56113648414612,0.11065357178450,27.76280212402344,0.20900659263134
413,1112200105,138.57273864746094,-86.58591461181641,-173.63887023925781,9.75800418853760,-1.30440437793732,3.09636759757996,19.85997390747070,45.46707534790039,6.14753103256226
414,1112216772,127.99968719482422,-87.42587280273438,-162.33810424804688,9.98817634582520,-1.01767647266388,2.61078214645386,42.82218170166016,60.10038375854492,10.57983207702637
415,1112233439,103.33907318115234,-88.20529174804688,-136.65039062500000,10.09562301635742,-0.85450053215027,2.17483997344971,60.39532089233398,72.72599029541016,13.73445129394531
416,1112250106,58.94495010375977,-88.26753997802734,-90.96390533447266,10.13129234313965,-0.51810330152512,1.80875635147095,75.41445922851562,82.27549743652344,14.94519901275635
417,1112266773,27.27664184570312,-87.35395812988281,-58.16268157958984,10.30664634704590,-0.20026619732380,1.63205981254578,66.35296630859375,89.32083892822266,18.14326477050781
418,1112283440,12.60428524017334,-86.01345825195312,-42.85624694824219,10.18916988372803,0.35214564204216,1.08186888694763,36.66021728515625,92.71732330322266,21.83601951599121
419,1112300107,5.07311487197876,-84.56790924072266,-35.05423736572266,10.27496623992920,0.18893422186375,0.72040194272995,14.76572895050049,91.22406768798828,23.57100296020508
420,1112316774,0.42041847109795,-83.09911346435547,-30.26658630371094,10.38930130004883,0.07552646100521,0.82127809524536,6.48875904083252,89.32547760009766,25.42109107971191
421,1112333441,-2.73745965957642,-81.63404846191406,-27.07736396789551,10.25899791717529,0.45153987407684,1.00282263755798,0.20875601470470,87.29110717773438,25.97927856445312
422,1112350108,-4.66147899627686,-80.19807434082031,-25.01129150390625,9.98792552947998,0.07105533033609,0.80736374855042,6.98068284988403,84.67230987548828,23.86613655090332
423,1112366775,-6.24278163909912,-78.86650848388672,-23.31687164306641,9.77733325958252,-0.35763552784920,0.66363835334778,5.08929204940796,77.76717376708984,24.74901199340820
424,1112383442,-7.48538732528687,-77.64191436767578,-21.96301651000977,9.92344474792480,0.09410913288593,0.64561039209366,4.96716308593750,70.97272491455078,23.96627044677734
425,1112400109,-8.42884731292725,-76.53195953369141,-20.95231819152832,9.82710361480713,0.21491143107414,0.66393631696701,2.48361992835999,64.10092926025391,21.40680313110352
426,1112416776,-9.12823963165283,-75.55828094482422,-20.20482254028320,9.60285186767578,0.01927027665079,0.70433789491653,1.54445838928223,56.10963058471680,18.37056922912598
427,1112433443,-9.63539218902588,-74.71744537353516,-19.64091873168945,9.63352775573730,0.25044065713882,0.80857419967651,2.25073027610779,48.39467620849609,15.55173110961914
428,1112450110,-10.01432037353516,-73.97688293457031,-19.25438499450684,9.69884490966797,0.50609850883484,1.01737356185913,-0.42758134007454,42.75611114501953,12.51237010955811
429,1112466777,-10.24108695983887,-73.32047271728516,-19.01327896118164,9.46032714843750,0.23940569162369,0.94442844390869,0.25120434165001,38.09688568115234,9.70022869110107
430,1112483444,-10.35600471496582,-72.77851104736328,-18.81162834167480,9.40394687652588,-0.05033024773002,0.91130954027176,4.65043163299561,31.41440391540527,8.05087566375732
431,1112500111,-10.43973827362061,-72.33435058593750,-18.62001419067383,9.45926284790039,0.11265237629414,0.97672069072723,5.91759252548218,25.64122772216797,6.96688365936279
432,1112516778,-10.51830196380615,-71.97566223144531,-18.44293403625488,9.46764564514160,0.00548289949074,1.07163393497467,5.37098550796509,20.62945556640625,5.88525152206421
433,1112533445,-10.53988170623779,-71.70378112792969,-18.26691246032715,9.30525875091553,-0.08450165390968,1.16751503944397,8.71093463897705,15.49581241607666,4.98562717437744
434,1112550112,-10.54964351654053,-71.50591278076172,-18.08838653564453,9.43315315246582,0.00569489505142,1.28870248794556,9.55081081390381,11.11264896392822,4.26458835601807
435,1112566779,-10.56804656982422,-71.36097717285156,-17.92177391052246,9.48121166229248,0.09430210292339,1.44264125823975,8.34020996093750,8.03509902954102,3.49433612823486
436,1112583446,-10.62335205078125,-71.27380371093750,-17.76005935668945,9.43426895141602,0.02198879420757,1.54785215854645,5.84465885162354,4.63518905639648,2.78711676597595
437,1112600113,-10.73434925079346,-71.24313354492188,-17.58948326110840,9.44548511505127,0.01989361271262,1.63289594650269,2.99708962440491,1.27544212341309,2.34491348266602
438,1112616780,-10.87465381622314,-71.26811981201172,-17.42015075683594,9.44521903991699,-0.15537540614605,1.74432814121246,1.17304253578186,-2.01555299758911,1.69866633415222
439,1112633447,-10.98825454711914,-71.34449768066406,-17.25252914428711,9.39228725433350,-0.05892845615745,1.84201610088348,2.67648243904114,-5.03475236892700,1.06819677352905
440,1112650114,-11.15415287017822,-71.47586059570312,-17.08241844177246,9.44659900665283,-0.06470772624016,1.97249388694763,-0.31335866451263,-8.28118991851807,0.45370990037918
441,1112666781,-11.31509590148926,-71.65883636474609,-16.91435623168945,9.51599025726318,-0.13867925107479,2.01500439643860,-0.12250559031963,-11.30842208862305,-0.23681512475014
442,1112683448,-11.50280761718750,-71.89062500000000,-16.74424743652344,9.46932888031006,-0.21286137402058,2.18481230735779,-1.60366344451904,-14.18236255645752,-0.84660273790359
443,1112700115,-11.64652442932129,-72.17298889160156,-16.58375740051270,9.54818916320801,-0.41675433516502,2.27312588691711,0.50053024291992,-17.10911941528320,-1.71387553215027
444,1112716782,-11.75482273101807,-72.49851226806641,-16.43445014953613,9.50555706024170,-0.30568340420723,2.31957459449768,2.00185942649841,-19.58969497680664,-2.52248311042786
445,1112733449,-11.92556953430176,-72.86531066894531,-16.26645469665527,9.50102901458740,-0.40676164627075,2.45183467864990,-0.65672355890274,-22.06846427917480,-2.80368614196777
446,1112750116,-12.09160995483398,-73.26804351806641,-16.08482360839844,9.71911430358887,-0.57596904039383,2.62740969657898,0.42608729004860,-24.20851898193359,-3.14592480659485
447,1112766783,-12.21100807189941,-73.67827606201172,-15.90146446228027,9.77093029022217,-0.51734906435013,2.68359994888306,3.34542965888977,-24.62775421142578,-3.34439849853516
448,1112783450,-12.37753105163574,-74.09246826171875,-15.69680595397949,9.67077732086182,-0.37719982862473,2.70251917839050,1.76907956600189,-24.92131233215332,-3.18531775474548
449,1112800117,-12.63606739044189,-74.53443908691406,-15.44174289703369,9.64164924621582,-0.54169291257858,2.65510845184326,-0.81456273794174,-26.69560623168945,-2.92540025711060
450,1112816784,-12.95434856414795,-75.01393890380859,-15.14707851409912,9.61952209472656,-0.55105537176132,2.72409176826477,-2.07605648040771,-28.99110412597656,-3.06588768959045
451,1112833451,-13.33249282836914,-75.52417755126953,-14.81813144683838,9.37264919281006,-0.44274470210075,2.82814407348633,-3.63983345031738,-30.85948753356934,-3.29554629325867
452,1112850118,-13.74770832061768,-76.06252288818359,-14.47593688964844,9.04569149017334,-0.10250829160213,2.94885134696960,-5.04838562011719,-32.49137496948242,-3.88427090644836
453,1112866785,-14.29349994659424,-76.62755584716797,-14.10816478729248,8.86749553680420,-0.16825205087662,3.00904178619385,-11.34665679931641,-34.05723190307617,-4.37921571731567
454,1112883452,-14.87284946441650,-77.19400787353516,-13.76780509948730,8.07526683807373,0.10836778581142,3.15331935882568,-14.91195392608643,-33.96493911743164,-5.30153465270996
455,1112900119,-15.33429718017578,-77.77811431884766,-13.52382469177246,6.32392311096191,0.04294483363628,3.14259171485901,-13.43778324127197,-34.57160568237305,-7.28889894485474
456,1112916786,-15.66647148132324,-78.45622253417969,-13.23289108276367,3.25929141044617,0.01440442912281,3.31471800804138,-2.89312505722046,-40.07166671752930,-8.62734317779541
457,1112933453,-15.94727611541748,-79.27330780029297,-12.74865531921387,0.00810296274722,0.50202035903931,3.72031688690186,11.61258888244629,-48.60194015502930,-9.16985130310059
458,1112950120,-15.97946548461914,-80.18289947509766,-12.22134304046631,-1.08560037612915,0.87044012546539,4.27744579315186,29.14940261840820,-53.91653060913086,-10.79529953002930
459,1112966787,-15.68187236785889,-81.12896728515625,-11.78230667114258,-0.19741418957710,1.00627946853638,4.41915082931519,43.79709625244141,-55.67251586914062,-12.57954788208008
460,1112983454,-15.46923255920410,-82.11923217773438,-11.31773185729980,1.19647669792175,0.91565454006195,4.29765415191650,40.27786254882812,-58.20843124389648,-13.24425983428955
461,1113000121,-15.83643436431885,-83.06188964843750,-10.52764320373535,2.95859289169312,0.63821756839752,3.80719065666199,24.91660881042480,-55.99949645996094,-10.56937789916992
462,1113016788,-17.41370010375977,-83.81131744384766,-9.14622306823730,3.44993948936462,1.25930976867676,3.41036105155945,-12.36182498931885,-45.68332672119141,-4.97287273406982
463,1113033455,-20.84769821166992,-84.33272552490234,-6.87669515609741,3.27382755279541,-0.07759066671133,2.94643497467041,-70.67179107666016,-34.06113433837891,1.86384439468384
464,1113050122,-25.51793479919434,-84.74011230468750,-3.60438299179077,2.99820399284363,-2.83840727806091,2.47287797927856,-84.84194183349609,-29.74270439147949,6.40492773056030
465,1113066789,-30.59373855590820,-85.04441070556641,0.57800227403641,2.69763445854187,-2.94054484367371,2.39038848876953,-54.66718673706055,-26.55163955688477,9.97902584075928
466,1113083456,-35.81119918823242,-85.33116912841797,5.25763416290283,1.94420623779297,0.15954181551933,2.59791040420532,-33.31045532226562,-27.24793815612793,9.13756656646729
467,1113100123,-41.25654983520508,-85.77270507812500,9.69765949249268,0.73776060342789,0.42269438505173,4.93617439270020,-61.20252609252930,-33.51312637329102,-1.45465981960297
468,1113116790,-60.49330520629883,-86.67845916748047,26.44378852844238,5.09066629409790,-9.20788764953613,-35.45513916015625,-151.63363647460938,-85.12982940673828,-0.99985975027084
469,1113133457,-161.34739685058594,-83.01416015625000,134.41064453125000,13.60090923309326,-6.80730485916138,-26.95356750488281,414.94671630859375,-514.57720947265625,-59.82386398315430
470,1113150124,-168.39295959472656,-79.64350891113281,140.05667114257812,56.01880264282227,-16.98587226867676,20.05676078796387,-87.75867462158203,-208.06050109863281,2.11640548706055
471,1113166791,-173.54232788085938,-74.37006378173828,147.37089538574219,61.04203796386719,7.86382770538330,1.20435190200806,118.93374633789062,-327.14419555664062,-49.14489364624023
472,1113183458,179.46034240722656,-70.71226501464844,151.50169372558594,16.43252563476562,15.93780326843262,1.17380297183990,-183.26287841796875,-222.76347351074219,-64.20216369628906
473,1113200125,176.34420776367188,-67.56129455566406,154.16442871093750,-17.48535537719727,-8.55553150177002,-20.78234672546387,-37.66400527954102,-186.67669677734375,-65.01419067382812
474,1113216792,175.64355468750000,-64.92347717285156,154.98271179199219,8.83453083038330,4.71799898147583,-8.07118034362793,2.85154509544373,-156.37257385253906,-32.02621841430664
475,1113233459,173.63519287109375,-63.50576782226562,155.09326171875000,21.93988800048828,2.96528506278992,-8.48699378967285,-114.56597900390625,-84.31092071533203,-12.05169200897217
476,1113250126,173.00593566894531,-62.39392089843750,155.53616333007812,5.90673351287842,5.94795083999634,-7.78026437759399,-14.13335418701172,-64.73935699462891,-20.99311447143555
477,1113266793,172.48600769042969,-61.81138992309570,154.92410278320312,15.72540378570557,5.71143436431885,-8.21577072143555,-63.69299697875977,-36.73233795166016,11.40792083740234
478,1113283460,172.58529663085938,-61.92285919189453,153.93269348144531,13.60995864868164,2.96698760986328,-8.17251205444336,-46.53565216064453,3.09441137313843,27.45628547668457
479,1113300127,173.82182312011719,-62.54212951660156,152.31668090820312,15.20086383819580,3.68655323982239,-9.68982601165771,-11.64526176452637,31.65134620666504,48.03183364868164
480,1113316794,175.49603271484375,-63.73683166503906,150.37171936035156,14.25095462799072,3.48450684547424,-10.54969596862793,-3.69652605056763,66.55292510986328,57.94963455200195
481,1113333461,178.27403259277344,-65.57507324218750,148.23550415039062,13.35351276397705,2.57516455650330,-11.89914226531982,50.78483581542969,107.22858428955078,59.56233596801758
482,1113350128,-178.56083679199219,-68.47097778320312,145.69903564453125,17.00825119018555,2.76843142509460,-12.11063480377197,49.70583343505859,173.64816284179688,58.63251113891602
483,1113366795,-174.88951110839844,-72.99519348144531,142.18995666503906,24.51602935791016,3.84737777709961,-10.91443443298340,21.33748245239258,274.91540527343750,52.66221237182617
484,1113383462,-169.01126098632812,-79.60022735595703,135.12921142578125,39.50296020507812,4.05013370513916,-3.40614080429077,-59.49635696411133,405.68771362304688,42.79488754272461
485,1113400129,-125.49214935302734,-86.99182891845703,88.31512451171875,53.90858078002930,-1.24595355987549,5.24292612075806,-185.29783630371094,514.82250976562500,47.95669174194336
486,1113416796,-33.32510375976562,-85.45455169677734,-6.04140806198120,47.76425170898438,11.81265544891357,-11.04225444793701,-124.85722351074219,339.78308105468750,-1.12826108932495
487,1113433463,-36.97565841674805,-79.04402160644531,-13.05744743347168,-4.64583539962769,-12.99612331390381,-88.61093902587891,-635.89715576171875,346.80743408203125,173.37367248535156
488,1113450130,-46.36006164550781,-81.00714874267578,-7.49056100845337,-33.82789993286133,5.71902275085449,33.11919403076172,-234.12612915039062,-126.20201873779297,-36.15756225585938
489,1113466797,-60.38584136962891,-84.16542053222656,2.83471035957336,12.66541671752930,-25.06024551391602,-21.68773078918457,-227.10507202148438,-176.52346801757812,-104.81717681884766
490,1113483464,-102.52051544189453,-87.16241455078125,47.42975616455078,-0.34379088878632,4.49016332626343,15.93573284149170,141.58384704589844,-220.36996459960938,-135.78245544433594
491,1113500131,-152.66903686523438,-85.96153259277344,100.18468475341797,4.78526163101196,-10.10705471038818,10.49236106872559,152.26521301269531,-184.99464416503906,-62.76317596435547
492,1113516798,-164.58703613281250,-85.23955535888672,117.35248565673828,1.04991114139557,1.95260059833527,20.55702018737793,311.93634033203125,-68.43381500244141,-59.22170257568359
493,1113533465,-165.47807312011719,-86.05081939697266,123.72966003417969,2.22053027153015,-5.50803613662720,7.97228479385376,328.08053588867188,39.39150619506836,-41.89371871948242
494,1113550132,-160.56652832031250,-87.63760375976562,124.09181976318359,1.86334192752838,-0.71884274482727,6.60718059539795,316.55343627929688,90.24263763427734,-30.01946449279785
495,1113566799,-150.44490051269531,-89.05643463134766,116.08659362792969,0.66570079326630,3.73117613792419,4.23905467987061,127.83399963378906,81.23221588134766,-22.59281539916992
496,1113583466,-83.76866149902344,-89.64834594726562,48.71621704101562,-0.62030452489853,1.97233045101166,2.51521253585815,-44.75936889648438,56.23922729492188,-1.10447824001312
497,1113600133,-52.26968002319336,-88.89926147460938,15.14202785491943,-1.43882393836975,-1.83948183059692,0.87629848718643,-124.24359893798828,40.82914352416992,23.22162818908691
498,1113616800,-54.02919769287109,-88.03218841552734,14.57208061218262,-1.45376801490784,-2.61691737174988,0.86061912775040,-139.13714599609375,31.20569419860840,38.73756790161133
499,1113633467,-55.79104232788086,-86.95804595947266,14.45510196685791,0.04349503293633,-0.37174886465073,1.98437058925629,-112.41669464111328,37.02532196044922,50.81551742553711
500,1113650134,-54.93620300292969,-85.70719146728516,11.58740711212158,0.41809734702110,3.01668262481689,3.95778536796570,-120.29959106445312,51.64704513549805,53.95300674438477
501,1113666801,-51.17672729492188,-84.56494903564453,6.11676263809204,1.22735762596130,-1.21601414680481,3.38566184043884,-101.46075439453125,63.44156265258789,36.59672164916992
502,1113683468,-45.54922866821289,-83.64608764648438,0.74719578027725,1.26340472698212,-3.43059968948364,1.06144618988037,17.18799591064453,61.38956832885742,17.85042572021484
503,1113700135,-40.33710861206055,-82.88010406494141,-3.41206741333008,0.77522504329681,1.13103055953979,2.01282572746277,64.89372253417969,53.64937591552734,8.57308864593506
504,1113716802,-37.15376281738281,-82.13224029541016,-6.33294868469238,0.67884111404419,0.91830730438232,1.46719884872437,17.24232482910156,49.36790466308594,8.97762775421143
505,1113733469,-35.29156494140625,-81.33639526367188,-8.37924194335938,0.33317527174950,-0.02854532748461,0.91792315244675,-9.78151702880859,49.02109909057617,12.71796989440918
506,1113750136,-34.46405410766602,-80.52437591552734,-9.83218669891357,0.01276183035225,-0.10119371116161,0.82951939105988,-36.44995498657227,47.89791870117188,15.33519172668457
507,1113766803,-34.79200744628906,-79.69403076171875,-10.62800121307373,-0.39138132333755,0.24928992986679,0.60956931114197,-66.73579406738281,45.73457336425781,20.32245063781738
508,1113783470,-36.41396713256836,-78.87806701660156,-10.48976802825928,-0.30502051115036,-0.27929219603539,0.46076819300652,-89.19129180908203,38.98901367187500,28.52619361877441
509,1113800137,-38.29376983642578,-78.07709503173828,-9.84188842773438,-0.19430288672447,-0.57117003202438,0.31910845637321,-74.72344970703125,33.56955337524414,34.10342788696289
510,1113816804,-39.62818908691406,-77.33675384521484,-9.14881420135498,-0.16724672913551,-0.10290184617043,0.80176198482513,-39.45671844482422,29.05499649047852,33.58806610107422
511,1113833471,-39.80548858642578,-76.70962524414062,-8.93211269378662,-0.42155414819717,1.13942897319794,1.49319279193878,2.00801324844360,27.16664314270020,25.06152725219727
512,1113850138,-39.01633071899414,-76.26730346679688,-9.09011268615723,-0.63162344694138,0.72034251689911,0.39327383041382,38.10191726684570,22.00456619262695,13.91336345672607
513,1113866805,-37.86531448364258,-76.14465332031250,-9.15263652801514,-0.49590259790421,3.08354282379150,-1.21475613117218,65.38429260253906,6.41869783401489,2.65569925308228
514,1113883472,-37.43618392944336,-76.50090789794922,-8.89175605773926,-0.75550150871277,4.78441858291626,-2.95132374763489,40.91243362426758,-19.07765007019043,-11.33602523803711
515,1113900139,-38.49053573608398,-77.60929870605469,-7.81257724761963,-0.75527495145798,3.55292177200317,-6.42241859436035,-0.20966903865337,-61.23446273803711,-30.66759109497070
516,1113916806,-42.47473907470703,-79.56619262695312,-4.26318311691284,-0.70613241195679,4.63234138488770,-8.64567565917969,-30.34834480285645,-116.48262023925781,-45.30504226684570
517,1113933473,-53.55632781982422,-82.14282989501953,6.38169050216675,-0.65747940540314,1.46245062351227,-9.36932277679443,-34.22169494628906,-178.21124267578125,-47.68477630615234
518,1113950140,-95.93087005615234,-84.56368255615234,47.55358123779297,15.68048477172852,9.19020175933838,-57.63711166381836,-86.75237274169922,-306.11428833007812,-58.51154708862305
519,1113966807,-151.94587707519531,-79.68916320800781,110.75879669189453,48.05007934570312,-36.72169113159180,22.37214279174805,404.52252197265625,-549.55603027343750,-70.85449981689453
520,1113983474,-153.12602233886719,-77.20324707031250,114.38131713867188,34.46724319458008,-16.08365631103516,20.13331413269043,142.08943176269531,-152.19305419921875,28.85191726684570
521,1114000141,-161.89512634277344,-72.41600799560547,121.88460540771484,82.07326507568359,-11.82754611968994,-4.95838832855225,-91.26052093505859,-309.76870727539062,-0.60550177097321
522,1114016808,-170.43487548828125,-71.24285125732422,131.78422546386719,69.77270507812500,22.66377067565918,19.06609725952148,52.06816101074219,-112.22367858886719,-164.16099548339844
523,1114033475,-171.68763732910156,-68.29039001464844,137.08993530273438,9.37341880798340,-1.77239561080933,-22.77219009399414,223.51664733886719,-191.82383728027344,-82.48255157470703
524,1114050142,-176.76239013671875,-67.74156951904297,139.01560974121094,0.16615831851959,7.93199205398560,-6.31610488891602,-197.36947631835938,-37.00601959228516,-40.94602966308594
525,1114066809,-176.94956970214844,-68.02313232421875,139.73683166503906,-28.71130943298340,3.92956137657166,-20.44345474243164,28.81835746765137,16.07428741455078,-18.40890121459961
526,1114083476,-176.76629638671875,-68.05564117431641,138.11801147460938,3.55343770980835,8.82621192932129,-7.05620002746582,-79.11512756347656,4.04496049880981,34.95396804809570
527,1114100143,-174.24681091308594,-69.58692169189453,135.19607543945312,13.17428112030029,1.30879890918732,-6.56597185134888,-12.35142421722412,96.62023162841797,54.74452209472656
528,1114116810,-170.44030761718750,-71.47467041015625,131.53454589843750,17.71614265441895,-1.15043139457703,-4.17953538894653,21.19399070739746,122.04489135742188,56.28797531127930
529,1114133477,-166.64317321777344,-73.20503997802734,127.65206909179688,18.98742294311523,0.02703502029181,-1.54021418094635,5.79852962493896,115.81661987304688,47.44799804687500
530,1114150144,-163.92361450195312,-74.69104766845703,124.52876281738281,15.34699916839600,-0.11328507214785,-0.32880860567093,-16.96135330200195,99.45603179931641,26.28489303588867
531,1114166811,-161.81480407714844,-75.98028564453125,122.03871917724609,10.42309379577637,-2.21941304206848,-0.46407803893089,-18.04175567626953,85.13011932373047,12.17758750915527
532,1114183478,-159.48060607910156,-77.14950561523438,119.86338806152344,5.64184284210205,-2.46417140960693,-1.18461644649506,13.06781673431396,76.30990600585938,4.18328905105591
533,1114200145,-157.30152893066406,-78.16755676269531,117.87123870849609,3.30103516578674,-1.74849569797516,-1.52226233482361,13.94242763519287,66.27496337890625,0.07405390590429
534,1114216812,-155.03686523437500,-79.07470703125000,115.77297973632812,3.38950371742249,-2.05379605293274,-1.27484452724457,12.42425155639648,59.90013122558594,-0.45091757178307
535,1114233479,-152.42808532714844,-79.85408020019531,113.57591247558594,4.34558010101318,-1.60091960430145,-2.28392028808594,26.88688468933105,52.67616271972656,-0.26057401299477
536,1114250146,-149.77636718750000,-80.48733520507812,111.22438812255859,5.10020780563354,-0.95793771743774,-1.29519045352936,20.04797935485840,44.98236083984375,1.54779505729675
537,1114266813,-147.44314575195312,-80.95668792724609,109.11014556884766,5.07182788848877,-0.64508455991745,-0.56336259841919,14.75700473785400,34.78753280639648,1.60383069515228
538,1114283480,-145.64639282226562,-81.24211883544922,107.49031066894531,6.68232488632202,-0.69463711977005,-0.82080912590027,11.74786186218262,22.67316246032715,1.91685247421265
539,1114300147,-144.56834411621094,-81.39214324951172,106.55427551269531,7.96809244155884,-0.84401571750641,-0.44222861528397,9.12362957000732,12.33884429931641,0.60670769214630
540,1114316814,-144.40385437011719,-81.39771270751953,106.57016754150391,8.19808292388916,-1.67381191253662,0.11149983108044,10.77346706390381,0.29711380600929,-1.51660525798798
541,1114333481,-144.75457763671875,-81.25630187988281,107.49288177490234,9.17602634429932,-2.03277206420898,-0.51301002502441,33.64482116699219,-11.64607048034668,-3.10062360763550
542,1114350148,-145.25109863281250,-81.06104278564453,108.68336486816406,10.27074813842773,-0.06089413911104,-0.86685842275620,40.74332427978516,-15.77865600585938,-3.49768090248108
543,1114366815,-146.10464477539062,-80.85344696044922,109.84986114501953,11.06133747100830,0.42556697130203,-0.55919909477234,17.86706733703613,-16.38023757934570,-3.28012275695801
544,1114383482,-147.00379943847656,-80.63773345947266,110.96848297119141,11.95701694488525,0.08433069288731,-0.35104584693909,12.25263977050781,-16.63211631774902,-3.09271216392517
545,1114400149,-147.55827331542969,-80.42155456542969,111.76907348632812,12.50957012176514,0.51972460746765,-0.49274098873138,14.07197856903076,-15.07479953765869,-0.85243028402328
546,1114416816,-148.06158447265625,-80.23910522460938,112.29874420166016,12.41387367248535,0.60630083084106,-0.55649489164352,1.08948159217834,-11.99494552612305,0.10217551887035
547,1114433483,-148.27519226074219,-80.12586212158203,112.45631408691406,11.80922698974609,-0.89219254255295,-1.70651733875275,-3.54052114486694,-6.51406669616699,1.01019716262817
548,1114450150,-147.77104187011719,-80.12942504882812,112.06580352783203,10.65769004821777,-0.16654337942600,-2.26423788070679,7.12461614608765,2.41753864288330,2.09379386901855
549,1114466817,-147.24682617187500,-80.22850799560547,111.43213653564453,9.68276691436768,-0.33528548479080,-1.87276685237885,-6.04659652709961,8.59910202026367,1.08154141902924
550,1114483484,-146.49362182617188,-80.37046813964844,110.63323211669922,9.25383663177490,-1.17514634132385,-1.58931040763855,-2.09558081626892,11.65236949920654,0.91371434926987
551,1114500151,-145.54724121093750,-80.49221801757812,109.62677764892578,8.71319675445557,-0.70694369077682,-1.12206828594208,-2.79941844940186,11.76958560943604,3.05037784576416
552,1114516818,-144.68913269042969,-80.59742736816406,108.62617492675781,8.61514663696289,-1.33007144927979,-1.20584297180176,-7.77071809768677,10.91869354248047,3.29099702835083
553,1114533485,-143.61788940429688,-80.72180938720703,107.61988830566406,8.94712066650391,-1.25735366344452,-1.72450673580170,4.65623140335083,11.89852142333984,2.37727618217468
554,1114550152,-142.08941650390625,-80.88092041015625,106.19110870361328,8.83461856842041,-0.76294678449631,-2.16218733787537,7.04435157775879,15.98803520202637,3.96942901611328
555,1114566819,-140.18829345703125,-81.03765869140625,104.13094329833984,8.74206352233887,0.06510413438082,-1.62789535522461,-8.05025291442871,19.62034416198730,8.03285503387451
556,1114583486,-138.58761596679688,-81.15713500976562,102.05187988281250,9.15617179870605,-0.11670219898224,-1.24663949012756,-27.23442268371582,18.10655593872070,8.80992603302002
557,1114600153,-137.25508117675781,-81.27706146240234,100.26589202880859,9.20241546630859,-1.16571867465973,-0.45343202352524,-25.99366378784180,16.41923713684082,6.13211774826050
558,1114616820,-135.64921569824219,-81.38169860839844,98.50332641601562,9.65812969207764,-2.02335834503174,-1.03709471225739,-8.23213672637939,15.64084339141846,6.04454612731934
559,1114633487,-133.66351318359375,-81.50411987304688,96.51493072509766,10.11961078643799,-0.97682774066925,-1.01530563831329,1.12420034408569,17.89819526672363,6.06853246688843
560,1114650154,-131.65098571777344,-81.63416290283203,94.28789520263672,9.85446166992188,-0.36687847971916,-0.99338835477829,-11.47243785858154,19.81155586242676,6.34854888916016
561,1114666821,-129.63560485839844,-81.75749969482422,91.80274200439453,9.79723930358887,-0.35683533549309,-0.39934366941452,-26.66510772705078,21.26861190795898,7.23114252090454
562,1114683488,-127.44751739501953,-81.87885284423828,89.01523590087891,9.66671085357666,-0.86419314146042,-0.30013975501060,-34.30849838256836,23.26690673828125,7.95734548568726
563,1114700155,-126.04302978515625,-81.94423675537109,87.33217620849609,9.52199268341064,-0.93527090549469,0.23069974780083,-15.75306320190430,13.84225749969482,4.17184782028198
564,1114716822,-125.10871124267578,-81.97564697265625,86.32518768310547,10.08927822113037,-1.34507489204407,-0.27265787124634,-3.80959558486938,8.08522033691406,2.18496227264404
565,1114733489,-124.58432006835938,-81.99945831298828,85.75894165039062,9.95121002197266,-0.73929518461227,-0.35540497303009,-2.21940445899963,4.80693435668945,0.33961802721024
566,1114750156,-124.49392700195312,-82.00498199462891,85.50613403320312,9.46317958831787,-1.11712992191315,-0.61928433179855,-9.63756084442139,2.02887821197510,-0.27048292756081
567,1114766823,-124.58681488037109,-82.00291442871094,85.49449157714844,9.46055603027344,-1.64605581760406,-0.80958223342896,-6.30139064788818,0.11809377372265,-1.04585623741150
568,1114783490,-124.65399932861328,-82.02110290527344,85.69632720947266,9.65443515777588,-1.29390740394592,-0.73746919631958,7.92350101470947,-0.66400933265686,-3.05103635787964
569,1114800157,-124.70985412597656,-82.05194091796875,85.96752166748047,9.91047191619873,-0.58078962564468,-0.81664395332336,12.72376060485840,-0.69674259424210,-4.00582790374756
570,1114816824,-124.87106323242188,-82.08557891845703,86.19964599609375,9.74110698699951,-0.34066882729530,-0.56338191032410,4.08148002624512,-0.32341158390045,-3.95433211326599
571,1114833491,-124.92219543457031,-82.13129425048828,86.51543426513672,9.42975425720215,-0.69251877069473,-0.94766527414322,15.66099739074707,-0.46516543626785,-4.93557214736938
572,1114850158,-124.94466400146484,-82.20638275146484,86.97912597656250,9.15673828125000,-0.35849696397781,-0.58452844619751,26.17648315429688,-0.42975664138794,-7.06085014343262
573,1114866825,-125.08860778808594,-82.27448272705078,87.50342559814453,9.27722072601318,-0.43733504414558,-0.63678544759750,22.49529838562012,-1.03446042537689,-6.98156118392944
574,1114883492,-125.24613952636719,-82.33317565917969,87.87306213378906,9.74433135986328,-1.26359629631042,-0.75526791810989,12.49014854431152,-0.30147448182106,-5.78287649154663
575,1114900159,-125.26036071777344,-82.39465332031250,88.04466247558594,9.83077049255371,-1.48969030380249,-0.77944511175156,9.31271076202393,1.11768102645874,-5.00177812576294
576,1114916826,-125.25485229492188,-82.45352935791016,88.07000732421875,9.43672752380371,-1.04564189910889,-0.77788615226746,1.80031049251556,1.97844672203064,-4.19698715209961
577,1114933493,-125.36674499511719,-82.49387359619141,87.98738861083984,9.10302448272705,-0.88250559568405,-0.72853308916092,-11.66718006134033,2.03397583961487,-2.79569172859192
578,1114950160,-125.16993713378906,-82.54631042480469,87.63950347900391,9.10316276550293,-1.78910613059998,-1.53367054462433,-8.92545223236084,4.13880205154419,-2.19189715385437
579,1114966827,-124.51436614990234,-82.63985443115234,87.11501312255859,9.03973484039307,-1.07043457031250,-1.71093344688416,8.08657836914062,6.63867950439453,-3.47691202163696
580,1114983494,-123.69280242919922,-82.75367736816406,86.41249084472656,8.81853199005127,-0.40437737107277,-1.38571083545685,7.44300937652588,8.37071323394775,-3.83578515052795
581,1115000161,-122.72466278076172,-82.85458374023438,85.34624481201172,8.78480529785156,0.00142469361890,-1.00318098068237,-5.42346620559692,10.13332939147949,-1.86858797073364
582,1115016828,-121.55921173095703,-82.98569488525391,84.03990173339844,9.01774120330811,-0.95230972766876,-1.32100784778595,-7.90026903152466,12.47212028503418,-2.69954204559326
583,1115033495,-119.84453582763672,-83.14577484130859,82.45314025878906,9.36933898925781,-0.80915623903275,-1.22647428512573,8.32535839080811,14.90213108062744,-3.57142543792725
584,1115050162,-117.98774719238281,-83.31941986083984,80.70726013183594,9.50773239135742,0.03616548702121,-0.49898526072502,7.33602952957153,15.95441913604736,-4.32488870620728
585,1115066829,-116.29551696777344,-83.45620727539062,78.94256591796875,9.45725917816162,-0.92165851593018,-0.30922323465347,-3.68810367584229,14.70724010467529,-2.91666150093079
586,1115083496,-114.70981597900391,-83.56938171386719,77.46244812011719,8.97651672363281,-1.24600625038147,-0.26451331377029,6.85699224472046,12.09448623657227,-2.98885059356689
587,1115100163,-113.67729187011719,-83.65934753417969,76.53744506835938,9.09338760375977,-1.25717771053314,-0.18947316706181,6.75158119201660,7.95501995086670,-3.58120727539062
588,1115116830,-113.12151336669922,-83.73693847656250,76.13711547851562,9.36530017852783,-0.89071828126907,-0.00260731484741,9.43013286590576,4.37426042556763,-4.41095733642578
589,1115133497,-113.14076995849609,-83.78211975097656,76.21855926513672,9.27753448486328,-0.76636540889740,0.03939223662019,3.66303253173828,0.68025416135788,-3.89538455009460
590,1115150164,-113.75711059570312,-83.78814697265625,76.83126068115234,9.41380405426025,-0.84412091970444,0.23438495397568,-0.47042852640152,-3.40916585922241,-3.11239147186279
591,1115166831,-114.67678833007812,-83.77517700195312,77.80413818359375,10.07150650024414,-0.70008629560471,0.07609632611275,2.81324148178101,-5.98753261566162,-3.08764934539795
592,1115183498,-115.95855712890625,-83.76658630371094,79.13825225830078,9.82096099853516,-0.25172850489616,0.16610677540302,2.63842225074768,-7.98006010055542,-4.44910621643066
593,1115200165,-117.65270233154297,-83.72946166992188,80.85684967041016,9.62371921539307,-0.27414533495903,0.06304176151752,0.82053524255753,-10.93299102783203,-4.28647899627686
594,1115216832,-119.84729766845703,-83.67510223388672,83.06757354736328,9.83911132812500,-0.95601379871368,0.20849050581455,0.13887855410576,-14.23506164550781,-5.35349321365356
595,1115233499,-122.36312866210938,-83.61015319824219,85.75025939941406,9.95016479492188,-1.25850665569305,0.08254413306713,8.99659538269043,-17.18938636779785,-7.08367681503296
596,1115250166,-125.06835937500000,-83.52243804931641,88.58841705322266,9.88232421875000,-1.00192785263062,-0.18086910247803,6.87519598007202,-18.69622230529785,-7.44423961639404
597,1115266833,-127.86477661132812,-83.39342498779297,91.37883758544922,9.62760925292969,-0.81999057531357,-0.33171567320824,-1.47825193405151,-19.84623527526855,-6.33504152297974
598,1115283500,-130.65733337402344,-83.23458862304688,94.11495208740234,9.61668682098389,-0.87139946222305,-0.19391570985317,-4.53122758865356,-20.73581886291504,-5.93931293487549
599,1115300167,-133.35153198242188,-83.05494689941406,96.72097778320312,9.70445346832275,-0.82336771488190,-0.68877023458481,-6.43558692932129,-20.98330879211426,-5.70360040664673
600,1115316834,-135.90063476562500,-82.86507415771484,99.31027221679688,9.72138023376465,-0.81878995895386,-0.75066286325455,1.20846700668335,-21.45536041259766,-6.48902750015259
601,1115333501,-138.40446472167969,-82.66449737548828,101.93461608886719,9.78395271301270,-0.39898979663849,-0.59534305334091,5.94006490707397,-22.19734573364258,-7.58483219146729
602,1115350168,-140.81138610839844,-82.45483398437500,104.41252136230469,9.85781574249268,-0.46408978104591,-0.48480266332626,2.97652816772461,-21.95905303955078,-7.72749423980713
603,1115366835,-143.07766723632812,-82.23009490966797,106.68154907226562,9.92572021484375,-0.62367987632751,-0.72891044616699,-1.08740186691284,-21.68643951416016,-7.19564437866211
604,1115383502,-145.19502258300781,-81.98999023437500,108.83309173583984,9.75062942504883,-1.07212984561920,-0.81796580553055,0.79507732391357,-21.95191764831543,-7.13542938232422
605,1115400169,-147.25543212890625,-81.74823760986328,110.99723052978516,9.54764175415039,-0.53666663169861,-0.78240847587585,4.87976026535034,-22.15298080444336,-8.42087078094482
606,1115416836,-149.22886657714844,-81.48410034179688,112.98119354248047,9.32127761840820,-0.44815626740456,-1.22017467021942,-0.67688089609146,-22.49897956848145,-7.63131761550903
607,1115433503,-151.08706665039062,-81.20900726318359,114.89902496337891,9.29131126403809,-0.75392538309097,-1.20544636249542,2.22816205024719,-22.81751823425293,-8.01772594451904
608,1115450170,-152.89257812500000,-80.93189239501953,116.90342712402344,9.32098197937012,-0.75807774066925,-1.20235490798950,10.43710613250732,-23.33843231201172,-9.88311004638672
609,1115466837,-154.56843566894531,-80.64170074462891,118.77502441406250,9.47017860412598,-0.37785398960114,-1.39867579936981,10.25442314147949,-23.45190811157227,-9.62967014312744
610,1115483504,-156.06747436523438,-80.35749053955078,120.35523986816406,9.28346443176270,-0.40350517630577,-1.45987784862518,3.53104352951050,-21.92173385620117,-8.30572795867920
611,1115500171,-157.39750671386719,-80.06443786621094,121.80522155761719,9.16489696502686,-0.40720787644386,-1.51187229156494,5.88940238952637,-21.87976837158203,-7.84985971450806
612,1115516838,-158.68521118164062,-79.74146270751953,123.22359466552734,8.97444629669189,-0.15454526245594,-1.13518857955933,6.48379898071289,-23.44374084472656,-7.79443502426147
613,1115533505,-160.00421142578125,-79.36510467529297,124.74447631835938,9.13512134552002,-1.43766403198242,-1.13631463050842,10.55868244171143,-26.85123252868652,-8.72205924987793
614,1115550172,-161.22813415527344,-78.96126556396484,126.20811462402344,9.26344680786133,-1.30477750301361,-1.82153081893921,12.77472972869873,-28.21949195861816,-8.73849487304688
615,1115566839,-162.47187805175781,-78.58129882812500,127.67404937744141,9.08100986480713,-0.95823502540588,-2.16509819030762,11.60592842102051,-26.88252449035645,-10.37913322448730
616,1115583506,-163.80442810058594,-78.20278167724609,129.07113647460938,8.56491374969482,0.05167370289564,-2.05408906936646,2.11802911758423,-26.51560974121094,-10.75829982757568
617,1115600173,-165.13264465332031,-77.80340576171875,130.42787170410156,8.42849254608154,0.55607610940933,-1.91999280452728,-0.10593444854021,-27.50133705139160,-11.09000110626221
618,1115616840,-166.50834655761719,-77.36537170410156,131.80546569824219,8.35998535156250,0.38324716687202,-2.04591012001038,-1.86076939105988,-29.71889495849609,-11.99243450164795
619,1115633507,-167.94000244140625,-76.90811920166016,133.30586242675781,8.21206569671631,0.74877786636353,-2.58977246284485,1.82535445690155,-31.07162666320801,-14.67903423309326
620,1115650174,-169.41888427734375,-76.45154571533203,134.65863037109375,7.69505739212036,0.62610363960266,-2.39872312545776,-9.78787136077881,-30.41847610473633,-14.15660858154297
621,1115666841,-170.69845581054688,-75.95043945312500,135.81079101562500,7.72506475448608,-0.69524002075195,-3.05388522148132,-9.67864799499512,-32.34370803833008,-12.24415493011475
622,1115683508,-171.87202453613281,-75.45928955078125,137.07850646972656,8.14960575103760,-0.45725122094154,-2.70266056060791,3.25549697875977,-31.85844039916992,-15.29579067230225
623,1115700175,-173.10807800292969,-75.03388214111328,138.32852172851562,8.86117267608643,-0.69767892360687,-2.73366427421570,-1.67216944694519,-27.69113159179688,-16.79463958740234
624,1115716842,-174.32014465332031,-74.66590881347656,139.39871215820312,9.12653446197510,-0.95281755924225,-2.66179537773132,-10.78081798553467,-23.66910552978516,-15.45888996124268
625,1115733509,-175.57482910156250,-74.34341430664062,140.37559509277344,9.28272342681885,-0.65801841020584,-2.18045711517334,-18.83549118041992,-20.54031753540039,-15.09094142913818
626,1115750176,-176.93446350097656,-74.04357910156250,141.29812622070312,9.29428958892822,-0.40142545104027,-1.92431700229645,-28.35321807861328,-18.82680511474609,-15.06648540496826
627,1115766843,-178.35198974609375,-73.72592926025391,142.24281311035156,9.59523105621338,-0.12730440497398,-2.55987644195557,-30.63069343566895,-19.58104515075684,-16.13263320922852
628,1115783510,-179.74171447753906,-73.33018493652344,143.24684143066406,9.55652141571045,-0.13331040740013,-1.80339276790619,-25.65120697021484,-23.91269874572754,-17.87969779968262
629,1115800177,178.75556945800781,-72.81143951416016,144.34326171875000,9.48750019073486,-0.33832365274429,-1.14837622642517,-27.26444625854492,-30.84381675720215,-20.61887550354004
630,1115816844,177.44940185546875,-72.11657714843750,145.50894165039062,9.50753688812256,-1.46696352958679,-1.47306573390961,-11.71672916412354,-40.85951614379883,-23.63854217529297
631,1115833511,176.15112304687500,-71.21035003662109,146.76715087890625,9.56617927551270,-0.57404488325119,-0.86404401063919,-6.27385902404785,-52.84902191162109,-27.94528579711914
632,1115850178,174.62232971191406,-70.08427429199219,148.00369262695312,9.52026557922363,0.45284381508827,-0.09340629726648,-21.76210021972656,-65.25178527832031,-31.13777160644531
633,1115866845,172.92820739746094,-68.63971710205078,149.11131286621094,9.63148212432861,-0.07624842226505,0.18016274273396,-39.48830413818359,-83.50494384765625,-33.87596130371094
634,1115883512,171.33793640136719,-66.74230194091797,150.18516540527344,9.98000812530518,1.38971138000488,1.13088726997375,-35.83547210693359,-109.30894470214844,-41.00443649291992
635,1115900179,169.60623168945312,-64.35359191894531,150.92240905761719,10.89528274536133,1.54743683338165,2.41477584838867,-63.65512466430664,-138.20385742187500,-42.97454452514648
636,1115916846,168.48007202148438,-61.42462158203125,151.15974426269531,11.91681671142578,0.14591977000237,0.23415467143059,-54.91296768188477,-171.19670104980469,-40.96432113647461
637,1115933513,167.22486877441406,-57.91604232788086,151.05497741699219,13.77521324157715,1.75293278694153,2.56462931632996,-80.74774932861328,-206.37255859375000,-42.38580322265625
638,1115950180,166.16642761230469,-54.11371612548828,150.58633422851562,17.74389266967773,-4.59829521179199,0.71341085433960,-86.83124542236328,-225.54598999023438,-38.39358139038086
639,1115966847,165.39390563964844,-50.33926773071289,150.04389953613281,29.00257492065430,-4.87170267105103,-2.69675016403198,-72.09558105468750,-224.34234619140625,-37.50114059448242
640,1115983514,164.31556701660156,-47.20339584350586,150.26541137695312,26.55521774291992,-7.87529706954956,-4.73074293136597,-54.72256851196289,-179.25675964355469,-58.82600402832031
641,1116000181,164.14471435546875,-44.49032592773438,150.81336975097656,13.19784832000732,-6.17411899566650,-2.10164713859558,13.29882526397705,-150.37004089355469,-67.50615692138672
642,1116016848,165.27297973632812,-41.94192886352539,151.34092712402344,9.69557571411133,-1.27486491203308,-5.23289203643799,89.31050109863281,-141.35357666015625,-63.81143951416016
643,1116033515,165.38937377929688,-40.06560516357422,151.64509582519531,10.35225105285645,0.87001466751099,-5.59452152252197,18.90908432006836,-105.37287139892578,-43.06971359252930
644,1116050182,164.28869628906250,-39.25683975219727,151.61602783203125,10.32581043243408,-1.48797667026520,-1.33488678932190,-67.19893646240234,-47.14288330078125,-12.63447475433350
645,1116066849,163.37252807617188,-39.35169601440430,151.71823120117188,7.36913967132568,-3.09891080856323,-1.03927135467529,-51.13285446166992,6.82593250274658,-4.21987342834473
646,1116083516,163.22787475585938,-40.32761001586914,151.82363891601562,4.49325275421143,-1.73800063133240,0.09293146431446,-4.67828083038330,57.51382827758789,10.92181873321533
647,1116100183,163.04171752929688,-42.07068634033203,151.81962585449219,3.24780941009521,-1.38905155658722,0.69293069839478,-11.37828063964844,100.06244659423828,29.25748443603516
648,1116116850,163.05125427246094,-44.60825347900391,151.69940185546875,3.79106593132019,-2.29466390609741,-0.47485661506653,-4.42894983291626,144.13113403320312,48.15320205688477
649,1116133517,163.86296081542969,-47.84208297729492,151.45561218261719,4.39950752258301,-1.63352358341217,-1.34521698951721,38.07086563110352,183.13706970214844,63.68286132812500
650,1116150184,165.17494201660156,-51.64740753173828,150.88677978515625,5.47221183776855,-0.84475404024124,0.23603796958923,52.58587265014648,214.16313171386719,80.92961883544922
651,1116166851,167.47244262695312,-55.94427108764648,149.90797424316406,6.62657022476196,-0.31084105372429,0.02977326512337,90.33399963378906,242.30432128906250,93.39586639404297
652,1116183518,170.72738647460938,-60.59814834594727,148.41746520996094,7.65681266784668,1.90410065650940,-0.87544167041779,119.05152130126953,265.28890991210938,97.72372436523438
653,1116200185,174.45788574218750,-65.52838134765625,145.97871398925781,8.83180999755859,2.60262537002563,-1.68851542472839,93.15308380126953,284.72958374023438,102.61314392089844
654,1116216852,179.66720581054688,-70.65692901611328,141.86766052246094,9.82443904876709,2.06013250350952,-2.09044480323792,83.37602996826172,302.37643432617188,106.42285156250000
655,1116233519,-171.53683471679688,-75.82329559326172,134.37486267089844,11.06612491607666,2.42328262329102,-3.21404600143433,96.70838165283203,317.69140625000000,106.10511779785156
656,1116250186,-153.96257019042969,-80.66117095947266,118.33185577392578,13.40789222717285,3.85326647758484,-3.93342304229736,110.88690185546875,332.44058227539062,100.40716552734375
657,1116266853,-115.97767639160156,-83.72821044921875,81.47414398193359,14.52374935150146,3.22073292732239,-6.97039985656738,85.82093048095703,332.40994262695312,84.27970123291016
658,1116283520,-68.55695343017578,-82.83702850341797,35.44053649902344,13.73530578613281,0.03046472370625,-12.44521903991699,99.84587097167969,312.85354614257812,60.40086746215820
659,1116300187,-43.01894378662109,-79.75562286376953,11.90368747711182,13.72883033752441,2.85420012474060,-11.12089157104492,135.31639099121094,277.43206787109375,28.91265869140625
660,1116316854,-32.66609573364258,-76.57836151123047,1.67741549015045,10.90459251403809,0.93187040090561,-12.61902141571045,20.32429885864258,227.06188964843750,15.93824005126953
661,1116333521,-27.12958145141602,-73.85250854492188,-2.33087038993835,8.15173339843750,-3.31725025177002,-14.02168273925781,99.55230712890625,172.29675292968750,27.02197456359863
662,1116350188,-24.01271820068359,-71.74453735351562,-3.42325139045715,8.50936126708984,-0.29896041750908,-14.81531333923340,124.34873199462891,122.49005889892578,35.87884521484375
663,1116366855,-21.86771583557129,-71.02306365966797,-3.40008449554443,6.00079154968262,6.34180068969727,-19.77024078369141,129.98286437988281,39.75288772583008,16.06635093688965
664,1116383522,-24.00216865539551,-72.28131866455078,-2.11229419708252,8.14669322967529,1.94717156887054,-28.69659042358398,-54.77024459838867,-78.90679931640625,-8.21428775787354
665,1116400189,-30.48121261596680,-74.84243011474609,3.43953537940979,27.12133979797363,-4.19470500946045,5.52394485473633,-69.19956207275391,-179.46791076660156,12.36301898956299
666,1116416856,-31.52895927429199,-76.91802978515625,5.97075605392456,15.36800765991211,12.09344577789307,4.00483226776123,84.37947845458984,-125.66349029541016,-33.55135726928711
667,1116433523,-41.45449066162109,-79.44345092773438,13.51966381072998,4.29965972900391,-4.41907310485840,-1.93161118030548,-152.11640930175781,-176.56745910644531,-16.48936271667480
668,1116450190,-47.77583312988281,-81.07154846191406,21.53613281250000,8.65246105194092,-7.09745788574219,-4.03600978851318,94.77235412597656,-126.37596130371094,-11.65245246887207
669,1116466857,-55.17290496826172,-82.53730773925781,30.77965354919434,10.13354492187500,1.51987659931183,-2.75024843215942,105.12805938720703,-116.28815460205078,-20.47429084777832
670,1116483524,-63.24093246459961,-83.50354766845703,39.36232376098633,10.15400314331055,0.42513442039490,-3.00504279136658,27.04656410217285,-83.21128845214844,-18.73746299743652
671,1116500191,-71.74390411376953,-84.11530303955078,48.63755416870117,11.15062332153320,0.20550894737244,-1.68249428272247,43.08395004272461,-69.33846282958984,-11.96098232269287
672,1116516858,-79.93350219726562,-84.43296051025391,57.38255691528320,11.61156749725342,0.40768447518349,-0.03565062582493,30.69964218139648,-55.32122802734375,-6.76779031753540
673,1116533525,-88.53433990478516,-84.56156158447266,66.36071777343750,10.86103630065918,-1.03120195865631,-0.24182155728340,20.15167236328125,-52.09352874755859,-3.63348317146301
674,1116550192,-95.59423065185547,-84.55702209472656,73.93458557128906,10.67016601562500,-1.17294311523438,-0.75720280408859,28.78595924377441,-42.99989700317383,-2.47427415847778
