sep=,
DeviceTag:,Xsens_DOT_4
FirmwareVersion:,3.0.0
AppVersion:,2023.6.0
StartTime: ,2025-04-09_10:45:35_000 CEST
© Movella Technologies B. V. 2005-2025

PacketCounter,SampleTimeFine,Euler_X,Euler_Y,Euler_Z,Acc_X,Acc_Y,Acc_Z,Gyr_X,Gyr_Y,Gyr_Z
0,1389488984,-14.63137912750244,-84.73017120361328,27.54875183105469,0.00000000000000,0.00000000000000,0.00000000000000,0.00000000000000,0.00000000000000,0.00000000000000
1,1389505651,-14.70251655578613,-84.73631286621094,27.60615921020508,9.86494445800781,-0.48585841059685,1.00576508045197,-0.85379940271378,-0.36508342623711,-1.12531948089600
2,1389522318,-14.78664779663086,-84.73586273193359,27.68958663940430,9.79184722900391,-0.45206040143967,0.90858018398285,-0.07626181095839,-0.01407417841256,-0.88477784395218
3,1389538985,-14.87425136566162,-84.73366546630859,27.76376724243164,9.75737476348877,-0.48804548382759,0.92393827438354,-0.84050631523132,0.09169986844063,-0.90885376930237
4,1389555652,-14.97703361511230,-84.73404693603516,27.84899139404297,9.73628234863281,-0.47276425361633,1.00344693660736,-1.08814275264740,-0.06482574343681,-0.88797956705093
5,1389572319,-15.11045169830322,-84.73902893066406,27.96406364440918,9.77706432342529,-0.48766082525253,0.96516668796539,-1.14642441272736,-0.38476681709290,-0.80331671237946
6,1389588986,-15.22131061553955,-84.74648284912109,28.07110023498535,9.79205703735352,-0.58107775449753,0.98104602098465,-0.27175074815750,-0.51003843545914,-0.88531571626663
7,1389605653,-15.30661678314209,-84.74897766113281,28.18536949157715,9.79278945922852,-0.48619654774666,0.98607158660889,1.69435048103333,-0.24320538341999,-0.77159529924393
8,1389622320,-15.38808345794678,-84.74372100830078,28.27588462829590,9.80363559722900,-0.48339498043060,0.96692663431168,0.50352644920349,0.24299407005310,-0.77498894929886
9,1389638987,-15.45237064361572,-84.73266601562500,28.34126853942871,9.78920555114746,-0.49341356754303,0.94538855552673,0.03482686355710,0.62165218591690,-0.81178164482117
10,1389655654,-15.50024032592773,-84.71613311767578,28.41466331481934,9.80755996704102,-0.55668538808823,0.95532619953156,1.49787545204163,0.91796547174454,-0.68318027257919
11,1389672321,-15.56752586364746,-84.69814300537109,28.49898529052734,9.80840587615967,-0.44841417670250,0.97224283218384,0.98471236228943,0.98192048072815,-0.59996467828751
12,1389688988,-15.62165546417236,-84.68186950683594,28.55147171020508,9.77350997924805,-0.53746265172958,1.00358319282532,-0.12671881914139,0.93229585886002,-0.79423695802689
13,1389705655,-15.64694786071777,-84.66667175292969,28.58970832824707,9.76904773712158,-0.59686917066574,1.05922996997833,0.75088107585907,0.88801145553589,-0.88858139514923
14,1389722322,-15.63777637481689,-84.65515136718750,28.59984779357910,9.72242355346680,-0.44484287500381,0.99671643972397,1.14132106304169,0.72790658473969,-1.09517347812653
15,1389738989,-15.66745185852051,-84.65100860595703,28.62392807006836,9.77905845642090,-0.52187752723694,0.98676174879074,-0.35777094960213,0.26943916082382,-1.14290261268616
16,1389755656,-15.70269012451172,-84.64562988281250,28.66462135314941,9.83185863494873,-0.57556414604187,0.99442565441132,0.30263325572014,0.32176595926285,-1.03079593181610
17,1389772323,-15.73480224609375,-84.63414764404297,28.72987937927246,9.84093093872070,-0.46965003013611,0.96136718988419,1.95780289173126,0.63887685537338,-0.79688793420792
18,1389788990,-15.76405620574951,-84.61992645263672,28.77137947082520,9.82338237762451,-0.46764755249023,0.96559852361679,0.71045780181885,0.83453857898712,-0.88014847040176
19,1389805657,-15.76592063903809,-84.60599517822266,28.78455924987793,9.71523952484131,-0.55738949775696,0.94385558366776,0.65718984603882,0.84536641836166,-1.04196298122406
20,1389822324,-15.77849006652832,-84.59880065917969,28.80549049377441,9.68159866333008,-0.51139181852341,0.95542430877686,0.48220390081406,0.46202105283737,-1.10447084903717
21,1389838991,-15.79937553405762,-84.60232543945312,28.84028244018555,9.69212245941162,-0.56061887741089,0.89567953348160,0.81153202056885,-0.18592257797718,-1.20603799819946
22,1389855658,-15.82164478302002,-84.61788177490234,28.87980651855469,9.70520782470703,-0.55057072639465,0.94062554836273,1.00962066650391,-0.88199889659882,-1.37583744525909
23,1389872325,-15.82636165618896,-84.63816070556641,28.90066528320312,9.75476455688477,-0.54187685251236,0.95950192213058,0.95169764757156,-1.12220776081085,-1.55374324321747
24,1389888992,-15.82228183746338,-84.65206909179688,28.90483474731445,9.80186080932617,-0.50833714008331,1.00539898872375,0.47573670744896,-0.74563699960709,-1.54521429538727
25,1389905659,-15.81985855102539,-84.66039276123047,28.91994667053223,9.80552959442139,-0.44104769825935,0.93486917018890,1.03707730770111,-0.42529886960983,-1.39006507396698
26,1389922326,-15.82057762145996,-84.66564941406250,28.92799186706543,9.81715297698975,-0.51562541723251,0.89854323863983,0.42216768860817,-0.23680220544338,-1.37860345840454
27,1389938993,-15.82616615295410,-84.67523956298828,28.93736457824707,9.74314022064209,-0.49607291817665,0.91349947452545,0.20956951379776,-0.50280296802521,-1.44643878936768
28,1389955660,-15.83100223541260,-84.69042968750000,28.93700599670410,9.70214462280273,-0.53588336706161,0.94713234901428,-0.32752239704132,-0.79763072729111,-1.58592569828033
29,1389972327,-15.83764839172363,-84.70753479003906,28.94225120544434,9.78580188751221,-0.54950827360153,0.98233366012573,-0.09789171814919,-0.91888105869293,-1.58783340454102
30,1389988994,-15.82857131958008,-84.72048187255859,28.94389724731445,9.83138656616211,-0.51707124710083,0.94695454835892,0.62791448831558,-0.67210286855698,-1.53915667533875
31,1390005661,-15.83031558990479,-84.73072814941406,28.96050834655762,9.78272247314453,-0.46048265695572,0.91967475414276,0.87483382225037,-0.53773868083954,-1.41462790966034
32,1390022328,-15.86387634277344,-84.74361419677734,28.98993492126465,9.70554637908936,-0.47571045160294,0.93904083967209,-0.27292895317078,-0.72685003280640,-1.39539277553558
33,1390038995,-15.88990974426270,-84.75857543945312,29.01199340820312,9.71790027618408,-0.52571105957031,0.92647558450699,-0.25602453947067,-0.81381791830063,-1.46261322498322
34,1390055662,-15.91827487945557,-84.77959442138672,29.03219413757324,9.74889469146729,-0.52777987718582,0.94104713201523,-0.51020491123199,-1.17234432697296,-1.57708907127380
35,1390072329,-15.93818664550781,-84.80393981933594,29.05344581604004,9.77830410003662,-0.51193541288376,0.93426275253296,0.06155373156071,-1.35328555107117,-1.62232124805450
36,1390088996,-15.94755458831787,-84.82956695556641,29.05865478515625,9.77727317810059,-0.53854805231094,0.96152919530869,-0.26552683115005,-1.40693128108978,-1.73020195960999
37,1390105663,-15.93051528930664,-84.85350036621094,29.05011558532715,9.78198719024658,-0.53917711973190,0.92177420854568,0.49486941099167,-1.29914021492004,-1.77700912952423
38,1390122330,-15.90341949462891,-84.87554931640625,29.01428222656250,9.78590011596680,-0.49584597349167,0.90934681892395,-0.52814668416977,-1.13713991641998,-1.88289213180542
39,1390138997,-15.84630584716797,-84.89511871337891,28.95942497253418,9.75458526611328,-0.48260006308556,0.85006374120712,0.13364067673683,-0.97732943296432,-1.94139146804810
40,1390155664,-15.77190399169922,-84.91069030761719,28.90034103393555,9.75912952423096,-0.50826585292816,0.80036115646362,0.91824734210968,-0.73279213905334,-1.89391839504242
41,1390172331,-15.71657752990723,-84.91882324218750,28.85164451599121,9.78299140930176,-0.42984732985497,0.85049057006836,0.39537683129311,-0.32350119948387,-1.71779251098633
42,1390188998,-15.64830303192139,-84.91146850585938,28.78994750976562,9.85593605041504,-0.48958680033684,0.87869727611542,0.39271309971809,0.58834290504456,-1.53443109989166
43,1390205665,-15.57135105133057,-84.89255523681641,28.71293067932129,9.85709667205811,-0.45872494578362,0.89322674274445,0.00028814285179,1.27614629268646,-1.42856109142303
44,1390222332,-15.48130893707275,-84.86340332031250,28.61391067504883,9.81524848937988,-0.41884621977806,0.85433077812195,-0.53155314922333,1.89211893081665,-1.38345718383789
45,1390238999,-15.41164588928223,-84.83222198486328,28.53307151794434,9.78746700286865,-0.50724089145660,0.85049045085907,-0.66516184806824,2.00094747543335,-1.25643098354340
46,1390255666,-15.34725761413574,-84.80303192138672,28.46510314941406,9.74698734283447,-0.47611129283905,0.96049153804779,-0.21501863002777,1.85076737403870,-1.23117709159851
47,1390272333,-15.30799770355225,-84.77854156494141,28.42514610290527,9.75082492828369,-0.53414922952652,1.00160348415375,-0.04750515520573,1.54777526855469,-1.15890419483185
48,1390289000,-15.27628326416016,-84.75801849365234,28.40881729125977,9.78977489471436,-0.48648512363434,0.97140896320343,0.91162633895874,1.27790057659149,-1.10006511211395
49,1390305667,-15.25297355651855,-84.73433685302734,28.39027595520020,9.80156993865967,-0.46714958548546,0.95227015018463,0.27553498744965,1.46847200393677,-1.06172299385071
50,1390322334,-15.23803806304932,-84.71020507812500,28.37555122375488,9.78414821624756,-0.44450369477272,0.98641669750214,0.00051865715068,1.49632596969604,-1.03253757953644
51,1390339001,-15.24945068359375,-84.68680572509766,28.39056205749512,9.78661060333252,-0.49793070554733,1.00944566726685,0.19867129623890,1.39948427677155,-0.88854295015335
52,1390355668,-15.24985218048096,-84.66700744628906,28.39620590209961,9.77115058898926,-0.49994936585426,0.98131936788559,0.29386091232300,1.20825982093811,-0.99448996782303
53,1390372335,-15.25909519195557,-84.65151977539062,28.39805984497070,9.74273490905762,-0.51614886522293,0.98909038305283,-0.45616215467453,0.96761584281921,-1.08136820793152
54,1390389002,-15.26019287109375,-84.64313507080078,28.38939857482910,9.74979209899902,-0.53322499990463,0.99178218841553,-0.59808212518692,0.57428151369095,-1.24989962577820
55,1390405669,-15.30305576324463,-84.63940429687500,28.42886734008789,9.77133178710938,-0.43928155303001,1.01142215728760,-0.23078320920467,0.22867657244205,-1.06390023231506
56,1390422336,-15.34997463226318,-84.63670349121094,28.47649002075195,9.82352828979492,-0.48564237356186,0.95193141698837,0.01655220612884,0.16023944318295,-1.03486824035645
57,1390439003,-15.38537693023682,-84.63400268554688,28.51136016845703,9.80660343170166,-0.50255841016769,0.96757793426514,-0.05728280171752,0.17845007777214,-1.10274207592010
58,1390455670,-15.41098976135254,-84.62699127197266,28.55462646484375,9.76885223388672,-0.52112901210785,0.99103420972824,1.03299224376678,0.41174337267876,-0.98987966775894
59,1390472337,-15.46620368957520,-84.62061309814453,28.61326599121094,9.77653980255127,-0.45947962999344,0.92937099933624,0.17500518262386,0.35229629278183,-0.91615355014801
60,1390489004,-15.51747989654541,-84.61264038085938,28.67483139038086,9.74550533294678,-0.51944398880005,0.95017415285110,0.58642196655273,0.45057216286659,-0.87038350105286
61,1390505671,-15.59943199157715,-84.60464477539062,28.76975059509277,9.76709079742432,-0.47457435727119,0.99305671453476,0.74005335569382,0.39183589816093,-0.69008940458298
62,1390522338,-15.66639137268066,-84.59368896484375,28.86122131347656,9.81624603271484,-0.47092267870903,0.98718309402466,1.43011069297791,0.55967593193054,-0.66130071878433
63,1390539005,-15.75702667236328,-84.58163452148438,28.95649909973145,9.78606510162354,-0.47903287410736,0.96155959367752,0.23935709893703,0.63176929950714,-0.61713808774948
64,1390555672,-15.83911323547363,-84.56988525390625,29.04841995239258,9.78566932678223,-0.56686717271805,0.97726416587830,0.54741376638412,0.60520887374878,-0.64181578159332
65,1390572339,-15.89857482910156,-84.56054687500000,29.11705970764160,9.77121353149414,-0.50805115699768,0.95942622423172,0.51811283826828,0.49973577260971,-0.80633890628815
66,1390589006,-15.98307609558105,-84.55579376220703,29.19394302368164,9.74326801300049,-0.48281937837601,0.96196013689041,-0.49169981479645,0.23342774808407,-0.83324521780014
67,1390605673,-16.07507514953613,-84.55788421630859,29.28510665893555,9.76670169830322,-0.54448324441910,0.98429340124130,-0.08950357139111,-0.19506630301476,-0.87103664875031
68,1390622340,-16.15455627441406,-84.55929565429688,29.38882637023926,9.76750278472900,-0.53941428661346,0.99734401702881,1.41022884845734,-0.17229662835598,-0.79103541374207
69,1390639007,-16.23817443847656,-84.55964660644531,29.49056434631348,9.78834533691406,-0.45494636893272,0.99022209644318,1.04543995857239,-0.10458946973085,-0.78196859359741
70,1390655674,-16.33210563659668,-84.55976104736328,29.58175849914551,9.79586696624756,-0.50829088687897,0.97692412137985,-0.20266048610210,-0.07726070284843,-0.83776575326920
71,1390672341,-16.40622711181641,-84.55929565429688,29.66130638122559,9.80543804168701,-0.56852430105209,0.99802768230438,0.28630515933037,-0.02703420259058,-0.89244884252548
72,1390689008,-16.49446678161621,-84.56091308593750,29.75972557067871,9.76608848571777,-0.50628048181534,0.98986375331879,0.57091343402863,-0.17452493309975,-0.82260304689407
73,1390705675,-16.59485244750977,-84.56317901611328,29.88102912902832,9.73743820190430,-0.52816373109818,0.95122659206390,1.20833683013916,-0.25228509306908,-0.70972788333893
74,1390722342,-16.68235588073730,-84.56970977783203,29.98451042175293,9.77328205108643,-0.54933762550354,0.95615452528000,0.91599345207214,-0.47028762102127,-0.88206291198730
75,1390739009,-16.76810264587402,-84.57711029052734,30.08822059631348,9.77321052551270,-0.52893948554993,0.98141455650330,1.03606569766998,-0.50655514001846,-0.89301234483719
76,1390755676,-16.86602210998535,-84.58604431152344,30.19088745117188,9.79104900360107,-0.53927052021027,1.00920236110687,0.24205921590328,-0.61489683389664,-0.93358284235001
77,1390772343,-16.93809318542480,-84.59093475341797,30.28030967712402,9.80936145782471,-0.52544504404068,0.97239327430725,1.00328791141510,-0.35223224759102,-0.93462663888931
78,1390789010,-17.00741958618164,-84.59412384033203,30.35850334167480,9.81437778472900,-0.50415819883347,0.91668081283569,0.49577862024307,-0.23961961269379,-0.96626460552216
79,1390805677,-17.06646156311035,-84.59782409667969,30.41717147827148,9.76851558685303,-0.51949459314346,0.92433500289917,-0.05076437070966,-0.23435619473457,-1.08197009563446
80,1390822344,-17.10934829711914,-84.60094451904297,30.45902442932129,9.74698638916016,-0.52763235569000,0.97855538129807,-0.08977252244949,-0.17040129005909,-1.16136956214905
81,1390839011,-17.15564155578613,-84.60395812988281,30.51119995117188,9.76065158843994,-0.52087801694870,0.95374810695648,0.32768249511719,-0.17845647037029,-1.10331821441650
82,1390855678,-17.21128082275391,-84.60932922363281,30.56965637207031,9.75144195556641,-0.51927596330643,0.93016856908798,0.13434500992298,-0.33690944314003,-1.11591958999634
83,1390872345,-17.24699592590332,-84.61282348632812,30.61363220214844,9.77168369293213,-0.56695002317429,0.96494972705841,0.47184357047081,-0.19011026620865,-1.15595245361328
84,1390889012,-17.25245857238770,-84.61602783203125,30.63321495056152,9.77446651458740,-0.51255762577057,0.98318094015121,0.82655376195908,-0.14945007860661,-1.28746068477631
85,1390905679,-17.28050422668457,-84.62222290039062,30.65893936157227,9.76624965667725,-0.53978216648102,0.95975524187088,-0.15950308740139,-0.31595829129219,-1.30358397960663
86,1390922346,-17.30004692077637,-84.63220977783203,30.68033981323242,9.77775955200195,-0.55598258972168,0.95242208242416,0.09196880459785,-0.52719902992249,-1.39438104629517
87,1390939013,-17.29573631286621,-84.64372253417969,30.69044876098633,9.75698661804199,-0.54934513568878,0.95422792434692,0.84728735685349,-0.60467743873596,-1.48581850528717
88,1390955680,-17.26809501647949,-84.65592193603516,30.68050956726074,9.76410293579102,-0.53812265396118,0.96298712491989,1.04847502708435,-0.60374253988266,-1.60358548164368
89,1390972347,-17.25393104553223,-84.66935729980469,30.67203330993652,9.75639057159424,-0.54482561349869,0.92850708961487,0.32736232876778,-0.68204063177109,-1.61905562877655
90,1390989014,-17.23613548278809,-84.68562316894531,30.65559959411621,9.75544834136963,-0.52191078662872,0.93535065650940,0.07284891605377,-0.82593268156052,-1.70976281166077
91,1391005681,-17.20866203308105,-84.69940185546875,30.63246726989746,9.79812145233154,-0.54190516471863,0.97173655033112,0.25302138924599,-0.67366510629654,-1.70023477077484
92,1391022348,-17.16074752807617,-84.70942687988281,30.59544944763184,9.79399967193604,-0.48152780532837,0.94658911228180,0.64758497476578,-0.43921929597855,-1.70836687088013
93,1391039015,-17.12880134582520,-84.71895599365234,30.55902481079102,9.75964450836182,-0.51590186357498,0.92387658357620,-0.27356925606728,-0.40904766321182,-1.69399845600128
94,1391055682,-17.07620429992676,-84.72782897949219,30.50641441345215,9.73262596130371,-0.52549308538437,0.88565510511398,-0.00025612703757,-0.34605318307877,-1.76794230937958
95,1391072349,-17.03879356384277,-84.73857879638672,30.46042442321777,9.75748729705811,-0.50032311677933,0.93341481685638,-0.51697951555252,-0.46184816956520,-1.76338303089142
96,1391089016,-16.99116897583008,-84.74887084960938,30.40999603271484,9.78634357452393,-0.55289745330811,0.90290796756744,-0.17161786556244,-0.42844921350479,-1.77817440032959
97,1391105683,-16.93260192871094,-84.75820922851562,30.35505104064941,9.79051017761230,-0.48919373750687,0.92065370082855,0.21497374773026,-0.37371480464935,-1.78765094280243
98,1391122350,-16.88513946533203,-84.76662445068359,30.30533790588379,9.74181652069092,-0.47196266055107,0.92790973186493,-0.13642604649067,-0.32827794551849,-1.74072861671448
99,1391139017,-16.86721992492676,-84.77426910400391,30.28369331359863,9.78571891784668,-0.50378656387329,0.94422471523285,-0.23239681124687,-0.32447448372841,-1.57836985588074
100,1391155684,-16.84560394287109,-84.78346252441406,30.26725578308105,9.77386474609375,-0.53328824043274,0.91937977075577,0.29898345470428,-0.42578548192978,-1.58020102977753
101,1391172351,-16.82097625732422,-84.79346466064453,30.23973083496094,9.78242683410645,-0.51939713954926,0.93582421541214,-0.18050549924374,-0.45365208387375,-1.65012371540070
102,1391189018,-16.79059982299805,-84.80435180664062,30.21350669860840,9.75102424621582,-0.49246159195900,0.91951483488083,0.24009987711906,-0.50942379236221,-1.65953648090363
103,1391205685,-16.76582717895508,-84.81212615966797,30.19754981994629,9.79054450988770,-0.50152647495270,0.93452227115631,0.51902210712433,-0.34688556194305,-1.55150210857391
104,1391222352,-16.74662017822266,-84.81643676757812,30.18197441101074,9.81672668457031,-0.47314825654030,0.91258060932159,0.20823764801025,-0.13669496774673,-1.48478102684021
105,1391239019,-16.73054122924805,-84.81938171386719,30.16369056701660,9.77231121063232,-0.47654688358307,0.89432221651077,-0.14303413033485,-0.06482574343681,-1.47877478599548
106,1391255686,-16.71313095092773,-84.82173156738281,30.15145683288574,9.74005126953125,-0.51241981983185,0.90237879753113,0.29906025528908,-0.04397700726986,-1.43894708156586
107,1391272353,-16.69344329833984,-84.82157897949219,30.14695549011230,9.77734375000000,-0.49022191762924,0.95077687501907,0.89730882644653,0.09570825099945,-1.35195362567902
108,1391289020,-16.67923164367676,-84.81983947753906,30.13866806030273,9.80391216278076,-0.49418139457703,0.93905007839203,0.34294763207436,0.19137169420719,-1.34547352790833
109,1391305687,-16.66827392578125,-84.81518554687500,30.12919044494629,9.77766227722168,-0.47662669420242,0.90959036350250,0.07580718398094,0.35875067114830,-1.30189347267151
110,1391322354,-16.66531753540039,-84.80529785156250,30.11685562133789,9.75886440277100,-0.46921518445015,0.87127971649170,-0.57780975103378,0.66136473417282,-1.22686111927032
111,1391339021,-16.67126655578613,-84.79756164550781,30.11278724670410,9.75381565093994,-0.54478937387466,0.90892338752747,-0.61453831195831,0.52842193841934,-1.21992015838623
112,1391355688,-16.66294670104980,-84.79188537597656,30.10282707214355,9.75999259948730,-0.50838834047318,0.94381886720657,-0.11087738722563,0.41502180695534,-1.28789627552032
113,1391372355,-16.67421913146973,-84.78793334960938,30.10362625122070,9.76898193359375,-0.49952802062035,0.94167071580887,-0.64673346281052,0.29373285174370,-1.26312875747681
114,1391389022,-16.68137168884277,-84.78301239013672,30.09699630737305,9.78092002868652,-0.48575600981712,0.95053762197495,-0.83706134557724,0.38018846511841,-1.27890598773956
115,1391405689,-16.69038009643555,-84.77753448486328,30.09150886535645,9.80087947845459,-0.48904037475586,0.93856894969940,-0.88397115468979,0.39837357401848,-1.26750862598419
116,1391422356,-16.71065139770508,-84.77258300781250,30.10273361206055,9.76521682739258,-0.52712136507034,0.90658265352249,-0.55853617191315,0.34251224994659,-1.18872392177582
117,1391439023,-16.73856353759766,-84.76969909667969,30.13231468200684,9.78352165222168,-0.50041931867599,0.95450931787491,0.07552544772625,0.19651983678341,-1.12679219245911
118,1391455690,-16.75834465026855,-84.76523590087891,30.15236473083496,9.79190731048584,-0.48820900917053,0.93730014562607,-0.00421328935772,0.30338880419731,-1.14942121505737
119,1391472357,-16.78345108032227,-84.76067352294922,30.16787719726562,9.75369071960449,-0.52194696664810,0.92174649238586,-0.59246009588242,0.31565731763840,-1.16994965076447
120,1391489024,-16.79009056091309,-84.76014709472656,30.17155838012695,9.75489997863770,-0.51449286937714,0.90860307216644,-0.19221051037312,0.10040818154812,-1.30353271961212
121,1391505691,-16.79553794860840,-84.76206207275391,30.17514038085938,9.78922176361084,-0.51091593503952,0.95233553647995,-0.12789700925350,-0.03699754551053,-1.34658765792847
122,1391522358,-16.81301307678223,-84.76617431640625,30.18709373474121,9.75388145446777,-0.49300095438957,0.93520957231522,-0.35053539276123,-0.17868697643280,-1.34058129787445
123,1391539025,-16.83382606506348,-84.76909637451172,30.20174026489258,9.77612876892090,-0.45909875631332,0.94412600994110,-0.38992774486542,-0.11176100373268,-1.30504393577576
124,1391555692,-16.86178398132324,-84.77115631103516,30.22670173645020,9.79051589965820,-0.51942187547684,0.92815488576889,-0.20030412077904,-0.08175573498011,-1.23713195323944
125,1391572359,-16.86826133728027,-84.77277374267578,30.24093246459961,9.77396774291992,-0.53098475933075,0.90354329347610,0.44576978683472,-0.04055771231651,-1.28561663627625
126,1391589026,-16.87733268737793,-84.77606964111328,30.25131416320801,9.75421619415283,-0.52175515890121,0.90901988744736,0.06179703772068,-0.12756404280663,-1.33490824699402
127,1391605693,-16.88161277770996,-84.77869415283203,30.25458908081055,9.76201820373535,-0.46000969409943,0.91373825073242,-0.07266322523355,-0.07341880351305,-1.35816466808319
128,1391622360,-16.92585182189941,-84.78147125244141,30.29350090026855,9.77567100524902,-0.48012521862984,0.91686737537384,-0.34511834383011,-0.14403299987316,-1.17619919776917
129,1391639027,-16.97006607055664,-84.78275299072266,30.34762001037598,9.80526065826416,-0.51835280656815,0.93008321523666,0.56853151321411,-0.07364932447672,-1.06728124618530
130,1391655694,-17.01281929016113,-84.78293609619141,30.40412902832031,9.77055644989014,-0.46562105417252,0.92779791355133,0.79470449686050,-0.02763610519469,-1.04029810428619
131,1391672361,-17.05616378784180,-84.78192138671875,30.44823837280273,9.77979183197021,-0.49641522765160,0.91307598352432,0.01404216233641,0.06175861880183,-1.08467209339142
132,1391689028,-17.09225845336914,-84.78041839599609,30.49364662170410,9.78794479370117,-0.53039211034775,0.90112853050232,0.53172606229782,0.09066256135702,-1.06756281852722
133,1391705695,-17.12860870361328,-84.77824401855469,30.54064750671387,9.80328083038330,-0.49669587612152,0.90481710433960,0.61168885231018,0.12580317258835,-1.04720079898834
134,1391722362,-17.18445587158203,-84.77851104736328,30.60197639465332,9.79073524475098,-0.49889740347862,0.94428217411041,0.30966392159462,-0.03047911264002,-1.01195764541626
135,1391739029,-17.22423744201660,-84.77838897705078,30.64593505859375,9.76026344299316,-0.52368110418320,0.96020752191544,0.22454012930393,0.01237733662128,-1.09893834590912
136,1391755696,-17.25460815429688,-84.77622222900391,30.68375015258789,9.77067089080811,-0.49077782034874,0.91586112976074,0.42061811685562,0.13253931701183,-1.09786272048950
137,1391772363,-17.28701591491699,-84.77059936523438,30.71911811828613,9.77846622467041,-0.50788003206253,0.89700573682785,0.15401557087898,0.33791473507881,-1.04727756977081
138,1391789030,-17.32645606994629,-84.76595306396484,30.75035858154297,9.76047134399414,-0.49471962451935,0.92248034477234,-0.51366275548935,0.29427072405815,-1.08387827873230
139,1391805697,-17.36668586730957,-84.76116180419922,30.79511070251465,9.77699184417725,-0.54689633846283,0.91593432426453,0.24159817397594,0.28353899717331,-1.00871765613556
140,1391822364,-17.41239929199219,-84.75574493408203,30.84308624267578,9.77281665802002,-0.46883979439735,0.90176498889923,0.11247176676989,0.30092999339104,-0.98489791154861
141,1391839031,-17.45443344116211,-84.75092315673828,30.87586402893066,9.76728820800781,-0.52248525619507,0.91505378484726,-0.57366043329239,0.30942061543465,-1.06767821311951
142,1391855698,-17.48365211486816,-84.74842071533203,30.90344810485840,9.77073478698730,-0.53240716457367,0.93212538957596,-0.12061019986868,0.17364768683910,-1.14196777343750
143,1391872365,-17.51800537109375,-84.74826812744141,30.93948936462402,9.79101848602295,-0.50514262914658,0.93313372135162,0.07825319468975,0.02465862594545,-1.13930404186249
144,1391889032,-17.55886268615723,-84.74976348876953,30.98014640808105,9.77530765533447,-0.49441531300545,0.92959165573120,-0.03818853199482,-0.07353405654430,-1.14346611499786
145,1391905699,-17.62934494018555,-84.75454711914062,31.03849792480469,9.73716354370117,-0.49807316064835,0.95553648471832,-0.75636857748032,-0.29137003421783,-1.11068189144135
146,1391922366,-17.68188095092773,-84.76000213623047,31.09136390686035,9.77633666992188,-0.58883905410767,0.97641998529434,-0.00937424786389,-0.31766149401665,-1.15240478515625
147,1391939033,-17.72141456604004,-84.77119445800781,31.14030456542969,9.75563240051270,-0.49535608291626,0.94578289985657,0.53705352544785,-0.64316052198410,-1.27832984924316
148,1391955700,-17.76652526855469,-84.78545379638672,31.18435287475586,9.75309467315674,-0.52332127094269,0.91539233922958,-0.09040002524853,-0.80929720401764,-1.36126375198364
149,1391972367,-17.80407524108887,-84.79990386962891,31.21561431884766,9.77326869964600,-0.52834904193878,0.92845046520233,-0.40109488368034,-0.78737276792526,-1.42812573909760
150,1391989034,-17.84579467773438,-84.81201171875000,31.26381111145020,9.79368019104004,-0.50770515203476,0.91391301155090,0.36511546373367,-0.69886809587479,-1.30465972423553
151,1392005701,-17.87471389770508,-84.81885528564453,31.29140472412109,9.80759048461914,-0.48638868331909,0.91750812530518,-0.09889063239098,-0.35538899898529,-1.31188249588013
152,1392022368,-17.89870643615723,-84.82501983642578,31.31127166748047,9.75257110595703,-0.50210231542587,0.89374965429306,-0.26212039589882,-0.31230846047401,-1.34261775016785
153,1392039035,-17.93390655517578,-84.83104705810547,31.34157752990723,9.75831508636475,-0.50819599628448,0.92416274547577,-0.31565093994141,-0.31054118275642,-1.28329873085022
154,1392055702,-17.95534515380859,-84.83768463134766,31.36496353149414,9.77066421508789,-0.52110868692398,0.92743682861328,0.10138146579266,-0.33530864119530,-1.32965755462646
155,1392072369,-17.97711563110352,-84.84417724609375,31.39537429809570,9.77780818939209,-0.49806335568428,0.90682160854340,0.48968285322189,-0.34597635269165,-1.29568254947662
156,1392089036,-18.00280952453613,-84.84482574462891,31.42373275756836,9.80170822143555,-0.48257899284363,0.87464570999146,0.14419311285019,-0.00308633060195,-1.19434583187103
157,1392105703,-18.02116966247559,-84.84391021728516,31.43752288818359,9.77187633514404,-0.49386659264565,0.89736658334732,-0.28346854448318,0.11289437115192,-1.23886072635651
158,1392122370,-18.02718925476074,-84.84072113037109,31.44123268127441,9.78584003448486,-0.54127722978592,0.90949934720993,-0.16445915400982,0.24523518979549,-1.25591874122620
159,1392139037,-18.02684974670410,-84.84022521972656,31.43993568420410,9.77481460571289,-0.54173415899277,0.92875444889069,-0.06258462369442,0.11636489629745,-1.32342088222504
160,1392155704,-18.02224540710449,-84.83920288085938,31.43267059326172,9.76192283630371,-0.49822053313255,0.94094294309616,-0.17716306447983,0.14952054619789,-1.34890568256378
161,1392172371,-18.00593757629395,-84.83615875244141,31.41304779052734,9.76959991455078,-0.51177763938904,0.87272816896439,-0.21884769201279,0.28663811087608,-1.37387800216675
162,1392189038,-18.01792907714844,-84.83525085449219,31.41653823852539,9.78147029876709,-0.50092530250549,0.89020055532455,-0.51078772544861,0.12055899202824,-1.29518949985504
163,1392205705,-17.99809455871582,-84.83486938476562,31.39687728881836,9.78978919982910,-0.53247737884521,0.88831096887589,0.02050936967134,0.13234722614288,-1.42181217670441
164,1392222372,-17.99416351318359,-84.83468627929688,31.39770698547363,9.77714443206787,-0.47999352216721,0.93321520090103,0.26422703266144,0.08838301897049,-1.32219171524048
165,1392239039,-17.98340606689453,-84.83361816406250,31.38490104675293,9.76978874206543,-0.53820210695267,0.88964575529099,-0.11865083128214,0.16132798790932,-1.37410855293274
166,1392255706,-17.96251106262207,-84.83229827880859,31.36910247802734,9.75414085388184,-0.49970212578773,0.87383228540421,0.30311989784241,0.18564724922180,-1.38352119922638
167,1392272373,-17.94495201110840,-84.83085632324219,31.35044860839844,9.78529262542725,-0.51249235868454,0.88920491933823,-0.06524834781885,0.19117957353592,-1.39901673793793
168,1392289040,-17.93632698059082,-84.83043670654297,31.34203338623047,9.76257801055908,-0.48471730947495,0.91797256469727,-0.00257407641038,0.11389327049255,-1.36624526977539
169,1392305707,-17.92708206176758,-84.83047485351562,31.33774185180664,9.75924873352051,-0.50928688049316,0.88099747896194,0.28563919663429,0.08990697562695,-1.35031425952911
170,1392322374,-17.90080833435059,-84.82835388183594,31.31007957458496,9.77516937255859,-0.47153109312057,0.85660254955292,-0.10230993479490,0.24086825549603,-1.43507969379425
171,1392339041,-17.87539672851562,-84.82771301269531,31.27228736877441,9.75769233703613,-0.51141923666000,0.90738886594772,-0.75522893667221,0.18761944770813,-1.50957417488098
172,1392355708,-17.85477447509766,-84.82922363281250,31.24377441406250,9.76088523864746,-0.48607733845711,0.92942649126053,-0.49814137816429,0.04221613332629,-1.50509190559387
173,1392372375,-17.84364128112793,-84.83486938476562,31.22818565368652,9.75819969177246,-0.54897159337997,0.90119063854218,-0.29240736365318,-0.22025641798973,-1.51643824577332
174,1392389042,-17.83428955078125,-84.84322357177734,31.20985221862793,9.78251552581787,-0.48133569955826,0.93828767538071,-0.55986797809601,-0.36992424726486,-1.57810103893280
175,1392405709,-17.83917045593262,-84.85311126708984,31.20915603637695,9.79176998138428,-0.48018696904182,0.92603647708893,-0.35313507914543,-0.48114734888077,-1.51381289958954
176,1392422376,-17.84285926818848,-84.85977935791016,31.21039581298828,9.80159664154053,-0.52151167392731,0.92505836486816,-0.18430900573730,-0.29651823639870,-1.44438982009888
177,1392439043,-17.82077598571777,-84.86454772949219,31.18685913085938,9.80934524536133,-0.52522993087769,0.91550117731094,-0.10761176794767,-0.15956711769104,-1.53969466686249
178,1392455710,-17.78121185302734,-84.86882019042969,31.14034652709961,9.75465774536133,-0.49884450435638,0.86988872289658,-0.39485821127892,-0.07834925502539,-1.63958430290222
179,1392472377,-17.75803184509277,-84.87210845947266,31.10285186767578,9.75335025787354,-0.48986485600471,0.86822110414505,-0.86377543210983,-0.04005825892091,-1.57813918590546
180,1392489044,-17.73777580261230,-84.87788391113281,31.06262588500977,9.73978614807129,-0.51263409852982,0.86776012182236,-1.21990728378296,-0.18771547079086,-1.64320826530457
181,1392505711,-17.72148895263672,-84.88760375976562,31.04005432128906,9.75418186187744,-0.53826624155045,0.94941467046738,-0.42508119344711,-0.44088423252106,-1.62522852420807
182,1392522378,-17.69597244262695,-84.89784240722656,31.01711463928223,9.75928115844727,-0.50955790281296,0.96321707963943,0.16400453448296,-0.45972236990929,-1.62841713428497
183,1392539045,-17.67529869079590,-84.90522766113281,30.99785423278809,9.80064010620117,-0.48478230834007,0.90766263008118,0.09841039031744,-0.30996486544609,-1.55904495716095
184,1392555712,-17.65683555603027,-84.91161346435547,30.97579574584961,9.80045413970947,-0.47198280692101,0.86732691526413,-0.22922083735466,-0.25119653344154,-1.55714964866638
185,1392572379,-17.63206291198730,-84.91619873046875,30.95214271545410,9.76965045928955,-0.50410771369934,0.87244373559952,0.06132319942117,-0.14560818672180,-1.53242051601410
186,1392589046,-17.62407302856445,-84.92549133300781,30.94424057006836,9.76699638366699,-0.49362763762474,0.89616215229034,-0.00160079356283,-0.42787292599678,-1.53375256061554
187,1392605713,-17.61516380310059,-84.93658447265625,30.93324470520020,9.76339912414551,-0.50908583402634,0.88513094186783,-0.17446091771126,-0.53552317619324,-1.58847415447235
188,1392622380,-17.59462928771973,-84.94549560546875,30.91376686096191,9.76689624786377,-0.51876050233841,0.90144491195679,0.08008451014757,-0.39566498994827,-1.58515715599060
189,1392639047,-17.57922363281250,-84.95690917968750,30.89420700073242,9.78163909912109,-0.47628161311150,0.92238777875900,-0.17966029047966,-0.54119634628296,-1.62641942501068
190,1392655714,-17.55971908569336,-84.96833801269531,30.87953758239746,9.78355884552002,-0.52466005086899,0.87266111373901,0.26187065243721,-0.54471808671951,-1.60898983478546
191,1392672381,-17.52395820617676,-84.97991943359375,30.85661315917969,9.75520133972168,-0.46301290392876,0.86417055130005,0.73496270179749,-0.54240000247955,-1.65329945087433
192,1392689048,-17.52017402648926,-84.99101257324219,30.83991050720215,9.76433658599854,-0.45312011241913,0.85390013456345,-0.78385090827942,-0.53123289346695,-1.61349725723267
193,1392705715,-17.49210548400879,-85.00067901611328,30.80370330810547,9.77634143829346,-0.50701957941055,0.85347825288773,-0.48968923091888,-0.41609114408493,-1.68286967277527
194,1392722382,-17.46608543395996,-85.01449584960938,30.77360534667969,9.77991294860840,-0.48605209589005,0.89518654346466,-0.25847056508064,-0.65505754947662,-1.72483587265015
195,1392739049,-17.45871543884277,-85.03024291992188,30.76491737365723,9.76715469360352,-0.50488573312759,0.86762833595276,-0.08031502366066,-0.80797177553177,-1.65415143966675
196,1392755716,-17.43204116821289,-85.04485321044922,30.73913764953613,9.79405307769775,-0.48647034168243,0.87949931621552,0.06876368075609,-0.71214818954468,-1.71534645557404
197,1392772383,-17.40465736389160,-85.05850219726562,30.70764923095703,9.78125000000000,-0.46137303113937,0.89418780803680,-0.28588894009590,-0.64159816503525,-1.72829365730286
198,1392789050,-17.37450218200684,-85.06831359863281,30.67304801940918,9.78659152984619,-0.46463552117348,0.86812168359756,-0.26075008511543,-0.42340350151062,-1.67136943340302
199,1392805717,-17.35688400268555,-85.07669830322266,30.66088294982910,9.78496646881104,-0.46194127202034,0.85920530557632,0.33281782269478,-0.38588094711304,-1.53836274147034
200,1392822384,-17.34250640869141,-85.08016204833984,30.65247535705566,9.75942134857178,-0.45044305920601,0.83117002248764,0.39135566353798,-0.10327041149139,-1.42662739753723
201,1392839051,-17.32171630859375,-85.08390808105469,30.63309097290039,9.76256847381592,-0.48996463418007,0.82779431343079,0.10007521510124,-0.10972480475903,-1.48887896537781
202,1392855718,-17.29773330688477,-85.09188079833984,30.60071945190430,9.74458122253418,-0.47298577427864,0.85748511552811,-0.52014273405075,-0.32173395156860,-1.62880146503448
203,1392872385,-17.27415275573730,-85.10339355468750,30.57067108154297,9.75513744354248,-0.49142828583717,0.87029230594635,-0.46239885687828,-0.52233260869980,-1.68290793895721
204,1392889052,-17.25330924987793,-85.11569213867188,30.54635238647461,9.77897644042969,-0.44999197125435,0.87137103080750,-0.19785811007023,-0.59278041124344,-1.66536343097687
205,1392905719,-17.23282623291016,-85.12564849853516,30.52462768554688,9.78764247894287,-0.46117031574249,0.88515180349350,-0.08252412080765,-0.44477730989456,-1.60644125938416
206,1392922386,-17.21017456054688,-85.13433837890625,30.50668907165527,9.78730869293213,-0.46170976758003,0.86533492803574,0.26266461610794,-0.39101627469063,-1.57012248039246
207,1392939053,-17.20262718200684,-85.14155578613281,30.50046539306641,9.76284980773926,-0.48118391633034,0.84804558753967,0.06358993798494,-0.32293772697449,-1.48545968532562
208,1392955720,-17.19393539428711,-85.14978027343750,30.49616050720215,9.76201343536377,-0.45456433296204,0.85123234987259,0.25144630670547,-0.38408806920052,-1.49434733390808
209,1392972387,-17.17442893981934,-85.15981292724609,30.47632408142090,9.78058719635010,-0.43893545866013,0.82261615991592,0.00553874718025,-0.45457422733307,-1.59432673454285
210,1392989054,-17.14824104309082,-85.16730499267578,30.44597434997559,9.78097915649414,-0.44751712679863,0.85168349742889,-0.28866791725159,-0.29710730910301,-1.60731208324432
211,1393005721,-17.13747215270996,-85.17063140869141,30.42605400085449,9.78263378143311,-0.48921588063240,0.85272502899170,-0.56488811969757,-0.08198625594378,-1.48266816139221
212,1393022388,-17.09752464294434,-85.17091369628906,30.39246368408203,9.77544212341309,-0.46404674649239,0.80661922693253,0.29274675250053,0.11932316422462,-1.50000762939453
213,1393039055,-17.07365989685059,-85.17156219482422,30.36071777343750,9.75334072113037,-0.43729159235954,0.83643037080765,-0.46945512294769,0.08614190667868,-1.49270808696747
214,1393055722,-17.03090286254883,-85.17322540283203,30.31385612487793,9.74411678314209,-0.49555987119675,0.83652651309967,-0.33510378003120,0.06531878560781,-1.58600246906281
215,1393072389,-16.98140525817871,-85.17399597167969,30.26507377624512,9.77869224548340,-0.47186067700386,0.85692489147186,0.04908033087850,0.10553071647882,-1.57716608047485
216,1393089056,-16.93381500244141,-85.17658996582031,30.21265220642090,9.76878643035889,-0.46393564343452,0.87680453062057,-0.28801479935646,0.02158510312438,-1.62109184265137
217,1393105723,-16.89584350585938,-85.17919158935547,30.17309570312500,9.78150081634521,-0.47720524668694,0.87552213668823,-0.12350443005562,-0.01917110569775,-1.56853449344635
218,1393122390,-16.84506034851074,-85.18435668945312,30.12421417236328,9.76616573333740,-0.50241428613663,0.85522031784058,0.11594229191542,-0.13451789319515,-1.64907360076904
219,1393139057,-16.79076385498047,-85.19013977050781,30.07595634460449,9.75019264221191,-0.46474727988243,0.86551892757416,0.45132139325142,-0.17946177721024,-1.65188479423523
220,1393155724,-16.73740959167480,-85.19372558593750,30.02773094177246,9.77090930938721,-0.41658419370651,0.80953061580658,0.21581900119781,-0.06083016470075,-1.63063251972198
221,1393172391,-16.70983886718750,-85.19788360595703,29.99780273437500,9.75547218322754,-0.44866919517517,0.81052511930466,-0.26260700821877,-0.10369301587343,-1.54933786392212
222,1393189058,-16.66083717346191,-85.20163726806641,29.95809745788574,9.75718879699707,-0.46687245368958,0.85416060686111,0.50266844034195,-0.07288093119860,-1.58525955677032
223,1393205725,-16.63264846801758,-85.20629882812500,29.93029594421387,9.78821563720703,-0.44764024019241,0.84076184034348,0.00447581941262,-0.14364883303642,-1.54002773761749
224,1393222392,-16.61936378479004,-85.21136474609375,29.91858100891113,9.79254245758057,-0.47067388892174,0.81754249334335,-0.03475643321872,-0.19308131933212,-1.48046517372131
225,1393239059,-16.58105278015137,-85.21557617187500,29.89060211181641,9.78714942932129,-0.45188435912132,0.84472352266312,0.61968004703522,-0.11016021668911,-1.52807927131653
226,1393255726,-16.56111907958984,-85.22090911865234,29.88451957702637,9.75591278076172,-0.45634558796883,0.86843305826187,0.82249420881271,-0.21358428895473,-1.44497895240784
227,1393272393,-16.54211235046387,-85.22295379638672,29.88103294372559,9.77388191223145,-0.46027454733849,0.82053416967392,0.84084564447403,-0.02658598497510,-1.38272726535797
228,1393289060,-16.50498199462891,-85.22246551513672,29.84584999084473,9.78830909729004,-0.41861239075661,0.82309043407440,0.06241174042225,0.15868988633156,-1.49105608463287
229,1393305727,-16.45047378540039,-85.22053527832031,29.79041671752930,9.76707458496094,-0.41336515545845,0.82354909181595,-0.00536586064845,0.26877328753471,-1.55557453632355
230,1393322394,-16.44026374816895,-85.21635437011719,29.77378845214844,9.77749252319336,-0.42145895957947,0.83426725864410,-0.35408276319504,0.34883856773376,-1.33005475997925
231,1393339061,-16.43604087829590,-85.20996856689453,29.76944732666016,9.76432228088379,-0.44434276223183,0.81115394830704,-0.24913474917412,0.46025386452675,-1.25602126121521
232,1393355728,-16.40724754333496,-85.20217132568359,29.74448394775391,9.76243782043457,-0.45288470387459,0.81719768047333,0.51560282707214,0.56493288278580,-1.28779375553131
233,1393372395,-16.40478515625000,-85.19967651367188,29.74252319335938,9.73259449005127,-0.43070313334465,0.85860037803650,-0.04191518202424,0.22587200999260,-1.29837179183960
234,1393389062,-16.41234970092773,-85.20180511474609,29.74746131896973,9.75850582122803,-0.47558283805847,0.88196176290512,-0.16207714378834,-0.04616688936949,-1.33493375778198
235,1393405729,-16.42677497863770,-85.20519256591797,29.76397705078125,9.79344654083252,-0.45658126473427,0.88572996854782,0.04395779222250,-0.14154858887196,-1.31040978431702
236,1393422396,-16.43757438659668,-85.20751953125000,29.78148269653320,9.79812717437744,-0.42836174368858,0.83798849582672,0.35374340415001,-0.06821943074465,-1.28005862236023
237,1393439063,-16.44870376586914,-85.20899200439453,29.79368591308594,9.80060386657715,-0.47014170885086,0.85532456636429,-0.06926955282688,-0.01219164486974,-1.29833340644836
238,1393455730,-16.44570541381836,-85.20821380615234,29.79432106018066,9.77578735351562,-0.44092577695847,0.84281331300735,0.25487834215164,0.12356206029654,-1.30519747734070
239,1393472397,-16.44401168823242,-85.20833587646484,29.78582763671875,9.76045894622803,-0.49388691782951,0.78800147771835,-0.33961158990860,0.07935453951359,-1.36250591278076
240,1393489064,-16.41031074523926,-85.20821380615234,29.75017929077148,9.74539184570312,-0.42543378472328,0.79721492528915,-0.05866588279605,0.14078660309315,-1.48921203613281
241,1393505731,-16.39507865905762,-85.20597076416016,29.71847152709961,9.76812362670898,-0.42780542373657,0.80788928270340,-0.82601594924927,0.25886756181717,-1.42332971096039
242,1393522398,-16.39897346496582,-85.20433807373047,29.70303535461426,9.76112270355225,-0.45721796154976,0.85454595088959,-0.65234261751175,0.17825797200203,-1.33196294307709
243,1393539065,-16.39310264587402,-85.20376586914062,29.69909095764160,9.77091598510742,-0.43387639522552,0.88130706548691,0.13202704489231,0.13310278952122,-1.32826173305511
244,1393555732,-16.40125465393066,-85.20294189453125,29.70201110839844,9.76819229125977,-0.45625790953636,0.84646433591843,-0.51340657472610,0.12522689998150,-1.31248450279236
245,1393572399,-16.39677429199219,-85.20045471191406,29.69798469543457,9.76259613037109,-0.45825156569481,0.84232985973358,0.09993435442448,0.23518222570419,-1.29332613945007
246,1393589066,-16.38906860351562,-85.19934844970703,29.69408798217773,9.76868247985840,-0.42843681573868,0.84530913829803,0.21735575795174,0.14487181603909,-1.32634091377258
247,1393605733,-16.37041473388672,-85.19972229003906,29.67183876037598,9.77841854095459,-0.44883379340172,0.83276873826981,-0.15943905711174,0.09531126171350,-1.43064856529236
248,1393622400,-16.35536193847656,-85.20306396484375,29.65297889709473,9.78325462341309,-0.48080638051033,0.84569132328033,-0.30347207188606,-0.07172836363316,-1.47380590438843
249,1393639067,-16.33153915405273,-85.20687103271484,29.62583732604980,9.77024841308594,-0.42556020617485,0.88085246086121,-0.10757333040237,-0.10245078802109,-1.51271152496338
250,1393655734,-16.31088638305664,-85.21165466308594,29.59401130676270,9.78661537170410,-0.45600509643555,0.85074436664581,-0.56098210811615,-0.14131806790829,-1.54613614082336
251,1393672401,-16.27429962158203,-85.21586608886719,29.56617736816406,9.77688789367676,-0.44853076338768,0.80421388149261,0.51923984289169,-0.12971551716328,-1.53120398521423
252,1393689068,-16.24327087402344,-85.21930694580078,29.53046417236328,9.76662158966064,-0.42578411102295,0.82524067163467,-0.25146549940109,-0.05591252446175,-1.54821097850800
253,1393705735,-16.21878433227539,-85.22246551513672,29.50270843505859,9.76545715332031,-0.46518304944038,0.82874482870102,-0.20249402523041,-0.06423666328192,-1.51136696338654
254,1393722402,-16.17158508300781,-85.22549438476562,29.45799827575684,9.75849342346191,-0.46233883500099,0.83508211374283,0.15259407460690,-0.01964494213462,-1.58629679679871
255,1393739069,-16.14086723327637,-85.22730255126953,29.42259788513184,9.78546047210693,-0.43990737199783,0.86761587858200,-0.31682908535004,0.02482510916889,-1.52789998054504
256,1393755736,-16.09081649780273,-85.22496032714844,29.37353324890137,9.84569931030273,-0.42066046595573,0.83873456716537,0.25779822468758,0.28743213415146,-1.50300443172455
257,1393772403,-16.02433204650879,-85.21877288818359,29.31255912780762,9.78518486022949,-0.34902501106262,0.82591080665588,0.22947056591511,0.52285122871399,-1.52337944507599
258,1393789070,-15.98981094360352,-85.21382141113281,29.27263641357422,9.76161956787109,-0.43694338202477,0.80974918603897,-0.66590458154678,0.42726463079453,-1.46247220039368
259,1393805737,-15.95754909515381,-85.21054840087891,29.24220848083496,9.74870491027832,-0.47363296151161,0.88721150159836,-0.01416382193565,0.32143294811249,-1.42342567443848
260,1393822404,-15.91828155517578,-85.21189880371094,29.20142555236816,9.77961540222168,-0.44626313447952,0.86578828096390,0.01368358545005,0.05372903496027,-1.53584003448486
261,1393839071,-15.87271785736084,-85.21443176269531,29.14978218078613,9.78639125823975,-0.42450708150864,0.87622261047363,-0.45179519057274,0.02081672288477,-1.61786448955536
262,1393855738,-15.83053493499756,-85.21054840087891,29.10178947448730,9.78247451782227,-0.39283668994904,0.85530465841293,-0.45191049575806,0.37970188260078,-1.49793314933777
263,1393872405,-15.79828929901123,-85.20568084716797,29.05569648742676,9.74221992492676,-0.41119769215584,0.78642004728317,-0.74831342697144,0.42065656185150,-1.46106362342834
264,1393889072,-15.77887439727783,-85.20368194580078,29.02903556823730,9.72306537628174,-0.44365078210831,0.81498855352402,-0.39735540747643,0.23655247688293,-1.41476857662201
265,1393905739,-15.74776458740234,-85.20695495605469,28.99157142639160,9.73709297180176,-0.46199277043343,0.85817945003510,-0.31566372513771,-0.05677054449916,-1.55264186859131
266,1393922406,-15.71153926849365,-85.21569824218750,28.94500350952148,9.76118850708008,-0.46904477477074,0.88380932807922,-0.63240307569504,-0.34938281774521,-1.68822252750397
267,1393939073,-15.67437744140625,-85.22160339355469,28.90216445922852,9.81329250335693,-0.44157710671425,0.89749419689178,-0.21247014403343,-0.19418264925480,-1.61263942718506
268,1393955740,-15.63986110687256,-85.22677612304688,28.86162757873535,9.83089160919189,-0.41262724995613,0.88675194978714,-0.48360621929169,-0.16322976350784,-1.61274218559265
269,1393972407,-15.61503696441650,-85.23059082031250,28.83727836608887,9.79359149932861,-0.44140797853470,0.84752053022385,0.04447005316615,-0.10552431643009,-1.49962353706360
270,1393989074,-15.54769611358643,-85.23165893554688,28.77340126037598,9.79152774810791,-0.38894706964493,0.83553200960159,0.20571482181549,0.10385309159756,-1.64936828613281
271,1394005741,-15.49149417877197,-85.23420715332031,28.70356941223145,9.73933124542236,-0.45409029722214,0.79615920782089,-0.81514972448349,0.03933470323682,-1.69746875762939
272,1394022408,-15.39992141723633,-85.23630523681641,28.61267662048340,9.75986957550049,-0.50981491804123,0.84466469287872,-0.07592885196209,0.09178952127695,-1.80234014987946
273,1394039075,-15.29560089111328,-85.23346710205078,28.52221107482910,9.80489444732666,-0.35701635479927,0.84636759757996,0.30086597800255,0.38830769062042,-1.75331723690033
274,1394055742,-15.22515583038330,-85.22853851318359,28.43355941772461,9.76386833190918,-0.38089561462402,0.78279745578766,-1.03367733955383,0.47968104481697,-1.66941010951996
275,1394072409,-15.16835784912109,-85.22574615478516,28.37795066833496,9.75642013549805,-0.41948348283768,0.79598820209503,0.05591892451048,0.32182997465134,-1.54774975776672
276,1394089076,-15.13789653778076,-85.22504425048828,28.35113906860352,9.71888160705566,-0.38392341136932,0.81288015842438,0.23834539949894,0.16289037466049,-1.43739748001099
277,1394105743,-15.11206340789795,-85.22902679443359,28.32436370849609,9.75427532196045,-0.40955352783203,0.87020432949066,-0.08327969908714,-0.12000830471516,-1.51752686500549
278,1394122410,-15.10120010375977,-85.23770141601562,28.31024742126465,9.78217697143555,-0.47057500481606,0.91035026311874,-0.12928010523319,-0.39548569917679,-1.51888430118561
279,1394139077,-15.09298038482666,-85.24515533447266,28.29876136779785,9.80029106140137,-0.35354220867157,0.85385376214981,-0.22722305357456,-0.33471956849098,-1.49552547931671
280,1394155744,-15.09762096405029,-85.25183105468750,28.29974937438965,9.80998134613037,-0.40255907177925,0.81865954399109,-0.25083795189857,-0.30050101876259,-1.42188906669617
281,1394172411,-15.11471748352051,-85.25901031494141,28.32705688476562,9.75472450256348,-0.36769708991051,0.79786574840546,0.34874895215034,-0.35107326507568,-1.31939995288849
282,1394189078,-15.12700843811035,-85.26654052734375,28.34390258789062,9.76014137268066,-0.45530354976654,0.79553228616714,0.20730280876160,-0.37785136699677,-1.36408126354218
283,1394205745,-15.13567543029785,-85.27387237548828,28.36263656616211,9.76080703735352,-0.45780137181282,0.85960078239441,0.55600690841675,-0.35672089457512,-1.34638285636902
284,1394222412,-15.14201927185059,-85.27942657470703,28.38028144836426,9.74999427795410,-0.36924180388451,0.85972988605499,0.46140635013580,-0.25177285075188,-1.33919835090637
285,1394239079,-15.17020702362061,-85.28761291503906,28.40488433837891,9.77456855773926,-0.35490271449089,0.79923737049103,-0.27382534742355,-0.42153379321098,-1.33612477779388
286,1394255746,-15.21115207672119,-85.29634857177734,28.45776557922363,9.79812526702881,-0.35465833544731,0.84924435615540,0.74363267421722,-0.48095524311066,-1.19946837425232
287,1394272413,-15.24345970153809,-85.30706024169922,28.48770141601562,9.80234527587891,-0.41943290829659,0.90908300876617,0.25439175963402,-0.58386707305908,-1.31382906436920
288,1394289080,-15.27736949920654,-85.31286621093750,28.52601051330566,9.84963798522949,-0.51673024892807,0.86619341373444,0.33193418383598,-0.30759570002556,-1.22560620307922
289,1394305747,-15.28523826599121,-85.31391143798828,28.53564643859863,9.83218288421631,-0.44821745157242,0.83811575174332,0.08040466159582,0.01664185151458,-1.29126417636871
290,1394322414,-15.23070049285889,-85.31375122070312,28.48795700073242,9.75896167755127,-0.44855305552483,0.83393764495850,0.37913838028908,0.16422222554684,-1.54424095153809
291,1394339081,-15.14513206481934,-85.31237030029297,28.41185951232910,9.80096912384033,-0.44205757975578,0.83125817775726,0.12101361155510,0.26990026235580,-1.69679021835327
292,1394355748,-15.03242015838623,-85.30769348144531,28.30334663391113,9.77493095397949,-0.45953971147537,0.83303862810135,0.11307366192341,0.50051689147949,-1.77401232719421
293,1394372415,-14.91399478912354,-85.30568695068359,28.17524909973145,9.73084449768066,-0.39445140957832,0.80977052450180,-0.66745412349701,0.36952081322670,-1.90653252601624
294,1394389082,-14.81291484832764,-85.31362152099609,28.05515670776367,9.70604896545410,-0.44852784276009,0.86107367277145,-1.19389760494232,-0.21792566776276,-2.01798629760742
295,1394405749,-14.69704723358154,-85.32772827148438,27.94491195678711,9.69294166564941,-0.40644475817680,0.83533567190170,0.29602518677711,-0.59129482507706,-2.06256508827209
296,1394422416,-14.60630893707275,-85.34857177734375,27.85292434692383,9.72515869140625,-0.37641489505768,0.79241615533829,0.08197984844446,-1.01603019237518,-2.06111788749695
297,1394439083,-14.52757167816162,-85.37433624267578,27.76882934570312,9.71132659912109,-0.36491259932518,0.81787157058716,-0.16380602121353,-1.29254496097565,-2.08871579170227
298,1394455750,-14.48726367950439,-85.40074157714844,27.72004318237305,9.77782821655273,-0.31419345736504,0.81991857290268,-0.42684847116470,-1.39434254169464,-1.94044375419617
299,1394472417,-14.44922256469727,-85.42623901367188,27.68691635131836,9.79807281494141,-0.39216277003288,0.77031135559082,0.14362321794033,-1.34153556823730,-1.86514878273010
300,1394489084,-14.43101024627686,-85.44628906250000,27.66995811462402,9.82109832763672,-0.38901835680008,0.81291669607162,0.39310365915298,-1.06943893432617,-1.67506396770477
301,1394505751,-14.43248558044434,-85.46266174316406,27.67619323730469,9.81771755218506,-0.39863082766533,0.83202594518661,0.21950083971024,-0.86266779899597,-1.53826677799225
302,1394522418,-14.41675376892090,-85.47818756103516,27.65849876403809,9.78074836730957,-0.43765735626221,0.80045282840729,-0.08850468695164,-0.79505658149719,-1.62977445125580
303,1394539085,-14.41019535064697,-85.49485015869141,27.65934562683105,9.76147747039795,-0.38559111952782,0.78642112016678,0.57164329290390,-0.88172984123230,-1.55282104015350
304,1394555752,-14.41704940795898,-85.51236724853516,27.66929054260254,9.77224159240723,-0.39033928513527,0.79268747568130,0.32727268338203,-0.94372552633286,-1.52325141429901
305,1394572419,-14.45381927490234,-85.52985382080078,27.72302246093750,9.75447177886963,-0.35984367132187,0.74883323907852,1.02223467826843,-0.98397576808929,-1.33207786083221
306,1394589086,-14.50536727905273,-85.54495239257812,27.79877853393555,9.79486846923828,-0.39333912730217,0.81040889024734,1.36322963237762,-0.88587921857834,-1.20885539054871
307,1394605753,-14.54700660705566,-85.55547332763672,27.86942291259766,9.80353450775146,-0.40263837575912,0.78195416927338,1.57159531116486,-0.59771716594696,-1.16707468032837
308,1394622420,-14.58148384094238,-85.56253051757812,27.91808319091797,9.73935890197754,-0.38313686847687,0.77513909339905,0.77166581153870,-0.38269215822220,-1.21096849441528
309,1394639087,-14.63467597961426,-85.57234191894531,27.97546577453613,9.73323440551758,-0.40360471606255,0.81957083940506,0.14321982860565,-0.54045361280441,-1.21424686908722
310,1394655754,-14.66479206085205,-85.58358764648438,28.02439498901367,9.80888366699219,-0.42496365308762,0.85175687074661,0.93554872274399,-0.61817538738251,-1.28231275081635
311,1394672421,-14.69999504089355,-85.59762573242188,28.07202148437500,9.78129100799561,-0.36573249101639,0.82878535985947,0.88304275274277,-0.78213500976562,-1.30562019348145
312,1394689088,-14.75560283660889,-85.61184692382812,28.13778686523438,9.77887916564941,-0.43452808260918,0.80207675695419,0.46524825692177,-0.81263971328735,-1.25036072731018
313,1394705755,-14.77645492553711,-85.62651062011719,28.18088912963867,9.79689311981201,-0.44114345312119,0.77401947975159,1.40250682830811,-0.81088531017303,-1.34360384941101
314,1394722422,-14.80202388763428,-85.64369201660156,28.21161270141602,9.74320220947266,-0.32031503319740,0.76286721229553,0.27508682012558,-0.95234429836273,-1.44925630092621
315,1394739089,-14.82878684997559,-85.66744995117188,28.22927093505859,9.71806526184082,-0.44114121794701,0.75734263658524,-0.23285785317421,-1.31259953975677,-1.57953512668610
316,1394755756,-14.86903476715088,-85.69561767578125,28.27492713928223,9.73429203033447,-0.37589186429977,0.76625347137451,0.25489118695259,-1.58618164062500,-1.55218088626862
317,1394772423,-14.90239906311035,-85.72525024414062,28.31201362609863,9.76642704010010,-0.37440681457520,0.71512782573700,0.27370372414589,-1.67133116722107,-1.60761952400208
318,1394789090,-14.91621494293213,-85.75075531005859,28.32557106018066,9.75314712524414,-0.40598019957542,0.73030257225037,0.43428257107735,-1.40334546566010,-1.61687862873077
319,1394805757,-14.96195793151855,-85.77205657958984,28.36154174804688,9.75581836700439,-0.27613827586174,0.75239610671997,-0.51833695173264,-1.19309067726135,-1.48779046535492
320,1394822424,-15.00237560272217,-85.79471588134766,28.37843894958496,9.81822395324707,-0.27365523576736,0.74556487798691,-1.37738704681396,-1.23888635635376,-1.59159874916077
321,1394839091,-15.08607769012451,-85.82106781005859,28.41031837463379,9.79670047760010,-0.38712570071220,0.72312647104263,-3.28263926506042,-1.47016906738281,-1.60318875312805
322,1394855758,-15.13130569458008,-85.85348510742188,28.41502761840820,9.75833511352539,-0.48962289094925,0.74688607454300,-2.42403721809387,-1.78998184204102,-1.80274963378906
323,1394872425,-15.14265251159668,-85.88434600830078,28.40203285217285,9.72661781311035,-0.39555934071541,0.72998058795929,-1.58442723751068,-1.67977058887482,-1.86332404613495
324,1394889092,-15.11585235595703,-85.91390228271484,28.33633613586426,9.75562381744385,-0.15899905562401,0.68232840299606,-2.21444869041443,-1.54217910766602,-2.04249763488770
325,1394905759,-15.11928272247314,-85.94507598876953,28.22564315795898,9.80290889739990,-0.21151374280453,0.71076160669327,-6.72168874740601,-1.58144974708557,-2.25088882446289
326,1394922426,-15.13826942443848,-85.97226715087891,28.12676620483398,9.79420661926270,-0.45592126250267,0.72917824983597,-6.99739122390747,-1.38706886768341,-2.14670348167419
327,1394939093,-15.08154964447021,-85.99415588378906,28.00296211242676,9.78063964843750,-0.48173275589943,0.69290268421173,-3.88699626922607,-1.02881085872650,-2.15113425254822
328,1394955760,-15.01072025299072,-86.01351165771484,27.86000442504883,9.75178050994873,-0.40141016244888,0.69681280851364,-4.34419536590576,-0.88053900003433,-2.20241045951843
329,1394972427,-14.89656734466553,-86.03439331054688,27.66545867919922,9.70435333251953,-0.45647689700127,0.69387227296829,-4.79603624343872,-0.91482806205750,-2.42702746391296
330,1394989094,-14.79345035552979,-86.06025695800781,27.49022674560547,9.68610572814941,-0.23182801902294,0.71735578775406,-4.41349124908447,-1.21637296676636,-2.42417812347412
331,1395005761,-14.67326164245605,-86.09540557861328,27.27432632446289,9.73422336578369,-0.44638219475746,0.63640224933624,-5.56932878494263,-1.71010911464691,-2.70062923431396
332,1395022428,-14.43648815155029,-86.13244628906250,26.96052551269531,9.76876831054688,-0.18960113823414,0.63400787115097,-4.57282686233521,-1.71740853786469,-3.10983014106750
333,1395039095,-14.09848690032959,-86.15427398681641,26.46210861206055,9.90520572662354,-0.01680206693709,0.68826586008072,-9.49828052520752,-0.68458926677704,-3.59596014022827
334,1395055762,-13.60349559783936,-86.09937286376953,25.78322982788086,9.98276615142822,-0.14380387961864,0.77283310890198,-10.93169784545898,3.93119955062866,-3.21682882308960
335,1395072429,-13.15090751647949,-86.03227233886719,25.13930130004883,9.83404350280762,-0.20312617719173,0.78421276807785,-11.43151664733887,4.61010265350342,-2.98158884048462
336,1395089096,-12.48936080932617,-85.82984161376953,24.33283996582031,10.11159324645996,-0.54515314102173,1.03299427032471,-8.50357627868652,12.64161205291748,-1.99154257774353
337,1395105763,-11.79594612121582,-85.64810180664062,23.45453071594238,9.62046146392822,-0.04585194587708,0.74233692884445,-10.81397247314453,11.52500057220459,-2.86716485023499
338,1395122430,-11.21008586883545,-85.52731323242188,22.55120468139648,9.63166141510010,-0.30374917387962,0.66827148199081,-18.81935119628906,7.99911451339722,-3.97228598594666
339,1395139097,-10.53746032714844,-85.46137237548828,21.59575080871582,9.55080699920654,-0.40441158413887,0.62430423498154,-16.72442054748535,4.81855487823486,-5.00435543060303
340,1395155764,-9.87288665771484,-85.45433807373047,20.64530181884766,9.65086650848389,-0.49816337227821,0.79387062788010,-16.76552772521973,1.31434905529022,-5.68494987487793
341,1395172431,-9.12657165527344,-85.46875000000000,19.64439010620117,9.82414245605469,-0.47294536232948,0.98327732086182,-15.17949581146240,0.01782005466521,-6.17147493362427
342,1395189098,-8.29210567474365,-85.49794006347656,18.59047317504883,9.86133098602295,-0.44394719600677,0.90320247411728,-13.00971126556396,-0.86304616928101,-6.52180480957031
343,1395205765,-7.39286899566650,-85.55110931396484,17.42356872558594,9.82730388641357,-0.22506269812584,0.84233194589615,-15.75505256652832,-2.31249618530273,-7.17644214630127
344,1395222432,-6.36155462265015,-85.63614654541016,16.12638854980469,9.75584220886230,-0.35166421532631,0.78617250919342,-15.73653602600098,-4.23423194885254,-7.88595485687256
345,1395239099,-5.13677501678467,-85.72460937500000,14.68247890472412,9.65887451171875,-0.33593672513962,0.83011990785599,-12.71018505096436,-4.50370264053345,-8.34996509552002
346,1395255766,-3.75980615615845,-85.82749938964844,13.12702274322510,9.63446807861328,-0.35271745920181,0.85924375057220,-10.48573207855225,-5.50562095642090,-8.67884445190430
347,1395272433,-2.17100954055786,-85.95571899414062,11.38229560852051,9.64743518829346,-0.40973216295242,0.84334391355515,-9.03478336334229,-7.16860198974609,-9.23279666900635
348,1395289100,-0.32437583804131,-86.11490631103516,9.39599895477295,9.67345905303955,-0.26790067553520,0.83469319343567,-8.10802841186523,-9.23296356201172,-9.80239772796631
349,1395305767,1.80562305450439,-86.30859375000000,7.12334823608398,9.79538440704346,-0.17726887762547,0.91577732563019,-8.27715110778809,-11.57719612121582,-10.22362804412842
350,1395322434,4.40338230133057,-86.53643798828125,4.41269159317017,9.71553039550781,-0.22014340758324,0.79048287868500,-6.49025392532349,-14.03908348083496,-10.77445793151855
351,1395339101,7.67878198623657,-86.79521179199219,1.03713440895081,9.71883201599121,-0.20180061459541,0.77497386932373,-5.66959714889526,-16.48640441894531,-11.48532772064209
352,1395355768,11.92967605590820,-87.07772064208984,-3.27541017532349,9.66950130462646,-0.26258307695389,0.77572911977768,-3.32528996467590,-18.83074569702148,-12.18829917907715
353,1395372435,17.42173385620117,-87.36151885986328,-8.76845073699951,9.74064159393311,-0.20815658569336,0.74762648344040,0.33567431569099,-20.29869651794434,-12.65514564514160
354,1395389102,24.64019966125488,-87.62644195556641,-15.95487785339355,9.72362422943115,-0.08095584064722,0.78438985347748,2.33484005928040,-21.39947128295898,-13.47602367401123
355,1395405769,33.98132324218750,-87.85798645019531,-25.24915313720703,9.74177742004395,-0.04254472628236,0.78448510169983,3.24573230743408,-22.69268989562988,-14.05497837066650
356,1395422436,45.74700164794922,-88.03009796142578,-36.96398162841797,9.75299930572510,0.18264845013618,0.72432816028595,3.48015403747559,-24.10577583312988,-14.46764183044434
357,1395439103,59.92428970336914,-88.11383819580078,-51.12482833862305,9.70441246032715,0.29005444049835,0.57490682601929,1.41011798381805,-26.03450775146484,-14.95583820343018
358,1395455770,75.47171783447266,-88.07096099853516,-66.68455505371094,9.73729801177979,0.30616638064384,0.54269748926163,-0.30356284976006,-28.18029785156250,-15.61750411987305
359,1395472437,90.42295074462891,-87.89225769042969,-81.67236328125000,9.77509593963623,0.34152966737747,0.61042600870132,-1.73844373226166,-30.51547241210938,-15.62052154541016
360,1395489104,103.16508483886719,-87.58362579345703,-94.45784759521484,9.81353282928467,0.09332697093487,0.43903335928917,-2.07828760147095,-32.47234344482422,-15.70289325714111
361,1395505771,113.11168670654297,-87.18304443359375,-104.38460540771484,9.87663936614990,0.26121857762337,0.43149882555008,1.75325500965118,-33.35712432861328,-15.29376029968262
362,1395522438,121.27041625976562,-86.69393920898438,-112.56639862060547,9.70517349243164,0.53454434871674,0.32225409150124,-0.71280539035797,-36.64102935791016,-15.07113361358643
363,1395539105,128.19230651855469,-86.10383605957031,-119.61274719238281,9.78137969970703,0.75042694807053,0.43448787927628,-6.66028451919556,-41.85977935791016,-15.00730514526367
364,1395555772,134.12617492675781,-85.42298889160156,-125.74784088134766,9.90885734558105,0.65043282508850,0.42909622192383,-11.09142398834229,-47.18614959716797,-13.94717597961426
365,1395572439,139.18362426757812,-84.65049743652344,-131.00003051757812,10.46348094940186,0.91751694679260,0.39876264333725,-10.52516174316406,-52.24534225463867,-13.13581466674805
366,1395589106,143.22595214843750,-83.79989624023438,-135.28405761718750,10.78540897369385,1.08555626869202,0.38359183073044,-13.22174358367920,-55.80440139770508,-13.00889873504639
367,1395605773,146.32040405273438,-83.01452636718750,-138.54527282714844,11.02698898315430,0.57941532135010,0.39901417493820,-8.73589801788330,-51.30165100097656,-10.06458377838135
368,1395622440,148.76406860351562,-82.27036285400391,-141.20558166503906,11.07503509521484,0.65803563594818,0.19579805433750,-11.70843887329102,-48.50292205810547,-7.97294664382935
369,1395639107,150.23352050781250,-81.72989654541016,-142.62721252441406,11.28688716888428,0.69156271219254,-0.40995141863823,3.67188405990601,-33.85122680664062,-7.51842212677002
370,1395655774,151.42550659179688,-81.28007507324219,-143.76434326171875,10.41778850555420,0.78778427839279,-0.87154823541641,4.01095485687256,-28.37470817565918,-5.65051221847534
371,1395672441,152.85551452636719,-80.57258605957031,-145.28543090820312,9.56720829010010,0.98345291614532,-1.35025823116302,-4.35269165039062,-44.13914108276367,-8.40124320983887
372,1395689108,154.20172119140625,-79.72002410888672,-146.76623535156250,9.57926464080811,-0.15706212818623,-1.70456171035767,-6.79335117340088,-52.45315170288086,-10.48194980621338
373,1395705775,155.44084167480469,-78.90747833251953,-148.15808105468750,9.42647552490234,-1.09627020359039,-2.27803659439087,-7.74831199645996,-50.58955383300781,-8.02091026306152
374,1395722442,156.70802307128906,-78.26617431640625,-149.40078735351562,9.38468551635742,-1.16898298263550,-0.79834347963333,2.90712928771973,-41.05143737792969,-3.42263269424438
375,1395739109,157.32398986816406,-77.88694763183594,-150.05130004882812,8.72405624389648,0.91446638107300,1.02775800228119,-1.26565408706665,-24.00279808044434,-2.77506494522095
376,1395755776,156.85409545898438,-77.80513000488281,-150.00605773925781,8.62562656402588,1.04767072200775,1.77343106269836,-25.57549476623535,-4.21582221984863,-3.75842952728271
377,1395772443,155.55046081542969,-78.02639007568359,-149.26718139648438,8.40971660614014,0.73894613981247,1.52514684200287,-34.89913558959961,15.96367740631104,-4.46119213104248
378,1395789110,153.64370727539062,-78.50373077392578,-147.86846923828125,8.67265319824219,0.54852247238159,1.53131473064423,-32.27017211914062,33.25322723388672,-4.46763181686401
379,1395805777,151.22340393066406,-79.18831634521484,-145.78771972656250,8.89261150360107,0.35521358251572,1.21112263202667,-22.76088142395020,47.63445281982422,-3.74513792991638
380,1395822444,148.15939331054688,-80.06581878662109,-142.77119445800781,9.06063079833984,0.10298600792885,1.02555525302887,-5.83444786071777,61.92817687988281,-2.92644453048706
381,1395839111,144.22583007812500,-81.08628845214844,-138.53504943847656,8.88240909576416,0.36924225091934,0.46332821249962,14.70106697082520,74.02545928955078,-1.90489304065704
382,1395855778,138.95913696289062,-82.13394165039062,-132.80738830566406,9.32886600494385,0.61756938695908,0.36681717634201,23.96510696411133,80.37781524658203,-1.66900312900543
383,1395872445,131.75888061523438,-83.15143585205078,-124.99707031250000,9.67170524597168,0.58603578805923,0.23287287354469,32.73831558227539,85.51943969726562,-1.30144524574280
384,1395889112,121.77278137207031,-84.05664062500000,-114.38998413085938,9.89139842987061,0.89508646726608,-0.36218720674515,33.30765914916992,89.16677856445312,-0.53151893615723
385,1395905779,109.29312896728516,-84.72177886962891,-101.45013427734375,10.38299083709717,1.17405283451080,-2.01766633987427,23.91815567016602,85.60382843017578,1.64843440055847
386,1395922446,94.08789062500000,-85.01539611816406,-86.03546905517578,10.56999874114990,2.43977665901184,0.51428729295731,8.90338611602783,84.56076812744141,-1.04173338413239
387,1395939113,76.57450103759766,-85.00295257568359,-68.76808166503906,9.98733711242676,1.06051957607269,0.05672805756330,-18.62778854370117,89.87239837646484,5.25836133956909
388,1395955780,60.04548645019531,-84.61868286132812,-52.37306213378906,10.51157188415527,0.90559399127960,-0.24214307963848,-12.02068328857422,91.09228515625000,10.38132476806641
389,1395972447,46.57470321655273,-83.91259765625000,-39.14641571044922,10.36059093475342,1.11290228366852,-0.30004739761353,-18.58353614807129,88.75012207031250,12.37703037261963
390,1395989114,36.58834457397461,-83.00911712646484,-29.39817237854004,10.41689300537109,0.59774285554886,-0.42308840155602,-18.07597160339355,84.63967895507812,12.74586868286133
391,1396005781,29.38621711730957,-82.02590179443359,-22.30204010009766,10.39286422729492,0.49720430374146,-0.38214814662933,-9.97883701324463,79.59583282470703,13.21647930145264
392,1396022448,24.20362854003906,-81.04105377197266,-17.14896965026855,10.16354942321777,0.49152451753616,-0.25978958606720,-5.13889169692993,73.24607086181641,12.76699447631836
393,1396039115,20.48168563842773,-80.11069488525391,-13.36833286285400,10.08651638031006,0.56190913915634,-0.09076779335737,0.45924931764603,65.76184082031250,11.87504768371582
394,1396055782,17.78876686096191,-79.25997161865234,-10.56268405914307,9.92307662963867,0.68388116359711,0.16510456800461,4.04049730300903,58.13258743286133,10.46982669830322
395,1396072449,15.84753322601318,-78.51152801513672,-8.46330833435059,9.87044143676758,0.76385396718979,0.40055134892464,7.12374544143677,50.05336761474609,8.96376419067383
396,1396089116,14.41048336029053,-77.87298583984375,-6.85157585144043,9.74649524688721,0.96023285388947,0.60608345270157,8.43417167663574,42.20864105224609,7.81003808975220
397,1396105783,13.27752208709717,-77.33357238769531,-5.59732913970947,9.72859859466553,1.08272790908813,0.83801639080048,5.52042722702026,35.34747695922852,6.64765977859497
398,1396122450,12.41942501068115,-76.88053131103516,-4.64395284652710,9.61782360076904,1.06073832511902,0.89853024482727,4.27321672439575,29.40674209594727,5.10246896743774
399,1396139117,11.83040904998779,-76.51132965087891,-3.97677564620972,9.47649478912354,0.90656661987305,0.97940063476562,3.61385011672974,23.65954208374023,3.05572295188904
400,1396155784,11.51398563385010,-76.21723937988281,-3.54261183738708,9.54904174804688,0.73143327236176,1.08012831211090,6.33146142959595,18.60266494750977,1.14361512660980
401,1396172451,11.42695426940918,-75.97852325439453,-3.26219058036804,9.50210952758789,0.57597702741623,1.14341223239899,11.10951614379883,14.91189289093018,-0.18537214398384
402,1396189118,11.51520061492920,-75.78785705566406,-3.08575296401978,9.27209949493408,0.49422976374626,1.20201766490936,15.56243038177490,11.80483913421631,-1.04524290561676
403,1396205785,11.70707321166992,-75.65892028808594,-2.96502733230591,9.29802894592285,0.38832488656044,1.22980129718781,18.53234291076660,8.01766204833984,-1.10799396038055
404,1396222452,11.92521381378174,-75.59352111816406,-2.83690738677979,9.37363529205322,0.40995532274246,1.30811285972595,20.53567504882812,4.31339645385742,-0.23503530025482
405,1396239119,12.11125183105469,-75.59289550781250,-2.67744517326355,9.46814441680908,0.44337168335915,1.34018456935883,20.43000411987305,0.61840033531189,1.02043056488037
406,1396255786,12.21102809906006,-75.65896606445312,-2.49531006813049,9.32361125946045,0.51795691251755,1.50398898124695,16.57261657714844,-3.21670198440552,2.18744826316833
407,1396272453,12.27535724639893,-75.77864837646484,-2.30439710617065,9.54547309875488,0.49104732275009,1.59224927425385,14.96052742004395,-6.32860994338989,2.98560476303101
408,1396289120,12.21741676330566,-75.95551300048828,-2.06921291351318,9.54852771759033,0.85820835828781,1.75515806674957,10.20561122894287,-9.54985618591309,4.31854104995728
409,1396305787,12.02451992034912,-76.17758941650391,-1.83821272850037,9.35746669769287,1.03428423404694,1.94764113426208,1.87603533267975,-12.23556613922119,4.76310110092163
410,1396322454,11.78927612304688,-76.43762969970703,-1.67186355590820,9.51260375976562,1.06201457977295,2.10392427444458,-4.42003822326660,-14.68398952484131,4.23175287246704
411,1396339121,11.54660797119141,-76.73986053466797,-1.60376965999603,9.58175468444824,1.12253665924072,2.22058844566345,-10.58857536315918,-17.46668434143066,3.29595613479614
412,1396355788,11.45026302337646,-77.08832550048828,-1.71658480167389,9.48507499694824,1.05144596099854,2.28834080696106,-12.37854862213135,-20.69697952270508,1.36727273464203
413,1396372455,11.55222225189209,-77.49131011962891,-2.02294588088989,9.11977005004883,1.03300285339355,2.35470080375671,-11.81838226318359,-24.40010261535645,-0.44279348850250
414,1396389122,11.91325664520264,-77.94304656982422,-2.55648183822632,8.48486995697021,1.18339478969574,2.50226354598999,-9.62251567840576,-27.82175064086914,-2.45781517028809
415,1396405789,12.61409091949463,-78.44545745849609,-3.40916180610657,7.18502664566040,1.44495224952698,2.64550399780273,-8.03307056427002,-31.57561302185059,-5.12933444976807
416,1396422456,13.73506164550781,-79.01136779785156,-4.67322874069214,5.03785610198975,1.49485766887665,2.74672222137451,-7.12749910354614,-36.32987594604492,-8.00409889221191
417,1396439123,15.36211299896240,-79.70499420166016,-6.36956262588501,1.95194292068481,1.02554070949554,2.64065957069397,-2.41297745704651,-44.89326858520508,-9.05053138732910
418,1396455790,17.58155059814453,-80.52696990966797,-8.30955314636230,-0.20438739657402,1.33021700382233,2.70983362197876,18.49105834960938,-52.83905410766602,-6.49449300765991
419,1396472457,20.88228988647461,-81.40860748291016,-11.19304752349854,-0.72528183460236,1.81388926506042,3.29039549827576,27.17439079284668,-58.76954269409180,-9.54941654205322
420,1396489124,25.60896873474121,-82.32606506347656,-15.38966464996338,0.93785893917084,0.54268515110016,2.91595268249512,34.33082962036133,-64.48683929443359,-12.35933876037598
421,1396505791,31.88559722900391,-83.21548461914062,-20.80226325988770,3.77612876892090,-0.08577640354633,2.44386482238770,54.41947937011719,-66.28225708007812,-11.55160713195801
422,1396522458,38.92963409423828,-84.07166290283203,-27.20974159240723,4.81622362136841,0.24940676987171,2.32303237915039,40.54738998413086,-66.35990905761719,-6.35874462127686
423,1396539125,45.55609130859375,-84.88216400146484,-34.16957473754883,4.69808053970337,0.22177843749523,2.60819363594055,-18.07985305786133,-62.86567687988281,1.47209286689758
424,1396555792,51.08652496337891,-85.62735748291016,-40.26774597167969,2.21661663055420,-2.63294553756714,0.83395719528198,-32.81990432739258,-52.20313262939453,11.77092075347900
425,1396572459,58.38311767578125,-86.36638641357422,-47.74340438842773,0.98886013031006,-1.91322851181030,0.53609538078308,-9.65721416473389,-51.03822708129883,16.52998733520508
426,1396589126,69.77974700927734,-86.87789154052734,-59.24619674682617,0.75016212463379,0.72794783115387,2.74714088439941,-5.21588182449341,-49.95141601562500,8.14279270172119
427,1396605793,86.46048736572266,-86.94700622558594,-76.24033355712891,0.13254013657570,1.51774191856384,5.26851177215576,-17.40830993652344,-54.73738861083984,-8.62361526489258
428,1396622460,103.27168273925781,-86.53253173828125,-93.23291015625000,0.03492455556989,-2.60729360580444,7.19566154479980,-9.32343769073486,-59.96624755859375,-20.68495941162109
429,1396639127,117.89482116699219,-85.84268188476562,-106.73265075683594,2.33594655990601,-7.14667320251465,-4.25757980346680,69.12371063232422,-64.87731170654297,-20.59210395812988
430,1396655794,158.02523803710938,-81.12228393554688,-143.93785095214844,-7.95343065261841,-19.55247306823730,-91.23976898193359,187.02555847167969,-366.06283569335938,4.59126949310303
431,1396672461,168.80146789550781,-75.56977844238281,-151.64770507812500,50.33310317993164,-8.51180076599121,28.34761238098145,192.76344299316406,-344.95382690429688,-6.60390090942383
432,1396689128,170.56619262695312,-71.07054138183594,-156.75541687011719,38.54695510864258,6.62488985061646,12.28697967529297,-187.83789062500000,-280.93411254882812,36.92905807495117
433,1396705795,177.48049926757812,-67.36072540283203,-157.17845153808594,67.98552703857422,28.49025344848633,-2.61826992034912,390.89859008789062,-222.31625366210938,-15.55523014068604
434,1396722462,171.45286560058594,-63.85358047485352,-156.36708068847656,7.90197753906250,-15.62472343444824,-19.84966850280762,-317.22100830078125,-207.50064086914062,-41.61955642700195
435,1396739129,173.14332580566406,-61.63235473632812,-155.91806030273438,-7.52081727981567,13.24210643768311,-7.90195178985596,125.29632568359375,-130.33821105957031,-31.40648651123047
436,1396755796,173.52009582519531,-60.44203948974609,-156.59454345703125,20.39370346069336,0.83424007892609,-15.11945343017578,-12.96690940856934,-73.12709045410156,9.92951011657715
437,1396772463,174.10400390625000,-60.21379470825195,-157.41018676757812,14.41417980194092,3.43538570404053,-11.68648242950439,-7.55094480514526,-16.13918876647949,21.31123161315918
438,1396789130,175.47589111328125,-60.97809982299805,-158.98451232910156,13.75042057037354,4.31547546386719,-13.98278236389160,-0.04363827407360,41.53950119018555,49.05429458618164
439,1396805797,176.85137939453125,-62.93858337402344,-160.41685485839844,16.89632225036621,6.66201639175415,-15.01245498657227,6.60015487670898,114.73677062988281,46.89261627197266
440,1396822464,178.03297424316406,-66.16549682617188,-161.52381896972656,19.95723724365234,3.00487136840820,-14.03693866729736,10.83333110809326,192.21772766113281,35.87258911132812
441,1396839131,178.61033630371094,-71.04065704345703,-162.21400451660156,27.88793945312500,2.95115017890930,-11.26184940338135,-4.01061153411865,291.99221801757812,22.39460754394531
442,1396855798,175.24845886230469,-77.78484344482422,-159.77957153320312,38.99227523803711,5.30852460861206,-4.26928424835205,-60.77725219726562,406.06738281250000,-18.82741737365723
443,1396872465,137.44898986816406,-85.66108703613281,-124.70634460449219,48.93204879760742,-1.35502946376801,6.04053020477295,-179.31230163574219,532.34753417968750,-94.50695037841797
444,1396889132,37.66987228393555,-81.91477966308594,-26.36871337890625,35.68319702148438,-4.69703483581543,0.60168433189392,-104.33634948730469,570.60595703125000,-123.98480224609375
445,1396905799,16.27148437500000,-79.44452667236328,-14.03038024902344,-4.55932569503784,-11.45031738281250,-45.96752929687500,-553.08807373046875,185.85638427734375,38.73246383666992
446,1396922466,7.15433502197266,-80.75408172607422,-10.25545120239258,-16.26713180541992,-1.40047132968903,3.01572513580322,-323.93392944335938,-68.79161071777344,52.81143951416016
447,1396939133,4.98985815048218,-83.96772003173828,-12.31932640075684,3.04180335998535,-18.42325782775879,-10.34979534149170,-252.66365051269531,-193.08108520507812,2.67674493789673
448,1396955800,23.00032043457031,-86.92922210693359,-27.40608978271484,3.32929706573486,-0.19618344306946,8.65188026428223,177.88772583007812,-187.52059936523438,-28.67172431945801
449,1396972467,60.22104644775391,-88.21524047851562,-59.88696289062500,5.54344797134399,0.99305963516235,9.97719955444336,286.02093505859375,-109.38580322265625,-14.43178558349609
450,1396989134,61.37314224243164,-87.74884033203125,-56.39508438110352,1.46629464626312,12.59741783142090,16.28822517395020,278.54916381835938,20.11020660400391,-21.65912055969238
451,1397005801,38.94364929199219,-86.26482391357422,-32.37122344970703,1.72502791881561,4.54923629760742,8.74215412139893,93.82080841064453,113.33097076416016,-19.35373878479004
452,1397022468,26.23521804809570,-84.11913299560547,-20.99046897888184,0.39173576235771,8.67767047882080,7.22171878814697,-81.99842071533203,138.58285522460938,-21.76616287231445
453,1397039135,17.70608711242676,-82.34096527099609,-16.24612998962402,-0.58755749464035,1.53361272811890,-0.08706231415272,-229.08381652832031,111.39820861816406,-9.93890094757080
454,1397055802,12.38340377807617,-81.37989807128906,-14.46714878082275,-1.52273845672607,-3.27158284187317,-2.86521625518799,-213.73605346679688,59.65462112426758,-1.61503946781158
455,1397072469,8.87504100799561,-81.08791351318359,-12.84502792358398,-1.11553859710693,-4.55670309066772,-2.14002919197083,-114.34342193603516,20.05330085754395,10.08329868316650
456,1397089136,7.46436977386475,-80.91014099121094,-11.38455486297607,-0.03254483267665,-0.49372953176498,-0.78027099370956,1.89049458503723,12.60922813415527,10.78680515289307
457,1397105803,7.79192495346069,-80.59532165527344,-10.85459232330322,0.71530938148499,1.05260717868805,0.50672179460526,51.02598571777344,19.49629402160645,1.28270399570465
458,1397122470,9.62247371673584,-80.21636199951172,-11.38774013519287,1.16260695457458,0.04093290120363,0.22426712512970,78.28231048583984,21.75602340698242,-9.99146747589111
459,1397139137,11.94476604461670,-79.92005157470703,-12.46160984039307,1.29113721847534,-0.31479254364967,-0.03299847617745,75.86112213134766,15.47589778900146,-15.52334117889404
460,1397155804,13.73184967041016,-79.67545318603516,-13.35443496704102,1.17853295803070,-1.06875133514404,0.41139593720436,54.49043273925781,12.30287837982178,-13.79176902770996
461,1397172471,14.49179363250732,-79.41006469726562,-13.48989105224609,0.54082906246185,-0.94185119867325,0.17855156958103,37.58808517456055,15.18548297882080,-6.58401441574097
462,1397189138,13.84368324279785,-79.08968353271484,-12.79162502288818,-0.42238378524780,0.40509068965912,0.14311772584915,2.25360751152039,20.64583587646484,1.60995924472809
463,1397205805,11.71018314361572,-78.81021118164062,-11.48188686370850,-0.71472895145416,-0.31637108325958,0.33898532390594,-50.90816116333008,19.78222846984863,9.72376918792725
464,1397222472,9.01084518432617,-78.53834533691406,-9.44347572326660,-0.26890617609024,-1.36624443531036,1.66144180297852,-42.06255340576172,20.46901512145996,19.44291114807129
465,1397239139,7.62378787994385,-78.13437652587891,-7.71512126922607,-1.03885614871979,0.88502955436707,1.46301472187042,18.31673049926758,27.11431312561035,15.98513031005859
466,1397255806,6.85802078247070,-78.27007293701172,-6.43800687789917,-2.16110515594482,-1.97420930862427,-2.98852062225342,29.04273986816406,-5.99064111709595,15.31330776214600
467,1397272473,7.88930416107178,-79.01305389404297,-6.32453870773315,-1.15017032623291,-2.35121393203735,-1.92394495010376,68.53531646728516,-43.90529632568359,5.78576946258545
468,1397289140,10.87579917907715,-80.04351043701172,-7.33777236938477,0.24848210811615,-1.08495247364044,-0.12653879821301,119.39480590820312,-62.65270996093750,-2.10113167762756
469,1397305807,15.27794170379639,-81.12615203857422,-9.47693920135498,0.80089575052261,1.35393643379211,1.22533524036407,137.49499511718750,-67.85715484619141,-7.04849624633789
470,1397322474,19.92991828918457,-82.25402832031250,-12.72413158416748,1.46080482006073,3.97008109092712,1.71705400943756,86.31596374511719,-72.82910919189453,-7.69004678726196
471,1397339141,24.76851081848145,-83.50611114501953,-17.26941299438477,0.07796877622604,2.01011180877686,0.78434318304062,19.67549705505371,-82.10123443603516,-4.04853439331055
472,1397355808,32.93388748168945,-84.95306396484375,-25.62182235717773,0.70636075735092,-0.47184643149376,0.00248264893889,-8.73379325866699,-99.91021728515625,-3.76119184494019
473,1397372475,50.60922622680664,-86.43988037109375,-42.60069656372070,1.26641571521759,-3.49105668067932,-0.18400745093822,44.54244232177734,-116.40830993652344,0.27239960432053
474,1397389142,83.86804199218750,-87.05822753906250,-73.21480560302734,1.28953576087952,-2.53844308853149,2.11875534057617,161.40507507324219,-109.24337005615234,-8.53990840911865
475,1397405809,137.14817810058594,-85.97012329101562,-120.95034027099609,-4.26090145111084,4.97634601593018,-87.49036407470703,336.97460937500000,-180.12475585937500,2.81657314300537
476,1397422476,161.71136474609375,-77.65274047851562,-157.23097229003906,62.11558532714844,-26.87482643127441,25.84886169433594,-685.85937500000000,-564.07092285156250,21.05503845214844
477,1397439143,175.90098571777344,-76.30538940429688,-159.75823974609375,-20.94362640380859,-7.68290853500366,10.01154136657715,703.48284912109375,-85.91017150878906,16.64814949035645
478,1397455810,170.03347778320312,-71.78386688232422,-157.20063781738281,82.83415985107422,39.01194000244141,55.86001586914062,-204.28227233886719,-263.85739135742188,-76.31809997558594
479,1397472477,173.63227844238281,-67.72916412353516,-158.34262084960938,18.51965522766113,-23.67107009887695,-39.72205352783203,151.49935913085938,-244.02629089355469,-12.30363655090332
480,1397489144,176.51976013183594,-65.71942901611328,-158.77256774902344,-22.68013000488281,28.67632102966309,-3.37450551986694,149.48864746093750,-120.88862609863281,-1.41649007797241
481,1397505811,176.73646545410156,-65.13307952880859,-160.76075744628906,-11.16973400115967,-8.52945327758789,-23.63200759887695,-95.51196289062500,-37.91276550292969,46.23373413085938
482,1397522478,176.75743103027344,-65.70377349853516,-163.55184936523438,-2.11329579353333,6.36122989654541,-10.06579399108887,-151.05429077148438,30.34048652648926,70.27440643310547
483,1397539145,179.01045227050781,-67.09952545166016,-166.01658630371094,14.08054447174072,-6.44748210906982,-8.09560203552246,-0.38358980417252,81.59037017822266,61.02952194213867
484,1397555812,-179.10827636718750,-68.98794555664062,-166.99360656738281,19.52942276000977,-4.05684614181519,-2.90212702751160,58.45239257812500,113.38102722167969,20.79582405090332
485,1397572479,-177.58493041992188,-70.93511199951172,-166.72361755371094,13.22439193725586,-0.08272579312325,-3.41824197769165,106.55986022949219,116.71778106689453,-10.14092540740967
486,1397589146,-178.03193664550781,-72.55735015869141,-165.41615295410156,6.97847652435303,-0.66837000846863,-5.51103448867798,47.63965988159180,96.41568756103516,-29.49968338012695
487,1397605813,-179.33386230468750,-74.11949920654297,-163.73616027832031,5.40668964385986,-0.95677161216736,-4.48780679702759,18.41202735900879,93.11959075927734,-32.27279663085938
488,1397622480,179.69720458984375,-75.81152343750000,-162.25825500488281,5.20145225524902,-0.95808720588684,-4.69315576553345,27.46092224121094,101.52206420898438,-24.54792976379395
489,1397639147,178.88308715820312,-77.58101654052734,-160.55517578125000,7.09020614624023,1.54509186744690,-3.43849039077759,50.54492568969727,106.51155090332031,-23.42350578308105
490,1397655814,177.61405944824219,-79.39832305908203,-158.73777770996094,8.32232856750488,1.90341973304749,-1.53863441944122,30.66137886047363,109.69332122802734,-19.64660835266113
491,1397672481,175.89614868164062,-81.08815765380859,-156.96533203125000,8.58054256439209,0.84968018531799,-0.33554825186729,1.68485987186432,102.27809143066406,-13.48797321319580
492,1397689148,173.94541931152344,-82.57331085205078,-155.02809143066406,9.47788429260254,-0.02109229750931,0.08990554511547,-2.04406785964966,90.23446655273438,-9.80419826507568
493,1397705815,171.53877258300781,-83.80334472656250,-152.51135253906250,10.48584175109863,0.86227196455002,1.09171462059021,5.47425603866577,75.45915222167969,-9.70022678375244
494,1397722482,168.86900329589844,-84.69519042968750,-149.72328186035156,9.59844589233398,0.29873239994049,1.27994549274445,6.19015312194824,55.58275985717773,-8.68412113189697
495,1397739149,165.95271301269531,-85.33616638183594,-147.10427856445312,9.68962287902832,-0.48844337463379,1.39527761936188,-18.49098968505859,40.51248931884766,-6.22166347503662
496,1397755816,162.21562194824219,-85.91442871093750,-143.73017883300781,9.54013061523438,-0.79507130384445,1.00067758560181,-22.43064308166504,37.58837127685547,-6.64423608779907
497,1397772483,157.71060180664062,-86.39706420898438,-139.64767456054688,9.60716056823730,-1.01459980010986,0.24454581737518,-25.95394706726074,32.82389831542969,-6.84725236892700
498,1397789150,152.32113647460938,-86.84272003173828,-134.36027526855469,9.37708950042725,-0.56182605028152,-0.44366496801376,-6.73743486404419,32.12020111083984,-7.05773591995239
499,1397805817,145.53971862792969,-87.26140594482422,-127.52004241943359,9.72021102905273,-0.38743275403976,-0.21710467338562,2.93299174308777,32.38902664184570,-6.59559011459351
500,1397822484,135.00108337402344,-87.73773956298828,-116.50189971923828,9.50675392150879,-0.20531153678894,-0.56519806385040,28.10074806213379,40.35037994384766,-5.63831329345703
501,1397839151,121.10736846923828,-88.05630493164062,-102.29306793212891,9.74306011199951,0.40327522158623,-0.05278416350484,18.37326049804688,36.56395721435547,-6.08091449737549
502,1397855818,101.45427703857422,-88.22988128662109,-82.35979461669922,10.04255485534668,0.11481239646673,0.12165950238705,16.36923217773438,40.42081069946289,-6.15052175521851
503,1397872485,75.75762939453125,-88.11685180664062,-56.34123229980469,9.45182132720947,-0.15676179528236,-0.32674896717072,18.79597663879395,50.63790130615234,-6.48047685623169
504,1397889152,59.82094955444336,-87.75946807861328,-40.19217681884766,9.23581790924072,0.30304136872292,0.01276332885027,12.19024467468262,40.73250198364258,-7.23139524459839
505,1397905819,50.11875915527344,-87.32548522949219,-30.30625343322754,9.57285022735596,0.06281030923128,0.56799638271332,10.43983459472656,35.89556884765625,-7.47601366043091
506,1397922486,44.33365249633789,-86.91326904296875,-24.15282630920410,9.26871299743652,-0.00545710371807,0.10415285080671,21.57113075256348,30.48031044006348,-6.49367189407349
507,1397939153,40.58141326904297,-86.55167388916016,-20.16556739807129,9.65648841857910,0.66262114048004,0.85747909545898,13.65201282501221,25.28214454650879,-5.64342880249023
508,1397955820,37.78145217895508,-86.23641204833984,-17.23711013793945,9.80337619781494,0.00087027193513,0.98282521963120,7.30095815658569,21.70657539367676,-4.48454761505127
509,1397972487,36.15055084228516,-85.97927093505859,-15.32492828369141,9.55034160614014,-0.13751772046089,0.78823387622833,16.55942726135254,17.09505271911621,-4.20809221267700
510,1397989154,35.27580261230469,-85.77154541015625,-14.17510604858398,9.65412044525146,-0.03220791742206,1.02404260635376,16.28185653686523,13.10832309722900,-4.42649555206299
511,1398005821,34.68426513671875,-85.57968902587891,-13.39298439025879,9.71416473388672,-0.03069880045950,1.09476220607758,11.25199699401855,11.54843902587891,-4.88598632812500
512,1398022488,34.37427902221680,-85.40538787841797,-12.86942672729492,9.70827388763428,-0.10145664215088,0.49314343929291,12.67619228363037,10.11310195922852,-5.09467887878418
513,1398039155,34.27226638793945,-85.22037506103516,-12.52861881256104,9.93236732482910,0.21415419876575,0.43788093328476,14.21102333068848,10.19184780120850,-6.07332849502563
514,1398055822,33.94112014770508,-85.01992034912109,-12.07567405700684,9.80108833312988,0.49162968993187,0.02171231806278,7.16415214538574,11.34702968597412,-6.02874660491943
515,1398072489,33.85655593872070,-84.86031341552734,-12.02480316162109,9.68129444122314,0.32250869274139,0.28941768407822,-2.07451415061951,8.20362854003906,-6.33345890045166
516,1398089156,34.10924911499023,-84.75559234619141,-12.34033870697021,9.81128978729248,0.04477100819349,1.00801730155945,-3.74240016937256,4.33972024917603,-6.14199066162109
517,1398105823,34.08718490600586,-84.64588165283203,-12.32786273956299,9.88402843475342,0.03022077120841,1.18190944194794,-0.61800903081894,5.59051752090454,-4.84722995758057
518,1398122490,34.00527572631836,-84.59474182128906,-12.30896282196045,9.70494747161865,-0.35782566666603,-0.09327390789986,-3.82826638221741,2.71139240264893,-2.84706950187683
519,1398139157,34.15853118896484,-84.57515716552734,-12.55538082122803,10.01942348480225,0.35876017808914,0.43334057927132,-5.55977535247803,0.30606541037560,-3.04187989234924
520,1398155824,34.05298233032227,-84.55065155029297,-12.65254688262939,10.01472282409668,0.58825194835663,0.98579823970795,-12.17075061798096,1.02994477748871,-2.50998187065125
521,1398172491,33.46008682250977,-84.48054504394531,-12.38485050201416,9.97453784942627,0.25252199172974,0.92191243171692,-19.62956237792969,4.45730113983154,-2.27273321151733
522,1398189158,32.88815307617188,-84.39786529541016,-12.07082557678223,9.72308444976807,-0.10505894571543,0.62777346372604,-15.60462570190430,5.26230621337891,-2.39982223510742
523,1398205825,32.40661621093750,-84.29762268066406,-11.82347393035889,9.87384700775146,0.30949342250824,1.76248717308044,-14.16703701019287,5.96209716796875,-3.22830414772034
524,1398222492,31.78554153442383,-84.18399047851562,-11.51310062408447,9.53347492218018,0.42237976193428,1.94132614135742,-18.77972984313965,6.87513017654419,-3.25244593620300
525,1398239159,31.17886734008789,-84.07755279541016,-11.20593929290771,9.56039810180664,0.04728398472071,1.82171058654785,-18.11027526855469,6.53600454330444,-2.93892002105713
526,1398255826,30.60077476501465,-83.95428466796875,-10.71670341491699,9.66273117065430,0.24643999338150,2.17874574661255,-5.53092432022095,8.03219032287598,-2.38522219657898
527,1398272493,29.94052124023438,-83.80236053466797,-10.06051826477051,9.60779953002930,0.58290433883667,2.13953399658203,-0.51345795392990,10.08951759338379,-2.17341732978821
528,1398289160,29.36161804199219,-83.65084075927734,-9.45669364929199,9.57379055023193,0.04242844134569,1.36336326599121,1.23985362052917,9.96366977691650,-2.26587939262390
529,1398305827,28.94503784179688,-83.51505279541016,-8.98080825805664,9.75507068634033,0.02220058068633,0.86850154399872,3.34072303771973,8.78389644622803,-2.39764380455017
530,1398322494,28.60990905761719,-83.39907073974609,-8.61109256744385,9.93430423736572,0.44730952382088,1.33057594299316,1.89126121997833,7.42370796203613,-2.34759616851807
531,1398339161,28.19077301025391,-83.31059265136719,-8.30740070343018,9.69332122802734,0.39866840839386,1.06567358970642,-7.08930253982544,5.77832269668579,-1.88418602943420
532,1398355828,27.86780738830566,-83.24277496337891,-8.08166217803955,9.78104114532471,0.27812957763672,1.53940117359161,-5.96426343917847,4.45041847229004,-1.73163628578186
533,1398372495,27.69793510437012,-83.19712829589844,-7.91980314254761,9.51025295257568,-0.21315002441406,0.83102434873581,-0.58889997005463,3.06565451622009,-1.47978639602661
534,1398389162,27.68070030212402,-83.16737365722656,-7.90755748748779,9.87195396423340,0.21962006390095,1.33115792274475,-0.34063607454300,1.73746943473816,-1.97555863857269
535,1398405829,27.78491973876953,-83.15206909179688,-8.00765991210938,9.70083141326904,0.23345318436623,1.71380352973938,0.25419965386391,0.59281235933304,-2.28314161300659
536,1398422496,27.94211387634277,-83.13167572021484,-8.08067226409912,9.71837425231934,0.10259731113911,1.95955717563629,5.05115795135498,0.96385723352432,-2.26527070999146
537,1398439163,28.03816604614258,-83.09593200683594,-8.13572597503662,9.50541973114014,0.00374376634136,0.48460140824318,2.44281148910522,1.80894851684570,-2.57303309440613
538,1398455830,28.19102096557617,-83.06712341308594,-8.27679347991943,10.24931049346924,0.49077290296555,1.95445311069489,0.73488593101501,1.16347599029541,-2.94283533096313
539,1398472497,28.29306411743164,-83.06771850585938,-8.28535366058350,9.30004310607910,-0.28187870979309,0.53920412063599,5.57770967483521,0.05244840681553,-1.26020872592926
540,1398489164,28.69357109069824,-83.08463287353516,-8.51351547241211,10.13755893707275,0.42441195249557,1.47809875011444,10.40618228912354,-1.56315660476685,-2.19379281997681
541,1398505831,28.97295188903809,-83.07263946533203,-8.64906501770020,9.76301097869873,0.28990784287453,1.74220693111420,8.65258026123047,0.26868367195129,-2.42786693572998
542,1398522498,28.40836143493652,-82.93764495849609,-8.11248874664307,10.06444072723389,-0.13860088586807,1.92302227020264,-1.95590198040009,9.10089302062988,-1.66549217700958
543,1398539165,28.35660934448242,-82.89610290527344,-7.81014871597290,9.48367881774902,-0.79864788055420,-1.40023696422577,14.86287593841553,3.37298393249512,-0.43880990147591
544,1398555832,28.53255462646484,-82.86342620849609,-7.90146589279175,10.33315277099609,1.01466262340546,1.05870807170868,5.08087539672852,1.50658404827118,-2.75050997734070
545,1398572499,28.54809951782227,-82.85301971435547,-7.83513641357422,9.70561790466309,0.98695206642151,1.20967507362366,4.84457159042358,0.89966535568237,-1.08604252338409
546,1398589166,28.54460906982422,-82.89781188964844,-8.06736278533936,9.77385902404785,0.34218794107437,1.51825976371765,-14.07097434997559,-3.06868529319763,-1.46269106864929
547,1398605833,28.98894119262695,-82.98986053466797,-8.65707206726074,9.77529621124268,0.21346957981586,2.06339287757874,-8.48761558532715,-6.81296730041504,-2.38583660125732
548,1398622500,28.79307937622070,-82.99596405029297,-8.64451885223389,10.09696578979492,-0.26913997530937,1.07208049297333,-11.03700351715088,-0.15144796669483,-0.97356480360031
549,1398639167,28.64129066467285,-82.97239685058594,-8.58721828460693,9.75858497619629,0.44528481364250,0.08546645939350,-5.73678398132324,1.54542553424835,-1.52804088592529
550,1398655834,28.43643760681152,-82.95012664794922,-8.60942363739014,9.81085109710693,0.31785097718239,0.72016656398773,-13.64589214324951,1.22017061710358,-2.01368451118469
551,1398672501,28.32727813720703,-82.96235656738281,-8.65102195739746,9.69855594635010,0.40934446454048,0.97944569587708,-9.06448936462402,-0.67598330974579,-1.14548981189728
552,1398689168,28.26806449890137,-82.99739074707031,-8.72381973266602,9.66913795471191,0.09335498511791,1.01137745380402,-7.92539024353027,-1.98784053325653,-0.69771575927734
553,1398705835,28.39593124389648,-83.07066345214844,-8.96145248413086,9.71309757232666,0.30521753430367,1.58896958827972,-6.51279783248901,-4.56554079055786,-0.66812014579773
554,1398722502,28.66677474975586,-83.18174743652344,-9.39063167572021,9.80024337768555,0.09966564178467,1.28606808185577,-9.34883213043213,-7.20562410354614,-0.75773924589157
555,1398739169,29.33371925354004,-83.35436248779297,-10.32470893859863,9.68544769287109,0.51674348115921,1.04789543151855,-15.67413520812988,-12.11593723297119,-1.96954250335693
556,1398755836,30.37246513366699,-83.58497619628906,-11.74829578399658,9.86958312988281,-0.12416956573725,0.73359018564224,-22.57324028015137,-16.72138977050781,-2.78074026107788
557,1398772503,31.46428871154785,-83.76262664794922,-13.00932407379150,9.81457233428955,0.09458228945732,0.67511522769928,-9.72141170501709,-13.30047035217285,-2.92442250251770
558,1398789170,32.39303588867188,-83.91417694091797,-14.15375804901123,9.83366203308105,0.30992791056633,0.77556538581848,-12.57604026794434,-11.49171352386475,-2.69144916534424
559,1398805837,33.28265380859375,-84.06304168701172,-15.28474140167236,9.78573417663574,0.55311906337738,0.88934671878815,-14.14045524597168,-11.23510169982910,-2.37584972381592
560,1398822504,33.95247268676758,-84.19951629638672,-16.31017303466797,9.81906318664551,0.18835596740246,0.86377722024918,-21.04823684692383,-10.17306423187256,-1.95481622219086
561,1398839171,34.55152893066406,-84.30525970458984,-17.06585311889648,9.68497276306152,0.21676781773567,0.81237947940826,-9.20501708984375,-7.68349409103394,-1.41912353038788
562,1398855838,34.99951553344727,-84.40602111816406,-17.78463935852051,9.74676513671875,0.39492127299309,0.92737025022507,-16.07244873046875,-7.26065874099731,-1.27802395820618
563,1398872505,35.44716262817383,-84.50738525390625,-18.48297309875488,9.75717830657959,0.19976978003979,0.78803360462189,-14.87983894348145,-7.17896509170532,-1.04029917716980
564,1398889172,35.85498809814453,-84.60102081298828,-19.12121963500977,9.83029556274414,0.25623643398285,0.72538858652115,-13.68664169311523,-6.55805921554565,-0.92164802551270
565,1398905839,36.15420532226562,-84.68801879882812,-19.67346572875977,9.81131553649902,0.37608176469803,0.83736759424210,-15.07284259796143,-5.92454242706299,-0.66658389568329
566,1398922506,36.30051040649414,-84.77070617675781,-20.11781311035156,9.85690021514893,0.21958838403225,0.72360587120056,-17.80694389343262,-5.32598829269409,-0.28107410669327
567,1398939173,36.58867645263672,-84.84497070312500,-20.61366462707520,9.73005676269531,0.16413436830044,0.62574124336243,-12.37252998352051,-5.05857515335083,-0.76159405708313
568,1398955840,36.87947845458984,-84.89677429199219,-20.97059822082520,9.73369026184082,0.10672990977764,0.73901170492172,-3.91878223419189,-3.52584481239319,-0.90255326032639
569,1398972507,36.51092910766602,-84.86023712158203,-20.46158409118652,9.67709350585938,0.26304835081100,0.70930653810501,8.27084922790527,3.50589942932129,-0.34286451339722
570,1398989174,36.23221969604492,-84.85391235351562,-20.18379020690918,9.73003673553467,0.27946397662163,0.77377092838287,-0.15516813099384,1.31494307518005,-0.24782207608223
571,1399005841,36.14983749389648,-84.87527465820312,-20.10026741027832,9.79407310485840,0.20762744545937,0.86690843105316,0.01314571686089,-0.64910268783569,-0.10930220782757
572,1399022508,36.04143905639648,-84.88837432861328,-19.91197204589844,9.85809516906738,0.25359085202217,0.79418057203293,4.71419095993042,0.07542300969362,0.05616225674748
573,1399039175,35.15078735351562,-84.79414367675781,-18.74139976501465,9.83228874206543,0.17324474453926,0.65697300434113,16.47605705261230,8.38419246673584,0.64369261264801
574,1399055842,34.42610549926758,-84.74018096923828,-17.88330268859863,9.57935523986816,0.49860766530037,0.67461931705475,7.75153732299805,5.45387315750122,0.79840564727783
575,1399072509,34.03256607055664,-84.73519134521484,-17.47377395629883,9.74185657501221,0.40071353316307,0.78141796588898,0.81889557838440,1.63189387321472,0.47604396939278
576,1399089176,33.81029510498047,-84.76232147216797,-17.29668235778809,9.81685733795166,0.31713026762009,0.79569500684738,-2.78695583343506,-0.67986345291138,0.48409920930862
577,1399105843,33.70858383178711,-84.80596923828125,-17.27345275878906,9.76189422607422,0.30606055259705,0.69900172948837,-4.74789094924927,-1.98630356788635,0.33140918612480
578,1399122510,33.62471389770508,-84.86779022216797,-17.36785697937012,9.73019313812256,0.40969619154930,0.79266750812531,-10.70796871185303,-3.24273514747620,0.39627343416214
579,1399139177,33.43145370483398,-84.93635559082031,-17.41588592529297,9.82880878448486,0.35400199890137,0.75728541612625,-14.49788761138916,-3.43369197845459,0.81787174940109
580,1399155844,33.21165084838867,-85.00688171386719,-17.48108291625977,9.87064075469971,0.17725567519665,0.76750344038010,-17.12559318542480,-3.61088252067566,0.81368434429169
581,1399172511,32.97121047973633,-85.05854797363281,-17.46961975097656,9.90997600555420,0.03106858581305,0.71073603630066,-13.77394390106201,-2.43797230720520,0.50937932729721
582,1399189178,32.56902694702148,-85.03473663330078,-16.99406814575195,9.80174160003662,-0.05252093449235,0.70469897985458,4.25684309005737,2.64840412139893,0.08206308633089
583,1399205845,32.15625381469727,-84.99684143066406,-16.47871208190918,9.74448108673096,0.19317130744457,0.74913883209229,6.00664710998535,3.48127269744873,-0.16963297128677
584,1399222512,31.82055091857910,-84.97870635986328,-16.14756965637207,9.72616481781006,0.20736292004585,0.85301071405411,-0.38777622580528,1.96032559871674,-0.32569107413292
585,1399239179,31.18505668640137,-84.91465759277344,-15.40499496459961,10.10630035400391,-0.13626517355442,1.09436583518982,6.21535205841064,5.43749380111694,0.12792906165123
586,1399255846,29.94435882568359,-84.69929504394531,-13.57303047180176,9.62271308898926,0.15693348646164,0.74868214130402,34.98843002319336,16.28399276733398,0.81016600131989
587,1399272513,29.05774307250977,-84.57285308837891,-12.45813369750977,9.64911937713623,0.33959451317787,0.68538928031921,13.36529445648193,9.79007911682129,0.50313627719879
588,1399289180,28.63751602172852,-84.52464294433594,-11.95034027099609,9.71536827087402,0.34845831990242,0.95504450798035,5.08158588409424,4.04544925689697,-0.07820198684931
589,1399305847,28.45563697814941,-84.52764892578125,-11.82349014282227,9.79355907440186,0.31895169615746,0.93086951971054,-3.37234091758728,0.30846652388573,-0.50360327959061
590,1399322514,28.49988937377930,-84.56758117675781,-12.00743770599365,9.76400566101074,0.23173463344574,0.74438291788101,-8.36519813537598,-2.48116660118103,-1.01321291923523
591,1399339181,28.73182678222656,-84.63755035400391,-12.46362209320068,9.71817588806152,0.22901852428913,0.72695577144623,-13.37246417999268,-4.80568933486938,-1.48270750045776
592,1399355848,29.08524131774902,-84.72942352294922,-13.10973930358887,9.78284740447998,0.24770031869411,0.78222388029099,-17.43050193786621,-6.43746566772461,-1.72194397449493
593,1399372515,29.33332633972168,-84.79888153076172,-13.65064048767090,9.85122966766357,0.07863672077656,0.87942820787430,-17.46738243103027,-4.95809984207153,-1.79234051704407
594,1399389182,29.08673286437988,-84.75025177001953,-13.40008544921875,10.03888225555420,-0.25658294558525,0.89562082290649,0.13534390926361,3.31907963752747,-1.44496619701385
595,1399405849,28.65040779113770,-84.63220977783203,-12.67336845397949,9.68664073944092,0.18753530085087,0.71813678741455,17.20221138000488,8.26004791259766,-1.09864544868469
596,1399422516,28.35187721252441,-84.56664276123047,-12.29391956329346,9.67557907104492,0.52355974912643,0.89905852079391,4.71778917312622,4.58826637268066,-1.21157050132751
597,1399439183,28.20561408996582,-84.54917907714844,-12.18646335601807,9.77269554138184,0.17688450217247,0.95365387201309,-2.39478754997253,1.32518184185028,-1.18180847167969
598,1399455850,28.23958778381348,-84.56263732910156,-12.27787971496582,9.76309871673584,0.15014691650867,0.94265103340149,-3.45542240142822,-0.83635717630386,-1.30884742736816
599,1399472517,28.45365715026855,-84.60631561279297,-12.58798122406006,9.76412487030029,0.20837275683880,0.83323913812637,-5.71369457244873,-3.02258062362671,-1.53627538681030
600,1399489184,28.82782173156738,-84.67028045654297,-13.08510875701904,9.75121498107910,0.27437037229538,0.80694073438644,-7.28202486038208,-4.58262491226196,-1.84572827816010
601,1399505851,29.24122238159180,-84.74559020996094,-13.70273876190186,9.80359745025635,0.19537688791752,0.87412196397781,-12.13198852539062,-5.48979139328003,-2.03574991226196
602,1399522518,29.63052558898926,-84.81484222412109,-14.26749992370605,9.83900833129883,0.17801947891712,0.90434443950653,-10.42183876037598,-5.01336812973022,-1.88381481170654
603,1399539185,29.90633964538574,-84.86882019042969,-14.71278285980225,9.78719806671143,0.21564279496670,0.86838525533676,-10.09263896942139,-3.88095331192017,-1.71725535392761
604,1399555852,30.12937545776367,-84.90688323974609,-15.08218955993652,9.78832244873047,0.15254473686218,0.79402863979340,-8.73050785064697,-2.85099530220032,-1.79972159862518
605,1399572519,30.30179023742676,-84.92900848388672,-15.36713504791260,9.73281764984131,0.23194138705730,0.83585971593857,-6.71889066696167,-1.78570473194122,-1.87980580329895
606,1399589186,30.43051147460938,-84.94860076904297,-15.61530113220215,9.78855991363525,0.24614642560482,0.88817828893661,-7.14516353607178,-1.56069731712341,-1.77256560325623
607,1399605853,30.40798950195312,-84.92102050781250,-15.55588722229004,9.90549182891846,-0.02270307578146,0.78789734840393,2.16345977783203,1.69116151332855,-1.78730511665344
608,1399622520,30.26921653747559,-84.86745452880859,-15.28884029388428,9.73688793182373,0.23846498131752,0.76610720157623,7.60043716430664,3.61356234550476,-1.61955559253693
609,1399639187,30.18813133239746,-84.83623504638672,-15.15398216247559,9.75084018707275,0.31313186883926,0.80446851253510,3.15538811683655,2.08974647521973,-1.53642892837524
610,1399655854,30.13050842285156,-84.82888031005859,-15.10628318786621,9.76371097564697,0.30607441067696,0.85551899671555,-0.64267385005951,0.62770962715149,-1.22765517234802
611,1399672521,30.08310127258301,-84.83730316162109,-15.12732601165771,9.76167392730713,0.20936039090157,0.89905220270157,-4.13801336288452,-0.37411192059517,-1.07697558403015
612,1399689188,30.04271316528320,-84.85574340820312,-15.15987300872803,9.76635074615479,0.21081362664700,0.81848680973053,-4.40095376968384,-0.92424720525742,-0.82991564273834
613,1399705855,29.99851989746094,-84.88274383544922,-15.23934555053711,9.76348018646240,0.25730025768280,0.79967236518860,-7.43795490264893,-1.50271010398865,-0.78733450174332
614,1399722522,29.89370727539062,-84.91519165039062,-15.28703975677490,9.80078506469727,0.29015743732452,0.87509632110596,-9.17530345916748,-1.69214177131653,-0.48335018754005
615,1399739189,29.71210098266602,-84.94821166992188,-15.25105285644531,9.79151916503906,0.18967129290104,0.80925035476685,-8.77697563171387,-1.49989306926727,-0.08284430950880
616,1399755856,29.56432723999023,-84.97457885742188,-15.22457695007324,9.79603576660156,0.21233418583870,0.71433109045029,-7.32231473922729,-1.19311678409576,-0.32339885830879
617,1399772523,29.52635192871094,-84.99629211425781,-15.27392578125000,9.75735092163086,0.20891200006008,0.74119532108307,-5.26327657699585,-1.14271724224091,-0.81532281637192
618,1399789190,29.53279876708984,-85.01469421386719,-15.35602760314941,9.74317359924316,0.15140464901924,0.85271906852722,-4.55189657211304,-1.04058659076691,-1.06850445270538
619,1399805857,29.56398582458496,-85.02886199951172,-15.42626094818115,9.78556251525879,0.12757518887520,0.85866767168045,-2.36211848258972,-0.81056511402130,-1.12677943706512
620,1399822524,29.62634468078613,-85.04686737060547,-15.50238800048828,9.75802230834961,0.21655367314816,0.85701924562454,-0.84934276342392,-1.02189564704895,-1.03882563114166
621,1399839191,29.69672393798828,-85.06398010253906,-15.58026790618896,9.79028320312500,0.20071284472942,0.78385490179062,-0.46577978134155,-0.97410225868225,-1.07550299167633
622,1399855858,29.68943595886230,-85.07594299316406,-15.58771228790283,9.81878280639648,0.28774788975716,0.78386104106903,-0.91795909404755,-0.52488106489182,-0.90820068120956
623,1399872525,29.64808845520020,-85.08399200439453,-15.57064247131348,9.79954719543457,0.21332742273808,0.75381422042847,-1.49073600769043,-0.25013366341591,-0.92025154829025
624,1399889192,29.63552093505859,-85.09064483642578,-15.56545639038086,9.75051498413086,0.21078507602215,0.77887713909149,-0.48112171888351,-0.21892453730106,-1.00876891613007
625,1399905859,29.66216278076172,-85.09387969970703,-15.60325527191162,9.76430702209473,0.21592918038368,0.77460825443268,-0.69638365507126,-0.15382988750935,-1.30035674571991
626,1399922526,29.73659515380859,-85.10211944580078,-15.70133972167969,9.71868324279785,0.17203158140182,0.76134610176086,-1.43115448951721,-0.55893963575363,-1.42594230175018
627,1399939193,29.88386344909668,-85.11938476562500,-15.87917613983154,9.72624778747559,0.17064301669598,0.87327188253403,-1.83157694339752,-1.23551821708679,-1.50830626487732
628,1399955860,30.13229560852051,-85.14312744140625,-16.12734985351562,9.79826831817627,0.17233747243881,0.87083685398102,0.03636362776160,-1.74688863754272,-1.61932456493378
629,1399972527,30.44084167480469,-85.17131805419922,-16.42963409423828,9.76963424682617,0.19592785835266,0.74643069505692,0.40769654512405,-2.11653089523315,-1.70683026313782
630,1399989194,30.74642753601074,-85.19261932373047,-16.72258377075195,9.74678707122803,0.23201641440392,0.62458318471909,0.78767383098602,-1.73122656345367,-1.86007118225098
631,1400005861,30.98640632629395,-85.20404815673828,-16.98385620117188,9.82428455352783,0.30553713440895,0.61201179027557,-1.25981163978577,-1.15081703662872,-2.00776648521423
632,1400022528,31.13479614257812,-85.20201110839844,-17.17306327819824,9.80904293060303,0.29853647947311,0.63391435146332,-2.44724202156067,-0.27979311347008,-2.10477471351624
633,1400039195,31.23587608337402,-85.19462585449219,-17.33891105651855,9.76085472106934,0.20064556598663,0.67441362142563,-3.88180947303772,0.07412955909967,-2.18299603462219
634,1400055862,31.32344627380371,-85.18102264404297,-17.45268058776855,9.77321338653564,0.18548178672791,0.72698009014130,-1.58411991596222,0.51438623666763,-2.14661312103271
635,1400072529,31.37546157836914,-85.16325378417969,-17.52573966979980,9.78865051269531,0.25724649429321,0.72519427537918,-1.28208196163177,0.83045965433121,-2.10085582733154
636,1400089196,31.38527679443359,-85.14223480224609,-17.58230781555176,9.77051448822021,0.31962794065475,0.76562100648880,-2.83058118820190,1.03516292572021,-2.12881898880005
637,1400105863,31.38853454589844,-85.12339782714844,-17.64703369140625,9.77905559539795,0.21166086196899,0.70327961444855,-3.70914149284363,0.91015368700027,-2.10317397117615
638,1400122530,31.45570182800293,-85.10984039306641,-17.76014900207520,9.74436473846436,0.21810999512672,0.75968629121780,-2.77019238471985,0.50528091192245,-2.14900779724121
639,1400139197,31.55491828918457,-85.09975433349609,-17.89961433410645,9.74312496185303,0.25489926338196,0.81190657615662,-2.42005419731140,0.24463328719139,-2.14975070953369
640,1400155864,31.68428421020508,-85.09787750244141,-18.06834793090820,9.75864696502686,0.26523628830910,0.81263834238052,-2.36268210411072,-0.24430674314499,-2.02981925010681
641,1400172531,31.85338020324707,-85.10231018066406,-18.27669525146484,9.73918724060059,0.21470071375370,0.80009108781815,-2.34139800071716,-0.66745418310165,-2.00669097900391
642,1400189198,32.06254577636719,-85.10960388183594,-18.51032829284668,9.75239753723145,0.23572821915150,0.76815956830978,-1.44972991943359,-0.88265204429626,-2.02299332618713
643,1400205865,32.28110885620117,-85.11978912353516,-18.75207519531250,9.77535533905029,0.25706332921982,0.73981386423111,-1.37398052215576,-1.06422042846680,-1.95455622673035
644,1400222532,32.46015167236328,-85.12557220458984,-18.94766807556152,9.83965778350830,0.26225888729095,0.77053761482239,-0.98245197534561,-0.71097016334534,-1.89238166809082
645,1400239199,32.54806900024414,-85.12484741210938,-19.04609870910645,9.79741477966309,0.24587310850620,0.70917409658432,-0.64807808399200,-0.11929113417864,-1.67797744274139
646,1400255866,32.65552902221680,-85.12319946289062,-19.15379333496094,9.76210212707520,0.28615820407867,0.72733986377716,-0.02519009076059,-0.09691845625639,-1.75064086914062
647,1400272533,32.76288986206055,-85.12339782714844,-19.26185798645020,9.77086544036865,0.24067682027817,0.77814900875092,-0.05381228029728,-0.20093162357807,-1.68601989746094
648,1400289200,32.86605453491211,-85.12440490722656,-19.35156631469727,9.77445507049561,0.30935603380203,0.76830768585205,0.79548567533493,-0.17795705795288,-1.58922970294952
649,1400305867,32.93230438232422,-85.12467956542969,-19.41816711425781,9.79444217681885,0.30508637428284,0.73455029726028,-0.04501431807876,-0.08625077456236,-1.50696170330048
650,1400322534,32.97301864624023,-85.12226867675781,-19.47767257690430,9.78951835632324,0.29848912358284,0.76171058416367,-1.14693665504456,0.07325872033834,-1.56917476654053
651,1400339201,32.98108673095703,-85.11657714843750,-19.50791168212891,9.76366901397705,0.22833113372326,0.71301263570786,-1.36086666584015,0.31472241878510,-1.54709661006927
652,1400355868,32.99191665649414,-85.10531616210938,-19.53540039062500,9.76476001739502,0.24231642484665,0.69713735580444,-1.02724850177765,0.60137975215912,-1.71842002868652
653,1400372535,32.98046875000000,-85.08956909179688,-19.54905700683594,9.79107189178467,0.33226606249809,0.72773557901382,-1.54212796688080,0.86736768484116,-1.80546486377716
654,1400389202,32.96753311157227,-85.07633972167969,-19.57424354553223,9.78868103027344,0.27106148004532,0.74942839145660,-2.31388974189758,0.71169364452362,-1.77540826797485
655,1400405869,32.95839309692383,-85.06385803222656,-19.57952308654785,9.76623249053955,0.23739828169346,0.77564626932144,-0.89795559644699,0.72990429401398,-1.66552984714508
656,1400422536,32.98993682861328,-85.05233001708984,-19.59837722778320,9.78337955474854,0.19883914291859,0.76886045932770,0.72879010438919,0.63778817653656,-1.68955445289612
657,1400439203,33.06198120117188,-85.03703308105469,-19.62913703918457,9.75052356719971,0.30883252620697,0.73868626356125,2.45023250579834,0.78515088558197,-1.85985350608826
658,1400455870,33.13578033447266,-85.02685546875000,-19.70290756225586,9.74232196807861,0.26437672972679,0.74657344818115,-0.01721173152328,0.41891491413116,-1.89078056812286
659,1400472537,33.23286056518555,-85.01748657226562,-19.78144645690918,9.80637836456299,0.25215265154839,0.82010793685913,1.09861195087433,0.37044289708138,-1.89052462577820
660,1400489204,33.29327774047852,-85.00743103027344,-19.79118537902832,9.76701545715332,0.26317787170410,0.75797492265701,3.00587439537048,0.58670365810394,-1.60484051704407
661,1400505871,33.23573684692383,-84.98182678222656,-19.66163253784180,9.83815479278564,0.22988547384739,0.71465009450912,4.25939893722534,1.76835846900940,-1.50628292560577
662,1400522538,32.92964935302734,-84.91407775878906,-19.19880867004395,9.80158424377441,0.26182574033737,0.76885128021240,9.25854015350342,4.85042619705200,-1.39117991924286
663,1400539205,32.59175872802734,-84.84520721435547,-18.72442817687988,9.76512622833252,0.30025956034660,0.74572366476059,8.04089641571045,4.95780658721924,-1.32170522212982
664,1400555872,32.35038375854492,-84.79862213134766,-18.43797683715820,9.73747253417969,0.39866539835930,0.86151683330536,2.60001587867737,3.30463409423828,-1.42033958435059
665,1400572539,32.20514297485352,-84.76972961425781,-18.28671073913574,9.73843669891357,0.28638306260109,0.82028973102570,0.28896886110306,2.01575160026550,-1.45510864257812
666,1400589206,32.07753753662109,-84.73579406738281,-18.10927772521973,9.80019378662109,0.14884221553802,0.79503160715103,2.90982723236084,2.35435175895691,-1.48893046379089
667,1400605873,31.99942207336426,-84.69367218017578,-17.89502716064453,9.72806549072266,0.22380384802818,0.82210552692413,8.07938003540039,2.88170480728149,-1.56605052947998
668,1400622540,31.95814895629883,-84.66465759277344,-17.77066993713379,9.75487899780273,0.36027702689171,0.91793757677078,4.91989946365356,1.95647120475769,-1.56835544109344
669,1400639207,31.50664901733398,-84.57299804687500,-17.13838577270508,10.05295848846436,0.06421221792698,0.96260005235672,10.64557170867920,6.65411233901978,-1.08389163017273
670,1400655874,30.64355850219727,-84.38584899902344,-15.83191394805908,9.73558330535889,0.19905181229115,0.92580318450928,26.20429992675781,13.61835956573486,-0.54830563068390
671,1400672541,30.08069229125977,-84.26062011718750,-15.01352787017822,9.69186210632324,0.39092054963112,0.85965138673782,15.05342674255371,9.03172016143799,-0.81646978855133
672,1400689208,29.74338150024414,-84.18661499023438,-14.53502368927002,9.73132228851318,0.38016280531883,0.92350548505783,8.29218482971191,5.40682363510132,-0.94106209278107
673,1400705875,29.07081604003906,-84.03941345214844,-13.65950298309326,10.11520767211914,0.05199238657951,1.02809274196625,11.86297225952148,10.43793201446533,-0.85833346843719
674,1400722542,28.32975006103516,-83.82378387451172,-12.52939033508301,9.66687583923340,0.24519290030003,0.87996327877045,22.92639160156250,14.88793945312500,-1.13695061206818
675,1400739209,27.77607154846191,-83.67243957519531,-11.74474525451660,9.71750640869141,0.37714543938637,1.00942492485046,13.54319763183594,10.53502178192139,-0.96983885765076
676,1400755876,27.39642143249512,-83.55146789550781,-11.11770915985107,9.69118690490723,0.23939625918865,0.95596766471863,14.57463169097900,8.47571754455566,-0.87425196170807
677,1400772543,27.14801788330078,-83.47628784179688,-10.71001720428467,9.71463489532471,0.33506289124489,0.99399983882904,9.36707305908203,5.38550090789795,-0.83911067247391
