sep=,
DeviceTag:,Xsens_DOT_3
FirmwareVersion:,3.0.0
AppVersion:,2023.6.0
StartTime: ,2025-04-09_10:45:35_000 CEST
© Movella Technologies B. V. 2005-2025

PacketCounter,SampleTimeFine,Euler_X,Euler_Y,Euler_Z,Acc_X,Acc_Y,Acc_Z,Gyr_X,Gyr_Y,Gyr_Z
0,1389488984,-88.63436889648438,-89.74743652343750,-55.59988403320312,0.00000000000000,0.00000000000000,0.00000000000000,0.00000000000000,0.00000000000000,0.00000000000000
1,1389505651,-91.55361175537109,-89.74056243896484,-52.70049285888672,9.81095218658447,-0.10373967140913,-0.17980079352856,-0.24017666280270,-0.53396713733673,0.64869272708893
2,1389522318,-92.47202301025391,-89.73312377929688,-51.78942489624023,9.81992149353027,-0.09762687981129,-0.15634439885616,0.62187629938126,0.09623972326517,0.63533580303192
3,1389538985,-92.39658355712891,-89.72589111328125,-51.85685348510742,9.80541133880615,-0.09468599408865,-0.17432919144630,1.39490604400635,0.41894692182541,0.65879702568054
4,1389555652,-91.16098022460938,-89.71954345703125,-53.07064437866211,9.77605152130127,-0.09560699015856,-0.12545409798622,2.12887644767761,0.81680172681808,0.66244685649872
5,1389572319,-89.32826232910156,-89.71128845214844,-54.87475967407227,9.78118991851807,-0.09706249088049,-0.12320080399513,2.63931202888489,1.04095125198364,0.70401632785797
6,1389588986,-87.20372009277344,-89.70392608642578,-56.97654342651367,9.77481937408447,-0.08192715793848,-0.06610205769539,2.38342809677124,1.17048764228821,0.60924923419952
7,1389605653,-85.25750732421875,-89.70261383056641,-58.90610504150391,9.82124519348145,-0.10108582675457,-0.01631047576666,1.57003271579742,1.12082445621490,0.44046157598495
8,1389622320,-83.00360870361328,-89.69869232177734,-61.15750885009766,9.79649448394775,-0.11749909818172,-0.02428153157234,1.18407511711121,1.23394298553467,0.30566194653511
9,1389638987,-81.80397033691406,-89.69869232177734,-62.34317398071289,9.76996612548828,-0.06791142374277,-0.02173386514187,1.68651914596558,0.84349012374878,0.27263432741165
10,1389655654,-81.22077178955078,-89.69998931884766,-62.92718124389648,9.76847171783447,-0.04242296516895,0.01979606971145,0.78598970174789,0.61041462421417,0.19181349873543
11,1389672321,-81.38131713867188,-89.70525360107422,-62.77211761474609,9.79278182983398,-0.08833589404821,-0.00637995358557,0.26874125003815,0.32309138774872,0.08894009888172
12,1389688988,-82.18075561523438,-89.70993804931641,-61.98521041870117,9.78099822998047,-0.12644754350185,-0.04690911248326,0.24909630417824,0.08494452387094,0.00194656511303
13,1389705655,-83.41897583007812,-89.71814727783203,-60.74746322631836,9.75271797180176,-0.06461133807898,-0.03050504811108,0.56250607967377,-0.06036272644997,0.03704876825213
14,1389722322,-84.66145324707031,-89.72164154052734,-59.51251220703125,9.76761627197266,-0.04447013884783,-0.02151088602841,0.49815425276756,-0.04400902241468,0.05077718198299
15,1389738989,-86.36573791503906,-89.73239135742188,-57.81892395019531,9.78779029846191,-0.08407294750214,-0.07350528240204,0.04603882879019,-0.19891464710236,-0.14896987378597
16,1389755656,-88.66687011718750,-89.74131774902344,-55.52728652954102,9.80740165710449,-0.07977803051472,-0.06133910641074,0.16817297041416,-0.36361709237099,-0.07013396918774
17,1389772323,-90.98155975341797,-89.74821472167969,-53.23368072509766,9.79081153869629,-0.09105334430933,-0.04927651956677,-0.49486935138702,-0.33420091867447,-0.02490194700658
18,1389788990,-94.42583465576172,-89.74977111816406,-49.78387069702148,9.80197906494141,-0.07693219929934,-0.05497656390071,1.24827337265015,-0.68923133611679,0.13974289596081
19,1389805657,-98.00303649902344,-89.74977111816406,-46.20795059204102,9.73614025115967,-0.02474207431078,-0.04867339134216,0.95646780729294,-0.72392374277115,0.15119177103043
20,1389822324,-101.63603210449219,-89.74589538574219,-42.57896804809570,9.75923347473145,-0.09879937022924,-0.13427130877972,0.87954008579254,-0.76514738798141,0.26664099097252
21,1389838991,-105.03285217285156,-89.74435424804688,-39.19061279296875,9.74062061309814,-0.14259243011475,-0.20239821076393,0.47625532746315,-0.68563270568848,0.17028602957726
22,1389855658,-108.18676757812500,-89.74131774902344,-36.04458236694336,9.76018238067627,-0.08081191033125,-0.20885492861271,0.63988208770752,-0.59076333045959,0.07804188877344
23,1389872325,-110.38426208496094,-89.74131774902344,-33.86063385009766,9.80659008026123,-0.07996399700642,-0.17749789357185,0.19210804998875,-0.26531553268433,0.07555746287107
24,1389888992,-110.66863250732422,-89.74589538574219,-33.56237030029297,9.81942844390869,-0.11194996535778,-0.15187765657902,1.47439503669739,0.36017858982086,0.16168017685413
25,1389905659,-109.86883544921875,-89.74743652343750,-34.33650970458984,9.77105426788330,-0.05132913216949,-0.11113899946213,2.37420773506165,0.68829005956650,0.27372291684151
26,1389922326,-108.87836456298828,-89.75055694580078,-35.30461120605469,9.77370548248291,-0.06572389602661,-0.08034949749708,1.96079325675964,0.73794031143188,0.31247493624687
27,1389938993,-108.67399597167969,-89.74821472167969,-35.49372863769531,9.75243282318115,-0.09430751204491,-0.06451511383057,1.94087898731232,0.47984108328819,0.28601697087288
28,1389955660,-109.06924438476562,-89.75292205810547,-35.08624267578125,9.77375602722168,-0.05216722562909,-0.11116848886013,1.37693858146667,0.30965751409531,0.19555294513702
29,1389972327,-109.97376251220703,-89.75371551513672,-34.18120574951172,9.79851531982422,-0.10993432998657,-0.08463483303785,1.04225754737854,0.17694531381130,0.10042738169432
30,1389988994,-110.07834625244141,-89.75611114501953,-34.07404327392578,9.79194068908691,-0.09166669100523,-0.06801819056273,0.92504101991653,0.41884446144104,0.18209347128868
31,1390005661,-110.64764404296875,-89.75531005859375,-33.49132156372070,9.79369926452637,-0.02020419389009,-0.07762350142002,1.70189976692200,0.22144739329815,0.28492850065231
32,1390022328,-111.55747222900391,-89.75371551513672,-32.57047653198242,9.73946857452393,-0.09050504863262,-0.12635973095894,1.44692540168762,0.07910482585430,0.34857603907585
33,1390038995,-113.27587127685547,-89.74359893798828,-30.84217453002930,9.71098041534424,-0.07611326128244,-0.08107902854681,1.98570120334625,-0.19856885075569,0.32184913754463
34,1390055662,-115.28265380859375,-89.74207305908203,-28.82386589050293,9.77813148498535,-0.07427481561899,-0.11805171519518,1.41861045360565,-0.30427244305611,0.28778427839279
35,1390072329,-117.66518402099609,-89.73385620117188,-26.44173812866211,9.78535461425781,-0.08777909725904,-0.10395274311304,1.05165743827820,-0.49054083228111,0.33611547946930
36,1390088996,-119.01324462890625,-89.73020935058594,-25.10177803039551,9.84034919738770,-0.09140072017908,-0.05414720624685,0.63486194610596,-0.02838527224958,0.16375479102135
37,1390105663,-119.40532684326172,-89.73385620117188,-24.70811271667480,9.83785724639893,-0.10972628742456,-0.14239588379860,0.87617200613022,0.38930022716522,0.06989706307650
38,1390122330,-119.60469055175781,-89.73533630371094,-24.49801445007324,9.78306484222412,-0.07845553755760,-0.11615569889545,1.59531271457672,0.45438206195831,0.08224238455296
39,1390138997,-119.82032775878906,-89.74056243896484,-24.26830863952637,9.75324249267578,-0.10107158124447,-0.11728683859110,1.58379971981049,0.43067753314972,0.11455279588699
40,1390155664,-120.24388122558594,-89.74283599853516,-23.84017753601074,9.75059509277344,-0.02380795590580,-0.09569130092859,1.16519856452942,0.38118100166321,0.07312425971031
41,1390172331,-120.73284149169922,-89.74666595458984,-23.34386634826660,9.77528095245361,-0.12572138011456,-0.17043805122375,1.25636672973633,0.31188580393791,0.15390668809414
42,1390188998,-121.31632995605469,-89.74743652343750,-22.74340248107910,9.80196189880371,-0.02973046153784,-0.13390563428402,1.84396076202393,0.25460302829742,0.18479561805725
43,1390205665,-119.83651733398438,-89.75451660156250,-24.22060394287109,9.82398986816406,-0.07914935052395,-0.15002873539925,0.81696832180023,1.00004792213440,0.23285788297653
44,1390222332,-116.86075592041016,-89.76676940917969,-27.16947555541992,9.84866333007812,-0.08866064250469,-0.16704742610455,2.06571531295776,1.48936557769775,0.24013184010983
45,1390238999,-113.15625762939453,-89.77883148193359,-30.84836196899414,9.82694339752197,-0.08743862062693,-0.14750032126904,2.02091884613037,1.69383180141449,0.17289851605892
46,1390255666,-108.58509063720703,-89.79064178466797,-35.39755630493164,9.77801227569580,-0.01888657547534,-0.06279758363962,1.68887591362000,1.85109400749207,0.23225596547127
47,1390272333,-103.66507720947266,-89.80217742919922,-40.30941009521484,9.75152778625488,-0.08642568439245,-0.10009962320328,0.78009873628616,1.86859977245331,0.23440742492676
48,1390289000,-98.21752166748047,-89.81026458740234,-45.74524307250977,9.77676010131836,-0.06175601109862,-0.08111448585987,1.11297428607941,1.94183969497681,0.23366467654705
49,1390305667,-91.73349761962891,-89.81233215332031,-52.20913314819336,9.80165290832520,-0.07350785285234,-0.05752187222242,1.77949345111847,2.15792107582092,0.34164780378342
50,1390322334,-85.86316680908203,-89.81129455566406,-58.06534957885742,9.78956508636475,-0.07696476578712,-0.05962911248207,1.47951769828796,1.99064481258392,0.33493727445602
51,1390339001,-79.97468566894531,-89.80922698974609,-63.95391845703125,9.77556324005127,-0.05622993409634,-0.04561707749963,0.67941528558731,2.00593543052673,0.19956134259701
52,1390355668,-75.48885345458984,-89.80217742919922,-68.44728851318359,9.79025745391846,-0.07078534364700,-0.02285571023822,0.65731149911880,1.65465712547302,0.23807004094124
53,1390372335,-71.93205261230469,-89.80119323730469,-72.00321197509766,9.76237773895264,-0.06466879695654,-0.03889741003513,0.73580163717270,1.40708482265472,0.19370883703232
54,1390389002,-69.35438537597656,-89.79537200927734,-74.57855987548828,9.76113319396973,-0.05272565782070,-0.01818556152284,1.20967519283295,1.18031013011932,0.30763417482376
55,1390405669,-67.69484710693359,-89.78878784179688,-76.23184204101562,9.77715110778809,-0.05581489950418,0.00299776811153,1.21113479137421,0.95158857107162,0.38271778821945
56,1390422336,-67.15390014648438,-89.78330230712891,-76.78685760498047,9.79616641998291,-0.07069458812475,-0.01046864315867,0.39432030916214,0.62621766328812,0.39868727326393
57,1390439003,-67.37031555175781,-89.78060150146484,-76.57336425781250,9.79228496551514,-0.06133910641074,-0.01394363213331,0.47885501384735,0.44048717617989,0.52581590414047
58,1390455670,-68.23738861083984,-89.77619171142578,-75.70460510253906,9.76745891571045,-0.08387980610132,-0.02308725193143,1.16159999370575,0.21277751028538,0.49112352728844
59,1390472337,-69.22713470458984,-89.77445220947266,-74.71164703369141,9.76310729980469,-0.05768020451069,-0.05645463988185,1.03427922725677,0.19592435657978,0.55647432804108
60,1390489004,-70.38069915771484,-89.77015686035156,-73.56306457519531,9.77702713012695,-0.05472081154585,-0.06284099072218,0.69187587499619,0.11710125952959,0.49493980407715
61,1390505671,-70.77029418945312,-89.76930236816406,-73.17913055419922,9.81024074554443,-0.09082122892141,-0.08680151402950,0.27590000629425,0.35960227251053,0.49490135908127
62,1390522338,-70.59377288818359,-89.76761627197266,-73.36141204833984,9.78117084503174,-0.10359884798527,-0.08854308724403,0.44906738400459,0.49506780505180,0.36749097704887
63,1390539005,-70.25347900390625,-89.76015472412109,-73.70540618896484,9.79445171356201,-0.06362397968769,-0.06134250387549,0.91530829668045,0.61464077234268,0.55215859413147
64,1390555672,-70.14675903320312,-89.75292205810547,-73.81248474121094,9.77844333648682,-0.07005456835032,-0.04563210904598,0.99185168743134,0.55263239145279,0.59248572587967
65,1390572339,-70.45339202880859,-89.74666595458984,-73.49872589111328,9.77515983581543,-0.07519589364529,-0.07302159070969,1.33086156845093,0.42195644974709,0.62090307474136
66,1390589006,-70.97767639160156,-89.73905944824219,-72.96244812011719,9.75293254852295,-0.08408658951521,-0.06476054340601,1.71245229244232,0.37782570719719,0.73090958595276
67,1390605673,-72.10649108886719,-89.73606872558594,-71.82012939453125,9.76652717590332,-0.06896097958088,-0.05139697715640,1.55716252326965,0.13258413970470,0.65052419900894
68,1390622340,-73.07541656494141,-89.73166656494141,-70.84786224365234,9.78086185455322,-0.07473522424698,-0.06470018625259,1.04634284973145,0.16827543079853,0.60831439495087
69,1390639007,-73.93456268310547,-89.72732543945312,-69.98242187500000,9.78041076660156,-0.10188219696283,-0.02898325398564,1.26419162750244,0.19419549405575,0.59105151891708
70,1390655674,-74.78570556640625,-89.72234344482422,-69.12864685058594,9.78706550598145,-0.08308119326830,-0.03266841545701,1.09706878662109,0.19378568232059,0.60119408369064
71,1390672341,-75.72972869873047,-89.71675872802734,-68.18258666992188,9.79591655731201,-0.07227572798729,-0.03557968512177,1.03358769416809,0.17224538326263,0.67466408014297
72,1390689008,-76.75189971923828,-89.71332550048828,-67.16257476806641,9.79495334625244,-0.08234565705061,-0.04860651493073,0.67977386713028,0.10909728705883,0.56386357545853
73,1390705675,-77.82537841796875,-89.71265411376953,-66.09185028076172,9.75684452056885,-0.10167515277863,-0.10140693187714,0.64371114969254,0.07466101646423,0.52348512411118
74,1390722342,-79.10709381103516,-89.70658874511719,-64.81204223632812,9.76968860626221,-0.09259386360645,-0.10519880801439,0.97516512870789,-0.00525700626895,0.53848135471344
75,1390739009,-81.10083007812500,-89.70591735839844,-62.81307220458984,9.77511882781982,-0.06476465612650,-0.07317920774221,1.08970499038696,-0.27810907363892,0.50381463766098
76,1390755676,-82.90818023681641,-89.70130157470703,-60.99999618530273,9.79155063629150,-0.09816650301218,-0.07190269231796,1.41347527503967,-0.21026104688644,0.57227730751038
77,1390772343,-84.50536346435547,-89.69869232177734,-59.38935470581055,9.80710887908936,-0.08241180330515,-0.07615097612143,1.70522964000702,-0.15728119015694,0.48072478175163
78,1390789010,-85.40116119384766,-89.69545745849609,-58.48906707763672,9.83681297302246,-0.10930707305670,-0.05514250695705,1.12073469161987,0.10347530245781,0.54677987098694
79,1390805677,-85.96410369873047,-89.69162750244141,-57.91815567016602,9.78138828277588,-0.08772567659616,-0.04010532051325,1.36839687824249,0.21582540869713,0.50523614883423
80,1390822344,-86.30371093750000,-89.69099426269531,-57.57849502563477,9.75367736816406,-0.09647318720818,-0.10130239278078,0.71563160419464,0.29326540231705,0.40496236085892
81,1390839011,-86.87712860107422,-89.68846893310547,-57.00711059570312,9.77603435516357,-0.09375463426113,-0.09402883052826,0.89307636022568,0.20303186774254,0.38465151190758
82,1390855678,-87.33174133300781,-89.68596649169922,-56.54587173461914,9.77245330810547,-0.11813373863697,-0.11954868584871,1.32100057601929,0.24501107633114,0.40693455934525
83,1390872345,-88.26632690429688,-89.68534088134766,-55.59961318969727,9.77292346954346,-0.09633518755436,-0.06701196730137,1.61972153186798,0.05637354776263,0.31456238031387
84,1390889012,-89.27033996582031,-89.68659210205078,-54.58982086181641,9.75776004791260,-0.09820612519979,-0.06178618222475,1.17618644237518,0.03207990899682,0.25715154409409
85,1390905679,-90.48284912109375,-89.68972778320312,-53.36884307861328,9.78584861755371,-0.09085160493851,-0.05942929908633,1.23527491092682,-0.04507194831967,0.21562051773071
86,1390922346,-92.17509460449219,-89.68846893310547,-51.67612457275391,9.81758880615234,-0.10959340631962,-0.03623629733920,1.08344280719757,-0.21827781200409,0.21261100471020
87,1390939013,-93.67155456542969,-89.69289398193359,-50.17620086669922,9.79579734802246,-0.07775969058275,-0.05652380362153,0.97314167022705,-0.13314121961594,0.07852853089571
88,1390955680,-95.34391784667969,-89.69804382324219,-48.49774551391602,9.77933311462402,-0.09395948797464,-0.08723660558462,1.23736226558685,-0.18705594539642,0.04365684837103
89,1390972347,-97.18096923828125,-89.70195770263672,-46.65066528320312,9.78087711334229,-0.09700642526150,-0.11298210173845,1.36550259590149,-0.23164765536785,0.00649281963706
90,1390989014,-99.35095214843750,-89.70591735839844,-44.46749114990234,9.77777004241943,-0.11333249509335,-0.13220289349556,1.68019330501556,-0.34326779842377,0.01847956329584
91,1391005681,-101.48888397216797,-89.70926666259766,-42.31866073608398,9.78109359741211,-0.05825810506940,-0.09553505480289,1.49190139770508,-0.31386443972588,0.00092205719557
92,1391022348,-103.71438598632812,-89.71128845214844,-40.09053421020508,9.78752517700195,-0.08959191292524,-0.08781304955482,1.14833259582520,-0.32800266146660,-0.01993308216333
93,1391039015,-105.49533843994141,-89.71128845214844,-38.30982589721680,9.79755020141602,-0.07935607433319,-0.09709382057190,1.09171581268311,-0.16055962443352,0.00431574042886
94,1391055682,-107.36645507812500,-89.71538543701172,-36.42954635620117,9.78329277038574,-0.09781823307276,-0.08662818372250,1.35993194580078,-0.17293055355549,-0.04047447070479
95,1391072349,-109.16538238525391,-89.71745300292969,-34.63219070434570,9.78231620788574,-0.08390794694424,-0.11468768864870,0.94161254167557,-0.12876144051552,-0.05497125908732
96,1391089016,-111.27461242675781,-89.71884918212891,-32.51977920532227,9.76267242431641,-0.07505811750889,-0.12110990285873,1.11424207687378,-0.25231710076332,-0.00638396525756
97,1391105683,-113.35646820068359,-89.72093200683594,-30.43281745910645,9.79901027679443,-0.08996453881264,-0.12660330533981,1.12727892398834,-0.24911551177502,0.01727576553822
98,1391122350,-114.54525756835938,-89.72375488281250,-29.23422050476074,9.79110527038574,-0.06909797340631,-0.11777744442225,1.34658765792847,0.06319933384657,0.07014037668705
99,1391139017,-115.78618621826172,-89.72234344482422,-27.98664093017578,9.78108882904053,-0.08321205526590,-0.11324439197779,1.52250838279724,0.06154731661081,0.03884165361524
100,1391155684,-116.67208862304688,-89.72589111328125,-27.09626579284668,9.80059719085693,-0.06194366514683,-0.14383052289486,1.06128776073456,0.20637431740761,0.03245129063725
101,1391172351,-117.41846466064453,-89.72804260253906,-26.34409332275391,9.79159736633301,-0.08773230016232,-0.12480982393026,1.18983793258667,0.22361165285110,0.10919973999262
102,1391189018,-117.84733581542969,-89.73093414306641,-25.89939880371094,9.77357006072998,-0.05105099827051,-0.09928286820650,1.76663601398468,0.31819939613342,0.15650640428066
103,1391205685,-118.07648468017578,-89.73093414306641,-25.66988372802734,9.77471351623535,-0.05805261433125,-0.10819707065821,1.01116371154785,0.40004473924637,0.15938781201839
104,1391222352,-118.02626800537109,-89.73533630371094,-25.72134017944336,9.81193447113037,-0.06629269570112,-0.11592189967632,0.71438938379288,0.51384198665619,0.14755475521088
105,1391239019,-118.15250396728516,-89.73756408691406,-25.58526992797852,9.77565479278564,-0.09859493374825,-0.11943590641022,1.36803829669952,0.43586415052414,0.16080933809280
106,1391255686,-118.81233215332031,-89.73681640625000,-24.91284179687500,9.75152111053467,-0.05174292996526,-0.09156458824873,1.65207064151764,0.19133970141411,0.24142533540726
107,1391272353,-119.59175109863281,-89.73312377929688,-24.13496208190918,9.76610851287842,-0.06034009158611,-0.10590978711843,0.96836501359940,0.16042514145374,0.22231821715832
108,1391289020,-120.20150756835938,-89.73385620117188,-23.52343368530273,9.78842735290527,-0.07166764140129,-0.10053187608719,0.89614987373352,0.20369778573513,0.25556349754333
109,1391305687,-120.24146270751953,-89.73681640625000,-23.48747825622559,9.78880214691162,-0.07060506194830,-0.12678727507591,0.54370635747910,0.44548165798187,0.22112725675106
110,1391322354,-120.09497070312500,-89.73606872558594,-23.63236808776855,9.79371356964111,-0.06998814642429,-0.11854498088360,1.01387846469879,0.49499097466469,0.25341203808784
111,1391339021,-119.85626983642578,-89.74056243896484,-23.87635803222656,9.78518581390381,-0.05947947874665,-0.14587707817554,0.49765473604202,0.57915431261063,0.17106719315052
112,1391355688,-119.15392303466797,-89.74512481689453,-24.57841110229492,9.78422927856445,-0.08998005092144,-0.14306434988976,0.70688486099243,0.71514493227005,0.22814510762691
113,1391372355,-117.94097900390625,-89.74899291992188,-25.79123497009277,9.77630710601807,-0.07386182993650,-0.11350560188293,0.80759400129318,0.88088470697403,0.25354006886482
114,1391389022,-116.56432342529297,-89.75691986083984,-27.16259193420410,9.79074954986572,-0.06119694560766,-0.10182203352451,0.86342966556549,0.94754177331924,0.20825684070587
115,1391405689,-115.80033874511719,-89.75852966308594,-27.92336845397949,9.77577781677246,-0.07123877108097,-0.07768900692463,1.03016841411591,0.68000435829163,0.29425153136253
116,1391422356,-115.26605224609375,-89.76097106933594,-28.44995307922363,9.76465511322021,-0.05701159313321,-0.09063591063023,1.15695130825043,0.57354515790939,0.34318456053734
117,1391439023,-115.23089599609375,-89.75852966308594,-28.48502731323242,9.77487277984619,-0.07728031277657,-0.06601168215275,0.96338337659836,0.39656141400337,0.35896196961403
118,1391455690,-115.68589019775391,-89.75611114501953,-28.03600120544434,9.77649593353271,-0.06235092878342,-0.10032311081886,0.62192755937576,0.27971631288528,0.25491040945053
119,1391472357,-116.00485229492188,-89.75691986083984,-27.71587181091309,9.78137302398682,-0.06445406377316,-0.10373828560114,0.73047411441803,0.29354712367058,0.31775113940239
120,1391489024,-116.61431884765625,-89.75611114501953,-27.10381889343262,9.78576946258545,-0.07491286098957,-0.10967238247395,1.05041527748108,0.20985764265060,0.27776968479156
121,1391505691,-117.08463287353516,-89.75292205810547,-26.63778114318848,9.79253387451172,-0.07666969299316,-0.12302200496197,0.75526720285416,0.25172159075737,0.29298365116119
122,1391522358,-117.57046508789062,-89.75292205810547,-26.14778137207031,9.78423976898193,-0.07192745804787,-0.13857632875443,1.03863334655762,0.22096075117588,0.33416891098022
123,1391539025,-118.08502197265625,-89.74977111816406,-25.62783241271973,9.78475666046143,-0.07662882655859,-0.10301414877176,1.28813946247101,0.22032043337822,0.30933737754822
124,1391555692,-118.28244781494141,-89.74743652343750,-25.42309188842773,9.76564311981201,-0.06462593376637,-0.12190678715706,1.33397340774536,0.30214023590088,0.36700436472893
125,1391572359,-118.25590515136719,-89.74821472167969,-25.44696807861328,9.76754951477051,-0.08609466999769,-0.11321169137955,0.89996623992920,0.42043241858482,0.30453497171402
126,1391589026,-118.18040466308594,-89.74359893798828,-25.51862144470215,9.78947162628174,-0.08805033564568,-0.15884938836098,1.23650443553925,0.35323756933212,0.45912042260170
127,1391605693,-118.22702789306641,-89.74207305908203,-25.46097946166992,9.79211807250977,-0.08957485109568,-0.10708796232939,1.43714141845703,0.34569460153580,0.38661089539528
128,1391622360,-118.51094055175781,-89.73905944824219,-25.17275428771973,9.76494979858398,-0.06217006593943,-0.11825820803642,1.23154830932617,0.28280261158943,0.34150695800781
129,1391639027,-119.20943450927734,-89.73830413818359,-24.47209167480469,9.77131748199463,-0.03908680006862,-0.08904757350683,0.89663660526276,0.13732248544693,0.32451289892197
130,1391655694,-119.43752288818359,-89.73606872558594,-24.24282264709473,9.83436107635498,-0.10054073482752,-0.09157928824425,0.93176436424255,0.29530161619186,0.35336560010910
131,1391672361,-119.12023162841797,-89.73459625244141,-24.55266761779785,9.79409122467041,-0.08193328976631,-0.08950908482075,1.30088174343109,0.46097737550735,0.42546534538269
132,1391689028,-118.90587615966797,-89.73020935058594,-24.75774002075195,9.77237606048584,-0.06324806809425,-0.11552129685879,1.52166342735291,0.41017460823059,0.44613483548164
133,1391705695,-118.96900177001953,-89.72804260253906,-24.69432067871094,9.79542636871338,-0.05356309935451,-0.11447263509035,0.84178704023361,0.34296685457230,0.38303792476654
134,1391722362,-119.07797241210938,-89.72446441650391,-24.58244514465332,9.81535911560059,-0.07349310815334,-0.11583190411329,1.04200148582458,0.26585984230042,0.48733282089233
135,1391739029,-119.04380798339844,-89.72023773193359,-24.60578155517578,9.75594329833984,-0.07853227108717,-0.09491728991270,1.53379094600677,0.31878843903542,0.48452824354172
136,1391755696,-118.72002410888672,-89.71745300292969,-24.92550468444824,9.78116607666016,-0.05304069817066,-0.10553152114153,1.06771647930145,0.43777221441269,0.48484843969345
137,1391772363,-118.31073760986328,-89.71332550048828,-25.32924461364746,9.79825496673584,-0.08919402956963,-0.12068901211023,1.24567365646362,0.45240995287895,0.52335709333420
138,1391789030,-117.83634948730469,-89.70859527587891,-25.80026817321777,9.76543712615967,-0.11158358305693,-0.14779250323772,1.14117383956909,0.49529838562012,0.49865365028381
139,1391805697,-117.52757263183594,-89.70859527587891,-26.10031318664551,9.75678730010986,-0.07367811352015,-0.12541240453720,1.28109598159790,0.47936734557152,0.40293896198273
140,1391822364,-117.25317382812500,-89.70658874511719,-26.37272262573242,9.78880786895752,-0.06608620285988,-0.15428532660007,0.98161941766739,0.44873446226120,0.44128113985062
141,1391839031,-116.73898315429688,-89.70658874511719,-26.88277435302734,9.79659366607666,-0.10036668181419,-0.10155053436756,1.06833124160767,0.57208526134491,0.39077296853065
142,1391855698,-116.27069091796875,-89.70591735839844,-27.33915519714355,9.76760387420654,-0.08129383623600,-0.12941455841064,1.53289449214935,0.54278433322906,0.40599972009659
143,1391872365,-116.32857513427734,-89.70392608642578,-27.27981567382812,9.76269531250000,-0.06172178313136,-0.09839766472578,0.97982662916183,0.38234636187553,0.31307682394981
144,1391889032,-116.77645874023438,-89.70130157470703,-26.83631896972656,9.80270576477051,-0.06297343224287,-0.07058360427618,0.57421112060547,0.18868876993656,0.39275792241096
145,1391905699,-117.57962036132812,-89.69934082031250,-26.03756904602051,9.78761482238770,-0.09834927320480,-0.07952769845724,0.67146259546280,0.10451262444258,0.26628243923187
146,1391922366,-118.86889648437500,-89.69417572021484,-24.74537849426270,9.75766086578369,-0.09163217246532,-0.09426246583462,1.06351613998413,-0.14703610539436,0.34362000226974
147,1391939033,-120.59722137451172,-89.68659210205078,-23.02386283874512,9.76177978515625,-0.06188953667879,-0.10532318800688,0.65001189708710,-0.34886416792870,0.33985489606857
148,1391955700,-122.66682434082031,-89.67494964599609,-20.96022605895996,9.77479934692383,-0.11437066644430,-0.14423245191574,0.69364309310913,-0.55619895458221,0.37326669692993
149,1391972367,-124.59157562255859,-89.66486358642578,-19.03507232666016,9.79503345489502,-0.08607742190361,-0.11766853928566,1.06315755844116,-0.51460397243500,0.33529588580132
150,1391989034,-126.42248535156250,-89.65565490722656,-17.19888687133789,9.78172779083252,-0.09025973081589,-0.13445635139942,1.23760569095612,-0.49215444922447,0.30255004763603
151,1392005701,-128.09890747070312,-89.64228057861328,-15.52221298217773,9.78705596923828,-0.07445024698973,-0.13045988976955,1.14012384414673,-0.51501375436783,0.38235923647881
152,1392022368,-129.49209594726562,-89.63362884521484,-14.12757492065430,9.79479408264160,-0.07808676362038,-0.16920903325081,1.00410735607147,-0.39071536064148,0.36307278275490
153,1392039035,-130.72825622558594,-89.62413787841797,-12.88712215423584,9.77496623992920,-0.07652281969786,-0.12820398807526,1.29595148563385,-0.27687966823578,0.29119077324867
154,1392055702,-132.12036132812500,-89.61184692382812,-11.48776054382324,9.76630973815918,-0.07570496946573,-0.13744761049747,1.45932185649872,-0.44927874207497,0.34789726138115
155,1392072369,-133.62280273437500,-89.60140228271484,-9.99154663085938,9.78420257568359,-0.07210706919432,-0.12092229723930,0.52740395069122,-0.49987661838531,0.29555776715279
156,1392089036,-134.95431518554688,-89.59410858154297,-8.66490554809570,9.81545925140381,-0.11239331215620,-0.12818540632725,0.66033381223679,-0.31199470162392,0.17177155613899
157,1392105703,-135.85513305664062,-89.58930969238281,-7.76554203033447,9.80342102050781,-0.07027460634708,-0.16440024971962,0.82340985536575,-0.08971487730742,0.20765495300293
158,1392122370,-136.69761657714844,-89.58457183837891,-6.93272304534912,9.78804397583008,-0.07087681442499,-0.16158048808575,0.27563109993935,-0.03993659839034,0.19245383143425
159,1392139037,-137.25863647460938,-89.58269500732422,-6.37892198562622,9.79246711730957,-0.09641827642918,-0.16823576390743,0.43118977546692,0.12917764484882,0.20533701777458
160,1392155704,-137.62834167480469,-89.58036041259766,-6.00216197967529,9.78750419616699,-0.08649674057961,-0.15145464241505,1.30547916889191,0.19930522143841,0.25286135077477
161,1392172371,-137.86782836914062,-89.57849121093750,-5.75694656372070,9.77512836456299,-0.06969932466745,-0.14631192386150,1.20656323432922,0.26139041781425,0.27860215306282
162,1392189038,-138.17756652832031,-89.57525634765625,-5.44488620758057,9.76851654052734,-0.09266410768032,-0.18128089606762,1.07330024242401,0.23842865228653,0.25624227523804
163,1392205705,-138.71109008789062,-89.57341766357422,-4.90806150436401,9.80640888214111,-0.08240989595652,-0.16683290898800,1.04511332511902,0.15745405852795,0.18049268424511
164,1392222372,-139.12098693847656,-89.57204437255859,-4.49051713943481,9.77963066101074,-0.08937957882881,-0.16631676256657,1.32750618457794,0.21414777636528,0.20470950007439
165,1392239039,-139.65048217773438,-89.56931304931641,-3.94341874122620,9.75184535980225,-0.09161981195211,-0.13921627402306,1.92744529247284,0.11365634948015,0.20698902010918
166,1392255706,-139.94506835937500,-89.56885528564453,-3.63711977005005,9.79995250701904,-0.06170315295458,-0.13765765726566,1.56462860107422,0.27508038282394,0.22025638818741
167,1392272373,-140.19534301757812,-89.56840515136719,-3.37798023223877,9.79264068603516,-0.09176084399223,-0.19887566566467,1.38819551467896,0.31658577919006,0.21477529406548
168,1392289040,-140.43196105957031,-89.57158660888672,-3.14091372489929,9.79794788360596,-0.09683976322412,-0.15144595503807,0.88484191894531,0.47234937548637,0.10017126053572
169,1392305707,-140.51364135742188,-89.57572174072266,-3.06313180923462,9.78124427795410,-0.08935448527336,-0.16253963112831,0.65080589056015,0.63063585758209,0.07149784266949
170,1392322374,-140.43696594238281,-89.58457183837891,-3.13298058509827,9.78105354309082,-0.08130372315645,-0.15440805256367,1.14568161964417,0.75794374942780,0.05849940329790
171,1392339041,-140.46766662597656,-89.59074401855469,-3.09341716766357,9.76323509216309,-0.07273901998997,-0.15300302207470,1.37961530685425,0.67787843942642,0.05601497739553
172,1392355708,-140.56150817871094,-89.59506988525391,-2.99240422248840,9.77167320251465,-0.08711498975754,-0.16084355115891,1.26529300212860,0.59010374546051,0.09344793111086
173,1392372375,-140.90887451171875,-89.59603881835938,-2.63869690895081,9.79919147491455,-0.08102775365114,-0.14171147346497,1.28793454170227,0.37285685539246,0.12182680517435
174,1392389042,-141.49870300292969,-89.59603881835938,-2.03811192512512,9.79720497131348,-0.10250136256218,-0.12412061542273,1.49717760086060,0.18994377553463,0.12406791746616
175,1392405709,-142.36408996582031,-89.59555053710938,-1.16336250305176,9.78747558593750,-0.06259270012379,-0.09206705540419,1.40853202342987,0.11810015141964,0.01717331260443
176,1392422376,-143.25640869140625,-89.59122467041016,-0.26695314049721,9.78766059875488,-0.04074945673347,-0.13075083494186,1.19129788875580,0.02474186941981,0.07201010733843
177,1392439043,-144.04966735839844,-89.58599090576172,0.52316188812256,9.80282402038574,-0.08648341149092,-0.14915271103382,0.74672549962997,-0.00078759045573,0.14501909911633
178,1392455710,-144.80957031250000,-89.58269500732422,1.28871703147888,9.79401016235352,-0.09007127583027,-0.13997918367386,1.23117697238922,0.01658422313631,0.13906417787075
179,1392472377,-145.55902099609375,-89.57756805419922,2.05160403251648,9.77143287658691,-0.07915136218071,-0.16537968814373,1.66850113868713,-0.06513950973749,0.18801003694534
180,1392489044,-146.52577209472656,-89.56976318359375,3.02514195442200,9.74419879913330,-0.05485704168677,-0.16789476573467,1.38909196853638,-0.18802924454212,0.13755300641060
181,1392505711,-147.66712951660156,-89.56076049804688,4.16655015945435,9.75959110260010,-0.06267436593771,-0.12164583057165,0.87614637613297,-0.30890834331512,0.09900588542223
182,1392522378,-148.77398681640625,-89.55413055419922,5.26895523071289,9.78691673278809,-0.09369305521250,-0.12556064128876,0.62995707988739,-0.15649999678135,0.00655685085803
183,1392539045,-149.56326293945312,-89.55020141601562,6.06366014480591,9.80130100250244,-0.09856287389994,-0.15605913102627,1.11960780620575,0.03991739079356,0.05775663256645
184,1392555712,-150.30148315429688,-89.54932403564453,6.81102848052979,9.78715229034424,-0.07546073198318,-0.18474110960960,1.42401492595673,0.15216505527496,0.01260144729167
185,1392572379,-151.03181457519531,-89.54846191406250,7.54439163208008,9.79104042053223,-0.07189936190844,-0.15501065552235,1.12411582469940,0.15956711769104,0.01411259826273
186,1392589046,-151.97946166992188,-89.54243469238281,8.49426460266113,9.78464794158936,-0.08374870568514,-0.15039964020252,1.10716009140015,-0.07012116163969,0.00998895335943
187,1392605713,-152.85195922851562,-89.53606414794922,9.36871814727783,9.76810646057129,-0.06798313558102,-0.13491897284985,0.98484671115875,-0.10692661255598,0.06177782639861
188,1392622380,-154.02140808105469,-89.52729034423828,10.54082489013672,9.78449344635010,-0.05750060826540,-0.10523206740618,0.92253100872040,-0.27078387141228,-0.04353518784046
189,1392639047,-154.85858154296875,-89.52153015136719,11.37884044647217,9.79074764251709,-0.05182639509439,-0.16083277761936,0.81525224447250,-0.07702378928661,0.04291407763958
190,1392655714,-155.75328063964844,-89.51665496826172,12.26957988739014,9.77322006225586,-0.06930331885815,-0.18865923583508,0.63634741306305,-0.07363010197878,-0.00263170478866
191,1392672381,-156.78964233398438,-89.50981140136719,13.30725574493408,9.77648544311523,-0.08343059569597,-0.18060278892517,0.98701089620590,-0.22094152867794,-0.03770829737186
192,1392689048,-157.95765686035156,-89.50071716308594,14.48071670532227,9.76807117462158,-0.05267727375031,-0.15264205634594,1.27612709999084,-0.21466642618179,-0.13818691670895
193,1392705715,-159.22976684570312,-89.49102020263672,15.74812126159668,9.77694320678711,-0.03804369270802,-0.15591190755367,0.68001723289490,-0.38985729217529,-0.14822708070278
194,1392722382,-160.69810485839844,-89.47772979736328,17.20290374755859,9.80961418151855,-0.09524526447058,-0.13999068737030,0.15563558042049,-0.60114926099777,-0.21464081108570
195,1392739049,-162.20036315917969,-89.46405029296875,18.69773674011230,9.78350353240967,-0.06127841398120,-0.13015653192997,0.54220801591873,-0.59808850288391,-0.28398722410202
196,1392755716,-163.48587036132812,-89.45070648193359,19.96155929565430,9.77739334106445,-0.01707996614277,-0.17302048206329,-0.16460640728474,-0.52858847379684,-0.20392191410065
197,1392772383,-165.05776977539062,-89.44047546386719,21.50084877014160,9.79959487915039,-0.01777806133032,-0.12670800089836,-1.08087515830994,-0.45669361948967,-0.43065837025642
198,1392789050,-166.58641052246094,-89.42665863037109,22.99927330017090,9.78195953369141,-0.14093171060085,-0.15779389441013,-0.93054133653641,-0.55824798345566,-0.41630238294601
199,1392805717,-168.19091796875000,-89.41050720214844,24.57174491882324,9.76389598846436,-0.01877539232373,-0.14782388508320,-1.01986563205719,-0.75317347049713,-0.46729725599289
200,1392822384,-169.70483398437500,-89.39122772216797,26.05462074279785,9.78765296936035,-0.08936663717031,-0.18856377899647,-1.11044502258301,-0.81287670135498,-0.44848480820656
201,1392839051,-170.97702026367188,-89.37068176269531,27.30702400207520,9.76965427398682,-0.08243874460459,-0.23912434279919,-0.35919892787933,-0.86458873748779,-0.34048885107040
202,1392855718,-172.16714477539062,-89.35048675537109,28.47749137878418,9.76553821563721,-0.02731362171471,-0.25440737605095,-0.28790596127510,-0.85465091466904,-0.33567363023758
203,1392872385,-173.16334533691406,-89.32769775390625,29.46551132202148,9.75167560577393,-0.01602976024151,-0.21310992538929,0.31260302662849,-0.98197174072266,-0.23401685059071
204,1392889052,-173.99153137207031,-89.30422973632812,30.27321624755859,9.79168796539307,-0.07166138291359,-0.23654915392399,-0.32044687867165,-0.99783867597580,-0.14502552151680
205,1392905719,-174.51359558105469,-89.28400421142578,30.79517936706543,9.77798748016357,-0.04215780645609,-0.20433729887009,0.84726816415787,-0.83321321010590,0.02367894165218
206,1392922386,-175.14877319335938,-89.26725006103516,31.42641448974609,9.80095195770264,-0.05495856702328,-0.25178399682045,0.65183037519455,-0.62627530097961,-0.10373783111572
207,1392939053,-175.65031433105469,-89.25402069091797,31.92122077941895,9.79319667816162,-0.01799954660237,-0.24903278052807,0.46132308244705,-0.39450600743294,-0.03179176151752
208,1392955720,-176.14222717285156,-89.24076080322266,32.41512298583984,9.77921390533447,-0.08777326345444,-0.26115250587463,1.03116738796234,-0.33519983291626,-0.05135986581445
209,1392972387,-176.57960510253906,-89.23077392578125,32.85603332519531,9.77194213867188,-0.02774634584785,-0.25061121582985,1.12127280235291,-0.22364370524883,-0.02503000944853
210,1392989054,-176.91145324707031,-89.22393798828125,33.19545364379883,9.79926967620850,-0.05125315487385,-0.24621145427227,1.23371255397797,0.01230690255761,0.03876481950283
211,1393005721,-177.18508911132812,-89.22041320800781,33.48370361328125,9.77849388122559,-0.05962440371513,-0.24603798985481,1.67377698421478,0.19388812780380,0.06834748387337
212,1393022388,-177.51737976074219,-89.21965789794922,33.83229827880859,9.77690887451172,-0.01014246139675,-0.22436217963696,1.57761418819427,0.35693857073784,0.01293441280723
213,1393039055,-177.83818054199219,-89.21915435791016,34.16255569458008,9.78593921661377,-0.05224697664380,-0.27276620268822,1.28233814239502,0.39273232221603,0.02396067976952
214,1393055722,-178.23318481445312,-89.21940612792969,34.56779098510742,9.77123165130615,-0.03316909819841,-0.25444626808167,1.70492231845856,0.41913905739784,-0.04713377356529
215,1393072389,-178.72186279296875,-89.22066497802734,35.07259750366211,9.77072715759277,-0.00993848498911,-0.20923002064228,1.46430361270905,0.47006985545158,-0.12064220756292
216,1393089056,-179.19813537597656,-89.22317504882812,35.54643249511719,9.77112007141113,-0.05329528078437,-0.21249908208847,0.68798273801804,0.55849766731262,-0.10057466477156
217,1393105723,-179.67048645019531,-89.22519683837891,36.02076339721680,9.79551887512207,-0.03749879449606,-0.22294007241726,1.01538980007172,0.54055601358414,-0.09999837726355
218,1393122390,179.96211242675781,-89.22570037841797,36.39883422851562,9.78961277008057,-0.02297391183674,-0.18955461680889,1.58794891834259,0.47843238711357,-0.01842193305492
219,1393139057,179.55685424804688,-89.22519683837891,36.80258560180664,9.76167011260986,-0.02355031855404,-0.21245424449444,1.32138490676880,0.35276371240616,-0.04806863516569
220,1393155724,179.11111450195312,-89.22241973876953,37.25129318237305,9.76727581024170,-0.01049765292555,-0.20820380747318,0.98368132114410,0.23176932334900,-0.07711342722178
221,1393172391,178.81304931640625,-89.21640777587891,37.55873870849609,9.76145648956299,-0.04009443521500,-0.23325479030609,1.38670980930328,0.06994827836752,0.03391121327877
222,1393189058,178.41563415527344,-89.20969390869141,37.95936965942383,9.76998424530029,-0.00589151633903,-0.24183082580566,1.18415188789368,0.02905760891736,-0.05337046086788
223,1393205725,178.13766479492188,-89.20377349853516,38.24412155151367,9.79537391662598,-0.01558647863567,-0.23706763982773,1.24431610107422,0.10587009042501,0.04607724398375
224,1393222392,177.83718872070312,-89.20082855224609,38.54541015625000,9.82378101348877,-0.04530011117458,-0.26587983965874,0.97182267904282,0.26250454783440,0.03332212194800
225,1393239059,177.49084472656250,-89.19814300537109,38.89307022094727,9.80926418304443,-0.02792919054627,-0.22314549982548,1.56292545795441,0.27747517824173,-0.01833228953183
226,1393255726,177.17321777343750,-89.19546508789062,39.21435165405273,9.75247383117676,-0.00377328949980,-0.19546599686146,1.19138753414154,0.26232528686523,0.01103907451034
227,1393272393,176.81291198730469,-89.19448852539062,39.57909393310547,9.78606224060059,-0.01195168495178,-0.24916151165962,0.46557483077049,0.36321365833282,-0.00867630168796
228,1393289060,176.43087768554688,-89.19473266601562,39.96369934082031,9.78575229644775,-0.06139579415321,-0.26786932349205,0.85370975732803,0.43266254663467,-0.03167650848627
229,1393305727,176.20297241210938,-89.19448852539062,40.19982147216797,9.77681255340576,0.00108507426921,-0.23329247534275,1.41219460964203,0.43058788776398,0.09256429225206
230,1393322394,175.85388183593750,-89.19424438476562,40.54685974121094,9.78562641143799,-0.01804162748158,-0.24244895577431,0.60848087072372,0.40842005610466,-0.00135106965899
231,1393339061,175.64608764648438,-89.19594573974609,40.75762939453125,9.76914405822754,-0.03251086175442,-0.23535843193531,1.13259363174438,0.51870840787888,0.12068704515696
232,1393355728,175.42544555664062,-89.19376373291016,40.96870803833008,9.77049160003662,-0.01152615994215,-0.20941990613937,1.34953308105469,0.34185272455215,0.08915781229734
233,1393372395,175.30108642578125,-89.19157409667969,41.10336685180664,9.76569271087646,-0.00075653818203,-0.23138266801834,1.20587146282196,0.24977503716946,0.17188683152199
234,1393389062,175.15206909179688,-89.18843841552734,41.26044082641602,9.78294372558594,-0.04211254417896,-0.22514566779137,1.19092655181885,0.25078675150871,0.14911715686321
235,1393405729,175.09503173828125,-89.18386840820312,41.31748580932617,9.78897857666016,-0.00083247449948,-0.19880694150925,1.10749316215515,0.15362498164177,0.22019238770008
236,1393422396,175.02438354492188,-89.18051910400391,41.39362335205078,9.80695247650146,-0.03169844299555,-0.24482543766499,1.05403935909271,0.23038622736931,0.21658097207546
237,1393439063,174.96066284179688,-89.17718505859375,41.46883773803711,9.80311584472656,-0.02838521078229,-0.23901148140430,1.26776468753815,0.22147300839424,0.21859157085419
238,1393455730,174.95968627929688,-89.17362213134766,41.49025344848633,9.78197097778320,0.00483509292826,-0.26831817626953,1.07336413860321,0.23541912436485,0.28017729520798
239,1393472397,175.07273864746094,-89.17220306396484,41.38240051269531,9.78490924835205,-0.03809142857790,-0.29560142755508,1.20007026195526,0.31819939613342,0.38340932130814
240,1393489064,175.26559448242188,-89.17102050781250,41.20822143554688,9.77667331695557,-0.03865491971374,-0.29901579022408,1.94245374202728,0.33889436721802,0.44617316126823
241,1393505731,175.35075378417969,-89.17102050781250,41.13008880615234,9.76793098449707,0.00640359288082,-0.26485279202461,1.54933774471283,0.44321486353874,0.36350819468498
242,1393522398,175.45225524902344,-89.17386627197266,41.02004623413086,9.77659702301025,-0.00432477332652,-0.24775218963623,1.46648073196411,0.57814264297485,0.38664931058884
243,1393539065,175.24522399902344,-89.18147277832031,41.23135375976562,9.81275844573975,-0.03983653709292,-0.25756677985191,0.69064646959305,0.87361073493958,0.15550749003887
244,1393555732,175.03840637207031,-89.19303131103516,41.46695327758789,9.78592777252197,-0.04827206954360,-0.24144141376019,1.86196660995483,1.04467809200287,0.15849138796329
245,1393572399,174.86091613769531,-89.20204925537109,41.66461563110352,9.75985145568848,0.00606810813770,-0.23395630717278,1.31279182434082,0.99895936250687,0.19063533842564
246,1393589066,174.67521667480469,-89.20697784423828,41.85783004760742,9.77500152587891,-0.01668202131987,-0.22239723801613,1.32689154148102,0.72325134277344,0.15908049046993
247,1393605733,174.66552734375000,-89.21018981933594,41.87214279174805,9.78777503967285,-0.01296177878976,-0.22771456837654,1.42249095439911,0.58138269186020,0.29518637061119
248,1393622400,174.67280578613281,-89.20969390869141,41.88369750976562,9.79194259643555,0.00998663436621,-0.22113768756390,1.70196390151978,0.37797942757607,0.28851425647736
249,1393639067,174.56282043457031,-89.20820617675781,41.98979568481445,9.80678749084473,-0.03460506722331,-0.19779530167580,1.17972099781036,0.35990968346596,0.19098109006882
250,1393655734,174.36050415039062,-89.20648193359375,42.19165420532227,9.79798793792725,-0.04344203695655,-0.21073116362095,1.15437722206116,0.35737401247025,0.11275991797447
251,1393672401,174.14976501464844,-89.20648193359375,42.40315246582031,9.77513122558594,-0.04430031031370,-0.22783318161964,1.31257390975952,0.37157621979713,0.10480717569590
252,1393689068,174.07926940917969,-89.20475769042969,42.48468017578125,9.75972461700439,0.00419546943158,-0.23411446809769,1.62775111198425,0.34443962574005,0.21732378005981
253,1393705735,174.08291625976562,-89.19765472412109,42.50441360473633,9.73323059082031,-0.02585735917091,-0.23942363262177,2.06316685676575,0.01513710524887,0.24170702695847
254,1393722402,174.12443542480469,-89.18771362304688,42.48789978027344,9.74143695831299,-0.00963964685798,-0.24844190478325,2.11299657821655,-0.14549936354160,0.25742045044899
255,1393739069,174.12857055664062,-89.17909240722656,42.50405883789062,9.78895282745361,-0.01437177788466,-0.24573646485806,1.73713028430939,-0.09671995788813,0.23593138158321
256,1393755736,173.93345642089844,-89.17694854736328,42.71388626098633,9.82836437225342,-0.00549624906853,-0.21384942531586,0.91491121053696,0.28390392661095,0.11206835508347
257,1393772403,173.75285339355469,-89.17528533935547,42.91046142578125,9.83593940734863,-0.05522021651268,-0.24879674613476,0.74830061197281,0.35326313972473,0.13549117743969
258,1393789070,173.74516296386719,-89.17291259765625,42.93422317504883,9.73797225952148,-0.04081008583307,-0.26621159911156,1.74065172672272,0.21613276004791,0.25523057579994
259,1393805737,173.83450317382812,-89.16490936279297,42.87466430664062,9.73843860626221,0.03965674340725,-0.25862604379654,2.19229364395142,-0.01592469587922,0.31069484353065
260,1393822404,173.86131286621094,-89.15304565429688,42.85017776489258,9.75611972808838,0.01507854275405,-0.25977200269699,1.05665183067322,-0.23660370707512,0.24691921472549
261,1393839071,173.92300415039062,-89.14385223388672,42.79193878173828,9.80401611328125,-0.04428359121084,-0.19764898717403,0.91783100366592,-0.15982964634895,0.29170301556587
262,1393855738,173.82827758789062,-89.13928985595703,42.90382003784180,9.81280708312988,-0.05001050606370,-0.22429710626602,1.47270464897156,0.17236065864563,0.17494753003120
263,1393872405,173.70260620117188,-89.13793182373047,43.04222869873047,9.77043342590332,0.01640604063869,-0.22297894954681,1.39470112323761,0.32239988446236,0.16262784600258
264,1393889072,173.49639892578125,-89.13566589355469,43.23855972290039,9.76235961914062,-0.04165194928646,-0.28260046243668,1.07476007938385,0.32854688167572,0.08923465013504
265,1393905739,173.34272766113281,-89.13182830810547,43.41153717041016,9.76765155792236,-0.02180929295719,-0.28306025266647,1.54818511009216,0.20486316084862,0.12049494683743
266,1393922406,173.20126342773438,-89.12642669677734,43.56029891967773,9.77227115631104,0.01912665925920,-0.16818651556969,1.29420971870422,0.09873695671558,0.11940640956163
267,1393939073,172.79985046386719,-89.12687683105469,43.94124221801758,9.82102203369141,0.00368695775978,-0.19545756280422,-0.08413130789995,0.49286517500877,-0.05740445852280
268,1393955740,172.46371459960938,-89.12777709960938,44.26122665405273,9.82733917236328,-0.04847548902035,-0.21480846405029,0.59324133396149,0.47526922821999,-0.01071251090616
269,1393972407,171.91871643066406,-89.13339996337891,44.79484558105469,9.81925487518311,-0.01296686194837,-0.21742530167103,0.14153577387333,0.83215659856796,-0.14544808864594
270,1393989074,171.24023437500000,-89.14157104492188,45.46330261230469,9.80459499359131,-0.03297621011734,-0.28591841459274,0.35463342070580,0.99999660253525,-0.24243059754372
271,1394005741,170.60279846191406,-89.15097045898438,46.10501480102539,9.77073383331299,-0.04198787733912,-0.32853177189827,1.19479393959045,1.08341705799103,-0.19120520353317
272,1394022408,169.92900085449219,-89.15883636474609,46.78105163574219,9.75826549530029,-0.01496002264321,-0.28032770752907,2.05038642883301,0.96325528621674,-0.24907712638378
273,1394039075,169.43061828613281,-89.16819763183594,47.30350875854492,9.75679969787598,0.02662563510239,-0.21574759483337,2.38237786293030,0.99583446979523,-0.07468022406101
274,1394055742,169.02481079101562,-89.17102050781250,47.72663879394531,9.76487827301025,-0.02193014696240,-0.25018098950386,1.64827978610992,0.70598852634430,-0.02718147821724
275,1394072409,168.86125183105469,-89.16867065429688,47.92946624755859,9.77313709259033,0.02524875104427,-0.21387784183025,2.93416523933411,0.30112850666046,0.09586831927299
276,1394089076,168.69471740722656,-89.16280364990234,48.09817504882812,9.75673007965088,0.03189363703132,-0.17253504693508,1.46823513507843,0.07795225083828,0.06646495312452
277,1394105743,168.32092285156250,-89.15396881103516,48.46802520751953,9.77977561950684,0.01405091863126,-0.20719829201698,0.58481472730637,0.02078470587730,-0.12313945591450
278,1394122410,167.71693420410156,-89.15165710449219,49.02087402343750,9.82337665557861,-0.04571108147502,-0.31205627322197,-0.43414163589478,0.38497167825699,-0.25637674331665
279,1394139077,167.18769836425781,-89.15489196777344,49.55749511718750,9.82452869415283,-0.01469649747014,-0.26051437854767,1.34660053253174,0.70737153291702,-0.13652209937572
280,1394155744,166.73689270019531,-89.15883636474609,50.01866531372070,9.77285480499268,0.00567928934470,-0.26376777887344,1.82252287864685,0.73754328489304,-0.06333379447460
281,1394172411,166.46855163574219,-89.15883636474609,50.32001113891602,9.76558971405029,0.06136664003134,-0.23302453756332,1.59485161304474,0.45057862997055,0.05095646530390
282,1394189078,166.30628967285156,-89.15142822265625,50.50392150878906,9.72883701324463,-0.01362752914429,-0.26311275362968,1.89127981662750,0.08286987245083,0.04880499094725
283,1394205745,166.27069091796875,-89.14020538330078,50.55962753295898,9.75817203521729,0.04041688516736,-0.17390252649784,2.03158617019653,-0.27935126423836,0.07539097219706
284,1394222412,166.07695007324219,-89.12710571289062,50.75983428955078,9.80965328216553,0.00906242430210,-0.17703604698181,0.81727552413940,-0.24303248524666,-0.04850404709578
285,1394239079,165.90196228027344,-89.11243438720703,50.93623352050781,9.76914501190186,-0.04372746497393,-0.22347292304039,0.85501599311829,-0.41438150405884,-0.07922648638487
286,1394255746,165.82336425781250,-89.09107971191406,51.02350234985352,9.71639060974121,0.02996768057346,-0.24974140524864,1.77631723880768,-0.77504658699036,-0.09888421744108
287,1394272413,165.73559570312500,-89.06812286376953,51.10795593261719,9.75901126861572,0.07412061840296,-0.22250542044640,0.78962677717209,-0.87063336372375,-0.11826024204493
288,1394289080,165.51771545410156,-89.05002593994141,51.31786346435547,9.83965206146240,-0.02084928937256,-0.25916773080826,0.21568453311920,-0.55654472112656,-0.16662982106209
289,1394305747,165.19732666015625,-89.03754425048828,51.65705871582031,9.84816074371338,-0.02943698689342,-0.16874358057976,1.36169922351837,-0.20000317692757,-0.20755891501904
290,1394322414,164.34535217285156,-89.02864074707031,52.51168441772461,9.81190013885498,-0.08774582296610,-0.16564634442329,0.41788399219513,0.15311270952225,-0.67367160320282
291,1394339081,163.40367126464844,-89.02182006835938,53.45098495483398,9.85596561431885,0.03614421188831,-0.16494731605053,0.45463821291924,0.32026121020317,-0.73879194259644
292,1394355748,162.42616271972656,-89.01087951660156,54.39408874511719,9.75115871429443,-0.07262629270554,-0.30848449468613,-1.23729193210602,0.03479485213757,-0.85092431306839
293,1394372415,161.87016296386719,-88.99400329589844,54.97074127197266,9.73945426940918,-0.05582550913095,-0.33344957232475,2.22516751289368,-0.35936540365219,-0.59934359788895
294,1394389082,161.43171691894531,-88.96864318847656,55.45876693725586,9.70172977447510,0.08096534758806,-0.26918023824692,3.42855453491211,-0.80469346046448,-0.65658795833588
295,1394405749,161.27517700195312,-88.93688201904297,55.66229248046875,9.68692207336426,0.12679912149906,-0.31839194893837,2.10164976119995,-1.31000638008118,-0.48762097954750
296,1394422416,161.23757934570312,-88.89997100830078,55.70240783691406,9.73735904693604,0.03372668847442,-0.31724202632904,0.97253978252411,-1.65585458278656,-0.45483669638634
297,1394439083,161.18592834472656,-88.86547851562500,55.76466369628906,9.76959419250488,0.05154427513480,-0.33001655340195,1.84631717205048,-1.48204696178436,-0.43772739171982
298,1394455750,161.25498962402344,-88.83265686035156,55.70515823364258,9.78115463256836,0.04362655803561,-0.32007619738579,1.67419981956482,-1.45291244983673,-0.26829943060875
299,1394472417,161.36729431152344,-88.80450439453125,55.61495208740234,9.79807376861572,0.08996660262346,-0.32812345027924,1.46859371662140,-1.20790123939514,-0.11577580124140
300,1394489084,161.46365356445312,-88.78147888183594,55.47441482543945,9.81510829925537,0.05189449712634,-0.32272478938103,1.31546819210052,-0.90608125925064,-0.04308696091175
301,1394505751,161.40827941894531,-88.76393890380859,55.53064727783203,9.80719184875488,0.03055878914893,-0.34918397665024,0.90328305959702,-0.51477038860321,-0.09445322304964
302,1394522418,161.46250915527344,-88.75385284423828,55.51084518432617,9.79525089263916,0.03056553751230,-0.37640988826752,2.18580055236816,-0.22310583293438,0.12922888994217
303,1394539085,161.47242736816406,-88.74353027343750,55.51696014404297,9.77826690673828,0.04955775290728,-0.37962809205055,1.67440462112427,-0.13775150477886,0.10537064820528
304,1394555752,161.45523071289062,-88.73731231689453,55.54787826538086,9.77283859252930,0.04977278038859,-0.32465252280235,1.63921272754669,0.07076788693666,0.13734808564186
305,1394572419,161.42213439941406,-88.73081970214844,55.60264968872070,9.75415802001953,0.01306878030300,-0.36213308572769,1.99070858955383,0.05780785903335,0.10310391336679
306,1394589086,161.36515808105469,-88.72236633300781,55.65997695922852,9.75880432128906,0.06322539597750,-0.28038203716278,1.80967807769775,-0.01194192003459,0.04336229711771
307,1394605753,161.36199951171875,-88.71199035644531,55.67461395263672,9.78342151641846,0.04430571198463,-0.26273509860039,1.22386443614960,-0.15149271488190,0.09247466176748
308,1394622420,161.28715515136719,-88.70305633544922,55.73344039916992,9.80248069763184,0.03945987299085,-0.29057398438454,0.64705359935760,-0.06598471105099,0.02626582235098
309,1394639087,161.28726196289062,-88.68940734863281,55.74668121337891,9.76534175872803,0.02319099381566,-0.30838197469711,1.13906073570251,-0.31926864385605,0.04215849936008
310,1394655754,161.37283325195312,-88.67043304443359,55.66680908203125,9.74867820739746,0.05750382319093,-0.23508001863956,0.94833594560623,-0.69326543807983,0.04471977427602
311,1394672421,161.38421630859375,-88.64563751220703,55.63116073608398,9.78573322296143,0.07689134776592,-0.23340456187725,0.09025914967060,-1.01018404960632,-0.15181288123131
312,1394689088,161.39605712890625,-88.61690521240234,55.59830093383789,9.76061344146729,0.02287067845464,-0.25927540659904,0.06800170987844,-1.19339168071747,-0.21051719784737
313,1394705755,161.54174804687500,-88.58348846435547,55.44047927856445,9.79458904266357,0.06514952331781,-0.27136898040771,0.05974162369967,-1.57432937622070,-0.12287052720785
314,1394722422,161.67102050781250,-88.54774475097656,55.28728485107422,9.80445671081543,0.04013931751251,-0.29315608739853,-0.91613423824310,-1.67227232456207,-0.14415466785431
315,1394739089,161.82865905761719,-88.50970458984375,55.09829330444336,9.76718330383301,0.02378913760185,-0.37050485610962,-0.29783084988594,-1.80673897266388,-0.15160797536373
316,1394755756,161.96076965332031,-88.46852111816406,54.95642089843750,9.72640323638916,0.04570395871997,-0.37836232781410,0.16152647137642,-1.98546433448792,-0.24971739947796
317,1394772423,162.14865112304688,-88.42567443847656,54.75586318969727,9.73445224761963,0.09539742022753,-0.32594707608223,0.08719842880964,-2.12632155418396,-0.18170291185379
318,1394789090,162.30313110351562,-88.38214111328125,54.60177612304688,9.77608299255371,0.04142391309142,-0.39666950702667,-0.12431764602661,-2.13307046890259,-0.21511468291283
319,1394805757,162.49169921875000,-88.34188842773438,54.39128494262695,9.76436805725098,0.04290976375341,-0.41375935077667,0.48619303107262,-1.95825088024139,-0.10983365029097
320,1394822424,162.56823730468750,-88.30395507812500,54.31303024291992,9.79860115051270,0.08188523352146,-0.38722023367882,0.39228406548500,-1.79520046710968,-0.24272513389587
321,1394839091,162.57394409179688,-88.26878356933594,54.30265045166016,9.83172798156738,0.08204847574234,-0.37707558274269,-0.57182282209396,-1.62441515922546,-0.28323164582253
322,1394855758,162.52861022949219,-88.23564147949219,54.30529403686523,9.80439281463623,0.00451378291473,-0.38534134626389,-0.42387095093727,-1.45095300674438,-0.34310132265091
323,1394872425,162.50019836425781,-88.20333099365234,54.33646392822266,9.79213619232178,0.06058867275715,-0.41153550148010,0.21792565286160,-1.42107570171356,-0.31436386704445
324,1394889092,162.48550415039062,-88.17286682128906,54.29475021362305,9.79977130889893,0.08307834714651,-0.40748876333237,-0.12949140369892,-1.30750906467438,-0.25587728619576
325,1394905759,162.50146484375000,-88.13712310791016,54.26065063476562,9.72777462005615,0.06141188368201,-0.39835625886917,-0.10047221928835,-1.63740086555481,-0.28791877627373
326,1394922426,162.48625183105469,-88.09413146972656,54.28077316284180,9.70562553405762,0.06429565697908,-0.42830482125282,0.02937776409090,-2.03587031364441,-0.47481459379196
327,1394939093,162.52890014648438,-88.04355621337891,54.20939636230469,9.73119449615479,0.08091223239899,-0.39280158281326,-0.05492002889514,-2.47624230384827,-0.49720016121864
328,1394955760,162.34550476074219,-87.99758148193359,54.36292266845703,9.82797145843506,0.08715435862541,-0.36749392747879,-1.94891536235809,-2.13066291809082,-0.80447572469711
329,1394972427,162.10972595214844,-87.95551300048828,54.56997299194336,9.80450439453125,0.02559724636376,-0.45674225687981,-1.33025336265564,-1.83879339694977,-0.87101751565933
330,1394989094,161.89938354492188,-87.91043853759766,54.75241470336914,9.77663516998291,0.03576589375734,-0.45002210140228,-1.18213486671448,-2.04830503463745,-0.90532559156418
331,1395005761,161.73226928710938,-87.86183166503906,54.89172363281250,9.75296020507812,0.08832211047411,-0.39720267057419,-0.28356462717056,-2.22728705406189,-0.92189711332321
332,1395022428,161.55865478515625,-87.80367279052734,55.02546691894531,9.73814487457275,0.09160053730011,-0.43400400876999,-0.76975768804550,-2.76283574104309,-1.11456859111786
333,1395039095,161.57089233398438,-87.73522949218750,54.96487045288086,9.71779537200928,0.10836365818977,-0.42548638582230,-0.36900854110718,-3.49917483329773,-0.93723911046982
334,1395055762,161.69076538085938,-87.65431976318359,54.82201004028320,9.73258972167969,0.10490742325783,-0.40497666597366,0.21084375679493,-4.27325487136841,-0.93164271116257
335,1395072429,161.91777038574219,-87.55799865722656,54.59273529052734,9.72610664367676,0.07179105281830,-0.40526130795479,0.42793709039688,-5.21986293792725,-0.93607389926910
336,1395089096,162.21577453613281,-87.44166564941406,54.29514312744141,9.67182350158691,0.09358130395412,-0.41690847277641,0.20154637098312,-6.46072196960449,-1.07452344894409
337,1395105763,162.64239501953125,-87.29810333251953,53.87401580810547,9.68227577209473,0.07308439910412,-0.42395150661469,0.61197721958160,-8.14806270599365,-1.16549992561340
338,1395122430,163.16001892089844,-87.12158966064453,53.35416030883789,9.62871170043945,0.15680292248726,-0.33196157217026,0.01074453163892,-10.15787887573242,-1.32446503639221
339,1395139097,163.60325622558594,-86.92165374755859,52.86270904541016,9.69643211364746,0.27512145042419,-0.18940941989422,-2.14305996894836,-11.47493553161621,-1.64338171482086
340,1395155764,163.96307373046875,-86.70652008056641,52.38459396362305,9.75005817413330,0.07173946499825,-0.37344408035278,-4.99166917800903,-12.39080047607422,-1.84170186519623
341,1395172431,164.19503784179688,-86.48291778564453,52.05264282226562,9.81350517272949,0.07495959103107,-0.55034935474396,-4.80043172836304,-12.78752613067627,-2.25975227355957
342,1395189098,164.39866638183594,-86.24923706054688,51.83193588256836,9.72835922241211,-0.01301519852132,-0.65410757064819,-2.23526620864868,-13.34456348419189,-2.55242848396301
343,1395205765,164.51872253417969,-86.00070953369141,51.64782333374023,9.68011856079102,0.12618835270405,-0.68761348724365,-2.77285218238831,-14.13114547729492,-2.98870325088501
344,1395222432,164.59927368164062,-85.73484039306641,51.50418853759766,9.65019035339355,0.12327418476343,-0.76954978704453,-3.17876267433167,-15.11131858825684,-3.32704758644104
345,1395239099,164.63667297363281,-85.44508361816406,51.39940643310547,9.58414554595947,0.13497106730938,-0.75676047801971,-3.84742212295532,-16.48302650451660,-3.79449367523193
346,1395255766,164.55416870117188,-85.14211273193359,51.38092803955078,9.65496444702148,0.18531975150108,-0.66194236278534,-5.08542633056641,-17.11240768432617,-4.45046138763428
347,1395272433,164.34664916992188,-84.83422851562500,51.47056579589844,9.71052742004395,0.11594823002815,-0.79508447647095,-6.25302171707153,-17.24129295349121,-5.10463666915894
348,1395289100,164.03294372558594,-84.52235412597656,51.64638900756836,9.75174045562744,0.22745528817177,-0.91529530286789,-7.46999931335449,-17.31115531921387,-5.74217700958252
349,1395305767,163.68748474121094,-84.20349884033203,51.85664749145508,9.69591426849365,0.12302567809820,-1.04433476924896,-7.23876762390137,-17.60843086242676,-6.21954727172852
350,1395322434,163.36192321777344,-83.87394714355469,52.04987335205078,9.63016510009766,0.28734579682350,-1.04731893539429,-7.16177606582642,-18.20330047607422,-6.46576261520386
351,1395339101,163.00714111328125,-83.53355407714844,52.26007080078125,9.67483806610107,0.27037173509598,-1.03248739242554,-7.92210435867310,-18.71490478515625,-6.92936754226685
352,1395355768,162.54083251953125,-83.18824768066406,52.54458999633789,9.73252868652344,0.35581958293915,-1.04904198646545,-10.18154525756836,-18.78430175781250,-7.72356796264648
353,1395372435,161.96603393554688,-82.84648895263672,52.90122222900391,9.93278598785400,0.29341685771942,-0.99806892871857,-12.41104888916016,-18.31588935852051,-8.42928981781006
354,1395389102,161.31504821777344,-82.50920867919922,53.32439041137695,9.78370189666748,0.20997418463230,-1.23318350315094,-13.03572940826416,-17.76521301269531,-9.14713764190674
355,1395405769,160.62316894531250,-82.17213439941406,53.77951812744141,9.73450565338135,0.30092304944992,-1.35425925254822,-13.60604953765869,-17.51407051086426,-9.73842239379883
356,1395422436,159.91293334960938,-81.83562469482422,54.25688171386719,9.64161777496338,0.28354308009148,-1.47787892818451,-13.40157032012939,-17.24327850341797,-10.27285861968994
357,1395439103,159.19425964355469,-81.49411773681641,54.70050048828125,9.61611652374268,0.50001388788223,-1.48844575881958,-15.93960762023926,-17.42785072326660,-10.47588253021240
358,1395455770,158.47311401367188,-81.14874267578125,55.14885330200195,9.60374927520752,0.41856494545937,-1.56208336353302,-15.84323883056641,-17.43252563476562,-10.96733856201172
359,1395472437,157.76103210449219,-80.80617523193359,55.62663269042969,9.67713737487793,0.36250525712967,-1.55694568157196,-13.57081890106201,-16.97801971435547,-11.53574657440186
360,1395489104,157.05204772949219,-80.47695159912109,56.12288284301758,9.66306495666504,0.46658131480217,-1.67284286022186,-12.31793212890625,-15.95617198944092,-11.76300621032715
361,1395505771,156.23468017578125,-80.16674804687500,56.69680404663086,9.73225688934326,0.37685495615005,-1.86816966533661,-14.24909687042236,-14.37507057189941,-12.39918899536133
362,1395522438,155.37840270996094,-79.86787414550781,57.35853576660156,9.64033794403076,0.39609941840172,-1.98005533218384,-11.43596839904785,-13.11439609527588,-13.32948017120361
363,1395539105,154.41685485839844,-79.58119964599609,58.06039810180664,9.55513286590576,0.67519968748093,-2.03014945983887,-15.41087913513184,-11.96825504302979,-13.80489540100098
364,1395555772,153.59770202636719,-79.31076049804688,58.72665023803711,9.49274826049805,0.66270095109940,-2.16704750061035,-9.00293350219727,-10.95755672454834,-13.39823341369629
365,1395572439,152.79667663574219,-79.05558013916016,59.39831924438477,9.46103000640869,0.85668373107910,-1.92611396312714,-7.63902807235718,-9.83407783508301,-13.35823440551758
366,1395589106,152.06472778320312,-78.81757354736328,60.06764221191406,9.56450366973877,0.82360500097275,-1.92644453048706,-3.65547966957092,-8.67307567596436,-13.14713287353516
367,1395605773,151.29846191406250,-78.59991455078125,60.73607635498047,9.71234703063965,0.94623613357544,-1.86943900585175,-5.80483531951904,-7.34627342224121,-12.81055450439453
368,1395622440,150.63140869140625,-78.39558410644531,61.41801071166992,9.73355007171631,0.34230250120163,-2.14841914176941,0.91297817230225,-6.33727169036865,-12.78752803802490
369,1395639107,150.07138061523438,-78.20167541503906,62.06752777099609,9.66374778747559,0.80910831689835,-1.85610806941986,5.40410423278809,-5.78075838088989,-12.33104324340820
370,1395655774,149.61698913574219,-78.03109741210938,62.68973922729492,9.97856807708740,0.95283591747284,-1.89789450168610,10.11058425903320,-4.56517982482910,-11.49463844299316
371,1395672441,149.16810607910156,-77.88365173339844,63.32193374633789,9.99932575225830,1.12175774574280,-1.92141616344452,11.01166439056396,-3.16165351867676,-11.02223682403564
372,1395689108,148.72045898437500,-77.74874114990234,63.87446975708008,9.71770000457764,1.75771641731262,-1.66969549655914,6.38787412643433,-2.90515375137329,-9.87653636932373
373,1395705775,148.20684814453125,-77.62265777587891,64.34143829345703,9.46844291687012,1.73713123798370,-1.66522264480591,-2.59909439086914,-2.90216922760010,-8.75586414337158
374,1395722442,147.74656677246094,-77.49964141845703,64.69411468505859,9.38750267028809,1.80469048023224,-1.79296052455902,-6.11295318603516,-3.41889309883118,-7.48027372360229
375,1395739109,147.31542968750000,-77.38114929199219,64.90814208984375,9.57511425018311,1.80480921268463,-1.79286324977875,-12.48775577545166,-4.07933139801025,-5.87678003311157
376,1395755776,146.89901733398438,-77.27613830566406,65.07398223876953,9.70991706848145,1.56186032295227,-1.82552206516266,-14.43921852111816,-3.68202686309814,-4.95469808578491
377,1395772443,146.53210449218750,-77.16670989990234,65.20047760009766,9.81965351104736,1.10596358776093,-1.84078776836395,-13.77025127410889,-4.14689826965332,-4.70740699768066
378,1395789110,146.38272094726562,-77.04014587402344,65.21441650390625,9.52250957489014,1.46342527866364,-1.56712722778320,-7.29868030548096,-5.80974912643433,-4.05617523193359
379,1395805777,146.20890808105469,-76.89015197753906,65.11605072021484,9.40171146392822,1.41106927394867,-1.54138028621674,-15.33979892730713,-7.80285835266113,-3.58472490310669
380,1395822444,146.23101806640625,-76.70631408691406,64.87108612060547,9.34226894378662,1.21927857398987,-1.61763393878937,-12.14065361022949,-10.61500644683838,-3.04184985160828
381,1395839111,146.37075805664062,-76.47354888916016,64.50242614746094,9.34018802642822,1.29776108264923,-1.45993900299072,-12.29072284698486,-14.04908847808838,-3.18110752105713
382,1395855778,146.49423217773438,-76.20827484130859,64.09209442138672,9.63327598571777,1.10576498508453,-1.62409114837646,-15.68134593963623,-16.05521392822266,-3.65199971199036
383,1395872445,146.69590759277344,-75.93183135986328,63.68700790405273,9.70754528045654,0.60336679220200,-2.06480216979980,-10.64453125000000,-16.65184402465820,-3.94812011718750
384,1395889112,146.99411010742188,-75.65233612060547,63.25442504882812,9.78804969787598,1.11764073371887,-1.95573949813843,-6.43411684036255,-17.10385513305664,-3.53533196449280
385,1395905779,147.22621154785156,-75.37792205810547,62.83047485351562,9.55016517639160,1.15781223773956,-1.97262477874756,-9.86440563201904,-16.86259651184082,-3.29662132263184
386,1395922446,147.59370422363281,-75.08010101318359,62.34628677368164,9.72623729705811,1.42238616943359,-2.27443075180054,-5.19675302505493,-18.62918472290039,-3.08644294738770
387,1395939113,147.97509765625000,-74.77434539794922,61.87520217895508,9.65968227386475,1.08635258674622,-2.15036010742188,-3.56874346733093,-19.01991653442383,-3.26150608062744
388,1395955780,148.39242553710938,-74.46370697021484,61.40009689331055,9.37815761566162,1.16196823120117,-2.36821484565735,-1.60212111473083,-19.40744018554688,-3.10342407226562
389,1395972447,148.76934814453125,-74.14149475097656,60.94172668457031,9.78231716156006,1.28101384639740,-2.38322639465332,-3.02472949028015,-19.95747375488281,-3.42746400833130
390,1395989114,149.17005920410156,-73.83049011230469,60.50806427001953,9.53887653350830,1.24566769599915,-2.42653679847717,-0.12636680901051,-19.27353477478027,-3.17070913314819
391,1396005781,149.54353332519531,-73.52313995361328,60.08900070190430,9.61560726165771,1.46715879440308,-2.54442715644836,-0.88647580146790,-19.04937171936035,-3.01981139183044
392,1396022448,149.91528320312500,-73.23155212402344,59.68931579589844,9.68040943145752,1.40920054912567,-2.42590451240540,0.16764810681343,-18.14996528625488,-2.59650945663452
393,1396039115,150.22070312500000,-72.96178436279297,59.32987976074219,9.52728176116943,1.57160556316376,-2.71733427047729,-1.47627270221710,-16.73866462707520,-2.34213662147522
394,1396055782,150.56419372558594,-72.69919586181641,58.97793960571289,9.52185344696045,1.33657741546631,-2.85282492637634,1.27437388896942,-16.35947990417480,-2.06517314910889
395,1396072449,150.94230651855469,-72.45025634765625,58.62094116210938,9.46634292602539,1.53575205802917,-2.63605690002441,3.08964943885803,-15.75022983551025,-1.40349388122559
396,1396089116,151.24810791015625,-72.20629882812500,58.27723693847656,9.29726791381836,1.60501468181610,-2.77439188957214,-0.46153482794762,-15.42150211334229,-1.29589474201202
397,1396105783,151.62593078613281,-71.95773315429688,57.93449020385742,9.32012176513672,1.26180744171143,-2.77185034751892,3.93927502632141,-15.70727729797363,-1.27560961246490
398,1396122450,152.10081481933594,-71.69903564453125,57.56889724731445,9.29339313507080,1.53630876541138,-2.63761496543884,8.49370670318604,-16.49601364135742,-0.98925971984863
399,1396139117,152.55918884277344,-71.41701507568359,57.18964767456055,9.25970172882080,1.46332037448883,-2.62451219558716,6.75379562377930,-17.91051673889160,-1.18445444107056
400,1396155784,153.07502746582031,-71.09931945800781,56.77889251708984,9.19528102874756,1.42373239994049,-2.45704293251038,8.44948959350586,-20.15537643432617,-1.36474287509918
401,1396172451,153.59037780761719,-70.73812866210938,56.34022521972656,9.21467685699463,1.47142076492310,-2.41669774055481,6.88459157943726,-22.81309127807617,-1.73867690563202
402,1396189118,154.08543395996094,-70.33875274658203,55.86460113525391,9.52197933197021,1.29413354396820,-2.53821969032288,3.63379716873169,-25.28238487243652,-1.73142862319946
403,1396205785,154.63555908203125,-69.89354705810547,55.39693450927734,9.46849250793457,1.15661060810089,-2.63582468032837,7.45928478240967,-27.79745864868164,-2.65648651123047
404,1396222452,155.21740722656250,-69.39111328125000,54.91324996948242,9.38928031921387,1.50755774974823,-2.48335909843445,8.54148197174072,-31.16849708557129,-3.33249974250793
405,1396239119,155.78981018066406,-68.82427978515625,54.39671707153320,9.37930393218994,1.23374903202057,-2.48577618598938,6.22524547576904,-35.11578750610352,-3.74520158767700
406,1396255786,156.38630676269531,-68.18424224853516,53.85158157348633,9.52280807495117,1.52839314937592,-2.41704535484314,6.19313478469849,-39.55004501342773,-4.31093025207520
407,1396272453,156.99885559082031,-67.47055053710938,53.32898712158203,9.50404739379883,1.31062102317810,-2.62145137786865,8.55452346801758,-43.59726715087891,-5.77790069580078
408,1396289120,157.69924926757812,-66.68179321289062,52.80231857299805,9.70632743835449,1.61297571659088,-2.48948192596436,13.75475692749023,-48.00598144531250,-6.56956911087036
409,1396305787,158.40386962890625,-65.83602142333984,52.30951690673828,9.92469692230225,1.97818422317505,-2.52523994445801,16.04458808898926,-51.10874176025391,-7.62773942947388
410,1396322454,159.13375854492188,-64.95799255371094,51.90000534057617,9.84614753723145,1.23580479621887,-3.24347329139709,22.28749847412109,-52.40319061279297,-9.24389076232910
411,1396339121,159.92092895507812,-64.03598785400391,51.54470443725586,9.80679225921631,1.26540648937225,-3.16388797760010,28.81972694396973,-54.62834548950195,-10.45072078704834
412,1396355788,160.79624938964844,-63.01550292968750,51.24512863159180,10.58150768280029,0.95208233594894,-2.54908132553101,37.26227188110352,-59.95835113525391,-12.73679161071777
413,1396372455,161.87982177734375,-61.77622222900391,50.97678375244141,12.23048019409180,1.21972918510437,-0.83475434780121,51.57393264770508,-72.43308258056641,-16.42555618286133
414,1396389122,163.18159484863281,-60.17226791381836,50.96614837646484,15.27316951751709,1.01212108135223,1.43531942367554,78.37207794189453,-91.49744415283203,-28.29848480224609
415,1396405789,164.43853759765625,-58.86901855468750,51.79467010498047,18.82399749755859,1.00671243667603,5.95409297943115,119.08404541015625,-67.68286132812500,-45.72310638427734
416,1396422456,166.08518981933594,-57.02568054199219,52.91030883789062,17.59882354736328,-0.18512865900993,0.71471786499023,156.34373474121094,-97.56485748291016,-62.19538116455078
417,1396439123,168.59088134765625,-53.58683776855469,53.40320587158203,21.08967590332031,4.41230678558350,-0.86334788799286,175.43353271484375,-197.29061889648438,-61.35834121704102
418,1396455790,170.42550659179688,-50.00632476806641,54.39139556884766,17.48741531372070,8.27607345581055,3.92627859115601,157.45660400390625,-204.23690795898438,-74.87585449218750
419,1396472457,170.49919128417969,-47.19778060913086,55.95594787597656,6.90756654739380,2.16592931747437,1.44780588150024,75.66703033447266,-155.57118225097656,-88.82067871093750
420,1396489124,172.25941467285156,-45.70356369018555,57.75472259521484,-3.36289906501770,-5.74681234359741,3.72480440139771,184.65089416503906,-77.18942260742188,-86.63301086425781
421,1396505791,175.48179626464844,-45.38742065429688,59.54560470581055,-8.13414096832275,0.24246108531952,10.78729248046875,270.85641479492188,-10.52273654937744,-76.53678894042969
422,1396522458,175.13323974609375,-46.25032424926758,61.76197433471680,-12.05439662933350,2.08489227294922,17.58508110046387,75.28322601318359,59.47665405273438,-87.79804992675781
423,1396539125,172.08499145507812,-48.44995498657227,64.28962707519531,-12.39402198791504,-6.70579957962036,17.91925430297852,-70.46865844726562,142.86195373535156,-87.09101104736328
424,1396555792,169.99655151367188,-51.71074295043945,66.58103942871094,-10.38322734832764,-5.96988773345947,10.75982379913330,-18.97599029541016,207.25286865234375,-56.36277389526367
425,1396572459,166.20664978027344,-55.79152679443359,68.79639434814453,-8.51762199401855,-4.18648242950439,5.04556798934937,-119.23545837402344,256.04708862304688,-26.12935066223145
426,1396589126,162.10922241210938,-60.31970214843750,70.48145294189453,-3.62996149063110,-7.51827859878540,-3.44752883911133,-159.06330871582031,276.25811767578125,22.99996757507324
427,1396605793,159.18357849121094,-64.79560089111328,71.06860351562500,0.13185530900955,-4.44998741149902,-11.30805492401123,-143.33911132812500,259.06179809570312,73.97151184082031
428,1396622460,157.84024047851562,-68.63000488281250,70.25316619873047,2.67415118217468,-0.16327655315399,-16.34970664978027,-124.68240356445312,207.29774475097656,102.55794525146484
429,1396639127,157.29347229003906,-71.23752593994141,67.51650238037109,4.61811780929565,8.47012710571289,-18.82072448730469,-186.20619201660156,123.41464996337891,112.05110168457031
430,1396655794,157.25125122070312,-72.31880950927734,62.75667190551758,2.91914415359497,8.96980476379395,-18.70857810974121,-272.96252441406250,25.65362358093262,107.70698547363281
431,1396672461,161.88165283203125,-71.59195709228516,55.93297958374023,-0.66522681713104,5.88430070877075,-72.60150146484375,-110.67109680175781,-84.66845703125000,103.88780212402344
432,1396689128,176.14927673339844,-62.61405181884766,47.14838027954102,40.42596054077148,40.31095504760742,-20.14331054687500,368.84429931640625,-566.17803955078125,99.34859466552734
433,1396705795,161.88075256347656,-60.24034881591797,46.71695709228516,36.31995391845703,-10.51628875732422,13.19878578186035,-877.83404541015625,-142.07406616210938,-14.67471408843994
434,1396722462,170.16073608398438,-57.36163711547852,44.26646423339844,65.41188812255859,-4.38403463363647,-16.69429016113281,371.73495483398438,-185.61959838867188,32.55032348632812
435,1396739129,171.87983703613281,-55.26562500000000,41.72078704833984,38.71551132202148,-14.45946693420410,-13.98648643493652,-23.12761116027832,-136.99958801269531,64.37507629394531
436,1396755796,175.37107849121094,-53.44913101196289,39.99071502685547,12.01059055328369,-1.08461058139801,-10.16966724395752,125.91902160644531,-114.62583160400391,48.32001495361328
437,1396772463,175.17355346679688,-52.64400482177734,39.54843521118164,6.13868761062622,-5.44717645645142,-16.01894569396973,-32.22263336181641,-49.05545043945312,12.21328735351562
438,1396789130,175.35595703125000,-53.02564620971680,39.30573654174805,8.07245635986328,-1.19561076164246,-13.85764694213867,0.17451250553131,22.50650405883789,10.94284439086914
439,1396805797,175.36643981933594,-54.51891708374023,39.16637039184570,11.47882843017578,-1.33876192569733,-14.31128311157227,-5.27811527252197,89.31894683837891,12.44972896575928
440,1396822464,174.98690795898438,-57.31445312500000,39.10313796997070,15.15178775787354,1.85454785823822,-14.27040100097656,-25.06920623779297,167.38188171386719,16.49715042114258
441,1396839131,173.61788940429688,-61.91765975952148,39.63929367065430,18.66096878051758,0.77926564216614,-14.59906482696533,-53.49158096313477,276.86578369140625,11.50045490264893
442,1396855798,173.13551330566406,-67.97942352294922,40.62581253051758,29.68560218811035,-3.93102383613586,-13.90287113189697,25.58589172363281,364.57965087890625,17.31473541259766
443,1396872465,174.96752929687500,-76.15815734863281,39.43355560302734,41.22978591918945,-2.76178932189941,-4.43418884277344,42.47694778442383,486.18048095703125,73.04093170166016
444,1396889132,-166.51336669921875,-85.66275024414062,21.84998130798340,44.19525527954102,4.52855730056763,7.61520004272461,66.32221984863281,574.61407470703125,124.54008483886719
445,1396905799,-48.05861282348633,-86.08914184570312,-94.06826782226562,28.59373092651367,1.87485051155090,-38.16994476318359,160.41517639160156,405.28201293945312,112.07611083984375
446,1396922466,-34.05913543701172,-84.87424468994141,-106.27187347412109,-18.62537002563477,9.50710868835449,-6.34895992279053,110.97309875488281,92.91357421875000,4.41861867904663
447,1396939133,-49.86097717285156,-86.20274353027344,-83.09696960449219,-9.61737537384033,12.25934410095215,-15.17842674255371,439.02233886718750,-129.53796386718750,28.07886123657227
448,1396955800,-119.36299133300781,-86.68424224853516,-14.44331455230713,-3.03275990486145,2.32438898086548,-1.58024513721466,-56.05186080932617,-241.55986022949219,-0.82490146160126
449,1396972467,-159.54270935058594,-83.30154418945312,25.87568092346191,5.02723598480225,9.04610443115234,7.67988586425781,2.01624155044556,-278.78622436523438,-33.24089050292969
450,1396989134,-174.86618041992188,-80.06554412841797,37.78957748413086,6.04093599319458,0.35021072626114,17.62291336059570,-210.78759765625000,-210.70523071289062,-57.62282943725586
451,1397005801,178.59562683105469,-78.90663909912109,41.46914672851562,3.97912073135376,-6.39158439636230,11.28246212005615,-174.34002685546875,-70.32696533203125,-37.69127273559570
452,1397022468,177.62634277343750,-80.01970672607422,41.37884902954102,1.98769533634186,-12.18861103057861,9.61769008636475,-62.62196350097656,67.13931274414062,3.49956703186035
453,1397039135,-176.57119750976562,-82.84409332275391,37.92039871215820,1.81402337551117,-9.31583690643311,8.03172492980957,143.71694946289062,170.04357910156250,29.65022087097168
454,1397055802,-161.92028808593750,-86.09901428222656,26.83540153503418,1.31268846988678,-1.83065402507782,4.02890300750732,217.50703430175781,203.23751831054688,26.92841339111328
455,1397072469,-114.73271179199219,-88.46163177490234,-17.47111511230469,-0.58070886135101,2.43924331665039,2.28742003440857,175.12881469726562,180.25677490234375,5.35881900787354
456,1397089136,-39.65088653564453,-87.94281005859375,-91.27035522460938,-0.03277409821749,2.56858801841736,-1.52561128139496,79.36148834228516,132.80471801757812,-4.38674402236938
457,1397105803,-23.27598953247070,-86.60719299316406,-108.04481506347656,0.97043943405151,0.75411069393158,-4.35087966918945,-21.67834281921387,92.78192901611328,0.81579065322876
458,1397122470,-20.93945503234863,-85.65305328369141,-111.16275787353516,1.06560862064362,-3.00731754302979,-5.88103103637695,-45.52891921997070,58.12374114990234,10.10073184967041
459,1397139137,-22.07720375061035,-84.99798583984375,-110.28150939941406,0.77144753932953,-3.24981594085693,-4.33045864105225,-14.68744468688965,35.36775970458984,18.69773292541504
460,1397155804,-23.82983016967773,-84.53305816650391,-108.60643768310547,0.88294255733490,-1.55069351196289,-3.61366176605225,-4.19466257095337,22.49636650085449,19.59708976745605
461,1397172471,-25.51732826232910,-84.12764739990234,-106.92931365966797,0.99522596597672,-0.64174717664719,-3.05752706527710,-0.24294348061085,18.35432434082031,19.46297073364258
462,1397189138,-26.73220634460449,-83.77288818359375,-105.23648071289062,0.63158214092255,-0.54867208003998,-2.98752474784851,28.97324562072754,14.80931186676025,19.26103973388672
463,1397205805,-27.43806266784668,-83.55703735351562,-103.65606689453125,-1.38905787467957,0.25192865729332,-1.91258573532104,52.76359558105469,7.18219852447510,15.48823070526123
464,1397222472,-29.02375221252441,-83.50973510742188,-101.56027984619141,-1.66528737545013,1.29507935047150,-1.56785786151886,30.67220115661621,-3.77612781524658,14.09732532501221
465,1397239139,-31.30894470214844,-83.69326782226562,-98.91062164306641,-1.10102355480194,1.01210784912109,-1.92845213413239,21.72224807739258,-17.98825645446777,10.06863880157471
466,1397255806,-34.85480880737305,-84.05927276611328,-95.26034545898438,-0.42798638343811,1.38684952259064,-1.84462463855743,5.86024570465088,-30.70897865295410,7.88090276718140
467,1397272473,-39.36804580688477,-84.50674438476562,-91.00875091552734,0.06839068233967,1.55241477489471,-1.03935503959656,-16.12275505065918,-36.29324340820312,4.36257171630859
468,1397289140,-44.39257812500000,-84.91088104248047,-87.00704956054688,0.41256538033485,1.71542274951935,0.47800347208977,-61.57053756713867,-32.38031387329102,0.60560977458954
469,1397305807,-50.28802108764648,-85.25508880615234,-82.93609619140625,0.09873520582914,0.55371415615082,-0.01775097474456,-109.53326416015625,-28.94626045227051,-0.69289958477020
470,1397322474,-58.04511260986328,-85.63214874267578,-77.27820587158203,-0.38659045100212,0.47485601902008,-0.94143527746201,-126.19799041748047,-34.65456771850586,-2.22697305679321
471,1397339141,-69.63475036621094,-86.07549285888672,-68.28497314453125,-0.90779024362564,2.38719463348389,-0.28432765603065,-156.37594604492188,-46.25701522827148,-6.29481506347656
472,1397355808,-88.03125762939453,-86.48147583007812,-53.47226715087891,-1.00111544132233,2.18501949310303,-2.29192566871643,-216.04234313964844,-60.74590682983398,-12.23683261871338
473,1397372475,-113.10531616210938,-86.33558654785156,-31.36268806457520,-0.85238498449326,-4.00913143157959,-4.25036096572876,-179.42860412597656,-82.42454528808594,-6.43681287765503
474,1397389142,-134.35980224609375,-85.53165435791016,-10.54402923583984,3.15117573738098,-7.29995679855347,-8.68874740600586,-28.16260528564453,-99.20856475830078,-9.25686359405518
475,1397405809,-161.88142395019531,-80.87643432617188,20.16056060791016,-2.36727452278137,-5.61654949188232,-108.11607360839844,180.96600341796875,-342.09423828125000,-40.57744979858398
476,1397422476,-171.90843200683594,-72.91364288330078,35.97512435913086,61.36416625976562,62.21067047119141,81.41768646240234,325.27886962890625,-509.39337158203125,-101.52293395996094
477,1397439143,174.63490295410156,-70.11891937255859,39.20268249511719,4.11453437805176,-25.68562889099121,-14.79002666473389,-622.68914794921875,-168.86349487304688,-57.15858459472656
478,1397455810,179.50440979003906,-64.73381805419922,39.19831466674805,79.48965454101562,-21.68696403503418,52.99634170532227,292.52584838867188,-322.38119506835938,-16.10936355590820
479,1397472477,177.76042175292969,-60.36952209472656,39.49225616455078,21.59855079650879,38.28882217407227,-25.01054000854492,-88.09967041015625,-261.20019531250000,-14.07023906707764
480,1397489144,175.54336547851562,-58.13865280151367,39.41238021850586,-5.32721138000488,-34.78071212768555,-28.69912338256836,-136.28927612304688,-133.38447570800781,-5.06386375427246
481,1397505811,177.34899902343750,-57.70384216308594,39.80105972290039,-24.17899322509766,-0.69575989246368,-19.20829200744629,128.92753601074219,-24.88445091247559,-13.67217350006104
482,1397522478,179.39930725097656,-58.03166580200195,41.10163879394531,-1.32140576839447,-5.50227785110474,-14.62427806854248,189.92799377441406,21.22652435302734,-40.62895584106445
483,1397539145,179.29161071777344,-58.87589645385742,42.00943756103516,7.71410942077637,6.72318887710571,-5.97003650665283,40.79279327392578,51.36180496215820,-27.61142349243164
484,1397555812,177.67419433593750,-60.21313095092773,42.34843444824219,11.78319072723389,5.69143247604370,-8.23062896728516,-78.66723632812500,80.86408233642578,-7.87670230865479
485,1397572479,176.70062255859375,-61.78815841674805,42.15834808349609,9.86780548095703,0.72995400428772,-8.70209121704102,-67.54684448242188,94.50135803222656,10.46441745758057
486,1397589146,177.16564941406250,-63.52130508422852,41.40326690673828,8.23006153106689,-0.63442212343216,-7.98615360260010,-11.51085758209229,103.10936737060547,26.65237236022949
487,1397605813,178.62995910644531,-65.38011169433594,40.24091720581055,7.03222942352295,1.80443036556244,-5.68645906448364,25.76152038574219,110.72692108154297,34.45561981201172
488,1397622480,179.67454528808594,-67.32444763183594,39.27289962768555,7.26643991470337,1.76592493057251,-4.60021972656250,10.29726123809814,116.68229675292969,25.32897567749023
489,1397639147,179.82200622558594,-69.19964599609375,38.49970245361328,7.41028404235840,-0.33808559179306,-3.80662989616394,-33.40890121459961,112.81485748291016,17.98225784301758
490,1397655814,179.27879333496094,-70.97458648681641,37.90638351440430,8.51447677612305,-2.21036672592163,-3.32206678390503,-65.22389221191406,106.78034210205078,13.26754188537598
491,1397672481,179.17483520507812,-72.63119506835938,37.18457031250000,8.75731086730957,-3.68136525154114,-3.33743929862976,-46.54422378540039,99.58888244628906,15.17221546173096
492,1397689148,-179.76316833496094,-74.13750457763672,36.12642669677734,9.13375949859619,-0.93086040019989,-2.12346816062927,3.71689939498901,90.66089630126953,18.92468261718750
493,1397705815,-178.43356323242188,-75.50793457031250,35.02898025512695,9.15835189819336,1.17757117748260,-0.65704113245010,17.05904388427734,82.85980987548828,16.24939155578613
494,1397722482,-177.04409790039062,-76.73337554931641,33.90143585205078,9.85437011718750,1.44214403629303,0.38477259874344,18.51685523986816,74.49134826660156,13.62308406829834
495,1397739149,-175.79574584960938,-77.86332702636719,32.30974197387695,11.27845001220703,-0.80498772859573,0.01398286223412,-17.43054771423340,69.34616088867188,17.03170585632324
496,1397755816,-173.77043151855469,-78.79786682128906,30.29154014587402,10.99231815338135,-0.25596433877945,0.15965604782104,3.75812506675720,58.43804168701172,19.60256004333496
497,1397772483,-172.53718566894531,-79.54302215576172,28.85601234436035,9.86910629272461,-0.94554823637009,0.45158487558365,-9.77386951446533,46.70108032226562,11.04697895050049
498,1397789150,-171.44169616699219,-80.06910705566406,27.84856986999512,9.56164169311523,-0.45935824513435,-0.64555937051773,7.06822538375854,33.12886810302734,6.50309133529663
499,1397805817,-170.72976684570312,-80.41975402832031,27.10966682434082,9.52486419677734,-0.64870458841324,-0.45660257339478,-0.14133752882481,22.33152198791504,4.46919393539429
500,1397822484,-170.23451232910156,-80.82849121093750,26.52152061462402,9.30934143066406,-1.06467807292938,-1.22427761554718,-4.27078008651733,25.51967048645020,1.92318534851074
501,1397839151,-169.67181396484375,-81.21495056152344,26.02701759338379,9.56752681732178,-0.09845364838839,-1.62139427661896,5.28932809829712,24.02286720275879,0.82161873579025
502,1397855818,-169.28605651855469,-81.66263580322266,25.47037696838379,9.76379013061523,-0.03648304194212,-1.80612301826477,-9.04751491546631,27.70410919189453,0.29176792502403
503,1397872485,-168.93170166015625,-82.41801452636719,24.77183914184570,9.74687862396240,-0.48998335003853,-2.30941081047058,-19.41105651855469,45.96568298339844,-2.55303859710693
504,1397889152,-168.21511840820312,-83.15848541259766,23.84147644042969,9.24335575103760,-0.48523426055908,-2.61591935157776,-11.55293273925781,45.31248092651367,-1.62214791774750
505,1397905819,-167.13203430175781,-83.92123413085938,22.63193702697754,9.81705093383789,-0.49523416161537,-1.49432361125946,-6.29533624649048,46.82474517822266,-1.48086738586426
506,1397922486,-165.72866821289062,-84.67778015136719,21.15400505065918,9.20627117156982,0.18112751841545,-2.03841829299927,-3.20630550384521,46.55432128906250,-1.77157354354858
507,1397939153,-163.76652526855469,-85.31233215332031,19.10242080688477,9.65609741210938,-0.51070469617844,-1.26488316059113,-4.07531785964966,39.90863037109375,0.66762447357178
508,1397955820,-161.11473083496094,-85.88862609863281,16.53745269775391,10.03128623962402,-0.35235345363617,-0.24703572690487,6.47913646697998,36.88804626464844,1.14790296554565
509,1397972487,-158.00006103515625,-86.41477203369141,13.51371765136719,9.79862976074219,-0.08590560406446,-0.48492950201035,6.66844844818115,34.18925857543945,0.71508407592773
510,1397989154,-153.79762268066406,-86.89966583251953,9.41419601440430,10.01883792877197,-0.27777022123337,-0.50654858350754,7.38108348846436,32.74664306640625,1.56272649765015
511,1398005821,-148.05984497070312,-87.35263061523438,3.73492240905762,9.98321914672852,-0.18978641927242,-0.44256266951561,4.69013833999634,32.38384628295898,2.09609985351562
512,1398022488,-140.71130371093750,-87.74128723144531,-3.52676439285278,9.64349746704102,-0.48013618588448,-0.37834692001343,6.32465505599976,30.13462066650391,1.98533642292023
513,1398039155,-131.54002380371094,-88.07176971435547,-12.59183406829834,9.81292915344238,-0.50735443830490,0.06374551355839,7.36738681793213,28.37812232971191,1.03556299209595
514,1398055822,-120.15648651123047,-88.32181549072266,-23.87175750732422,9.34756946563721,0.00005066290032,-0.56276303529739,7.17810726165771,26.43127441406250,0.75086390972137
515,1398072489,-109.18229675292969,-88.46698760986328,-34.85980987548828,9.51838397979736,-0.08011958003044,-0.20836126804352,0.02282095327973,20.83965110778809,0.24383330345154
516,1398089156,-98.89835357666016,-88.54546356201172,-45.21909332275391,9.73048877716064,-0.48903924226761,0.05190999433398,-3.58116507530212,17.33304214477539,-0.28889235854149
517,1398105823,-88.48672485351562,-88.58944702148438,-55.64870071411133,9.62154769897461,-0.03269652649760,-0.23074270784855,-0.21982760727406,16.26255607604980,-1.25144398212433
518,1398122490,-80.70875549316406,-88.60212707519531,-63.55739212036133,9.81885814666748,-0.21174277365208,-0.22441995143890,-6.89980316162109,11.97701740264893,-1.54158461093903
519,1398139157,-74.01056671142578,-88.61238098144531,-70.33697509765625,9.78447532653809,-0.18792931735516,-0.68294495344162,-3.93970227241516,9.97549724578857,-2.46756052970886
520,1398155824,-69.86976623535156,-88.64015960693359,-74.48984527587891,10.03720664978027,0.16179667413235,-0.31494385004044,0.16821144521236,5.59624814987183,-3.14394044876099
521,1398172491,-64.80049133300781,-88.64318847656250,-79.68496704101562,10.07084846496582,-0.19023896753788,0.83360958099365,-6.60627985000610,7.18729782104492,-2.73657059669495
522,1398189158,-59.31747436523438,-88.62271881103516,-85.27767944335938,9.45533466339111,0.10004732757807,0.06742293387651,-5.63469982147217,8.09499835968018,-2.38097667694092
523,1398205825,-54.49142837524414,-88.58722686767578,-90.27925872802734,9.88840484619141,-0.08324944972992,0.70711010694504,-9.57059383392334,7.71577787399292,-1.93308746814728
524,1398222492,-49.82913970947266,-88.52037811279297,-95.06124877929688,9.56552982330322,-0.76115363836288,0.88603442907333,-6.10710048675537,8.56588840484619,-1.04814243316650
525,1398239159,-45.77164459228516,-88.42803192138672,-99.13865661621094,9.53500747680664,-0.68071514368057,1.61419332027435,-0.15471994876862,8.91935634613037,-0.03760585933924
526,1398255826,-41.88312149047852,-88.31634521484375,-103.04367828369141,9.39370441436768,-0.26779234409332,0.92839223146439,0.01949126832187,9.83426761627197,0.10257889330387
527,1398272493,-38.24204635620117,-88.18943786621094,-106.69695281982422,9.84647846221924,-0.32739514112473,0.61850535869598,0.30224278569221,10.50640964508057,0.04667916148901
528,1398289160,-35.45138931274414,-88.06043243408203,-109.36863708496094,9.64300060272217,-0.43424880504608,0.28989472985268,8.08740711212158,9.73471450805664,0.73064106702805
529,1398305827,-33.89128875732422,-87.98627471923828,-110.79707336425781,9.52612400054932,0.02766199782491,0.21137993037701,8.82484531402588,5.72163534164429,0.38853198289871
530,1398322494,-33.32002639770508,-87.96221923828125,-111.32292175292969,9.82437419891357,-0.16159264743328,0.74875605106354,3.61420798301697,2.18504500389099,0.15851698815823
531,1398339161,-33.31596374511719,-87.96366119384766,-111.31562042236328,9.59484004974365,-0.08166725188494,0.75434386730194,1.53454649448395,0.30093640089035,0.26994502544403
532,1398355828,-33.90594100952148,-87.98084259033203,-110.68066406250000,9.62970352172852,-0.29574465751648,0.86963605880737,3.50338244438171,-1.22337162494659,0.86077898740768
533,1398372495,-34.27747726440430,-87.98676300048828,-110.20826721191406,9.59713268280029,-0.10104082524776,0.30858036875725,6.82323741912842,-0.44591078162193,0.95032095909119
534,1398389162,-34.59762954711914,-88.01219940185547,-109.85417175292969,10.00837326049805,-0.00053504644893,-0.44052612781525,2.86621522903442,-1.29950535297394,0.05327442660928
535,1398405829,-34.88633346557617,-88.03218841552734,-109.55036926269531,9.96108722686768,-0.41628164052963,-0.18160583078861,1.71314358711243,-0.95349025726318,0.14527522027493
536,1398422496,-35.19637680053711,-88.04756164550781,-109.18196868896484,9.76510810852051,-0.28408101201057,0.31683185696602,4.31109142303467,-0.80003196001053,0.40099242329597
537,1398439163,-35.35124969482422,-88.07267761230469,-108.97708892822266,9.58727359771729,0.06822375953197,0.18360102176666,3.79561042785645,-1.06211388111115,-0.20827609300613
538,1398455830,-35.39387512207031,-88.09453582763672,-108.92024993896484,9.95384788513184,-0.35794934630394,0.81537860631943,1.67414820194244,-0.74989497661591,-0.35914760828018
539,1398472497,-34.61393737792969,-88.05912017822266,-109.70150756835938,9.66634845733643,-0.21457971632481,0.45118793845177,0.81182020902634,3.02137660980225,0.22306101024151
540,1398489164,-34.65507125854492,-88.07247924804688,-109.68367004394531,9.58310890197754,0.53310877084732,-0.72694998979568,-0.57613849639893,-0.28492209315300,-0.11361154168844
541,1398505831,-35.35577011108398,-88.10183715820312,-109.03023529052734,10.16503143310547,-0.63176637887955,0.35603362321854,-2.03110623359680,-1.81047821044922,0.37202444672585
542,1398522498,-35.55075454711914,-88.12216186523438,-108.80068206787109,9.63825321197510,-0.41280081868172,0.28563764691353,2.93736696243286,-0.89234012365341,-0.04487985372543
543,1398539165,-35.24099731445312,-88.12487030029297,-108.96150970458984,9.87937259674072,-0.29832279682159,0.41907629370689,9.76374435424805,0.44577640295029,-0.04124286770821
544,1398555832,-34.71845245361328,-88.10586547851562,-109.51353454589844,9.81276035308838,0.56434428691864,0.42924225330353,-0.90261077880859,1.94404244422913,0.06093261763453
545,1398572499,-34.38262176513672,-88.08859252929688,-109.99716949462891,9.66702175140381,0.13248685002327,-0.46193569898605,-8.00610256195068,1.78603816032410,0.09611168503761
546,1398589166,-34.29505157470703,-88.06407165527344,-110.06768035888672,10.05012798309326,-0.99421924352646,-0.09627654403448,1.85900831222534,1.68363809585571,1.01915490627289
547,1398605833,-34.27320098876953,-88.05700683593750,-109.92231750488281,9.69593524932861,-0.16775654256344,0.20135235786438,10.82846546173096,0.58948940038681,0.80189561843872
548,1398622500,-34.76196289062500,-88.08818054199219,-109.39872741699219,9.73574256896973,0.17768025398254,0.28299745917320,2.91996288299561,-1.76148128509521,0.11684513092041
549,1398639167,-35.41827774047852,-88.12998962402344,-108.77895355224609,9.71372413635254,-0.13097785413265,0.37076285481453,-1.43694293498993,-2.34705162048340,-0.10993611812592
550,1398655834,-36.22859954833984,-88.16559600830078,-107.96967315673828,9.91750144958496,-0.15423929691315,0.37570339441299,0.75503677129745,-2.27085423469543,0.33263212442398
551,1398672501,-37.27982711791992,-88.19897460937500,-106.92971038818359,9.54301548004150,0.17953170835972,-0.26227030158043,0.10805997997522,-2.40935492515564,0.69836872816086
552,1398689168,-38.40252685546875,-88.23641967773438,-105.82669067382812,9.99254226684570,-0.55388057231903,-0.00314393173903,-0.41009131073952,-2.64815449714661,0.56691151857376
553,1398705835,-39.01360702514648,-88.26912689208984,-105.20637512207031,9.72463703155518,-0.41499307751656,-0.01078747492284,1.35536003112793,-1.84892320632935,-0.02505562454462
554,1398722502,-39.60377502441406,-88.32007598876953,-104.54472351074219,9.90209102630615,-0.37295401096344,0.32646155357361,5.02197170257568,-2.68893003463745,-0.67888385057449
555,1398739169,-40.60803222656250,-88.38383483886719,-103.48922729492188,9.72886371612549,-0.12595100700855,0.18359707295895,3.87539434432983,-3.71895790100098,-0.75718194246292
556,1398755836,-42.34448242187500,-88.45288085937500,-101.66029357910156,9.86477279663086,-0.13476580381393,0.31687408685684,6.30018758773804,-4.71910858154297,-0.14099153876305
557,1398772503,-44.71458053588867,-88.51866149902344,-99.23323059082031,9.70728874206543,-0.01578601822257,-0.01195718720555,4.15390634536743,-5.13482809066772,0.40100526809692
558,1398789170,-47.42735671997070,-88.57371520996094,-96.38446044921875,10.01205635070801,-0.05901604890823,0.15690018236637,8.83897113800049,-5.02177476882935,0.98423242568970
559,1398805837,-49.83629989624023,-88.62384796142578,-93.98242950439453,9.61684799194336,-0.06621469557285,-0.31987026333809,0.31093814969063,-4.24006080627441,0.42390295863152
560,1398822504,-53.07041168212891,-88.67603302001953,-90.72689819335938,9.78111362457275,-0.41505894064903,-0.15591329336166,2.02570867538452,-5.18866586685181,0.75346171855927
561,1398839171,-56.36301040649414,-88.72558593750000,-87.43096160888672,9.71701335906982,-0.24349720776081,-0.02801596745849,0.92117363214493,-5.00616264343262,0.51267659664154
562,1398855838,-60.43033218383789,-88.77763366699219,-83.35675048828125,9.75045299530029,-0.11519782990217,-0.16881276667118,1.02655708789825,-5.78225278854370,0.53624027967453
563,1398872505,-64.69399261474609,-88.81073760986328,-79.10198211669922,9.82046508789062,-0.08094153553247,-0.09699438512325,0.24894265830517,-5.35658264160156,1.02245914936066
564,1398889172,-68.85227966308594,-88.82263946533203,-74.91472625732422,9.93257904052734,-0.19507792592049,-0.22916194796562,2.47891283035278,-4.70439386367798,1.73828279972076
565,1398905839,-72.26712799072266,-88.81238555908203,-71.37762451171875,9.94670867919922,-0.13846319913864,-0.16289290785789,8.17385959625244,-3.59299540519714,2.32877135276794
566,1398922506,-75.01282501220703,-88.80450439453125,-68.56855773925781,9.72060394287109,-0.30974125862122,-0.28262820839882,4.53442144393921,-2.87175393104553,1.77726531028748
567,1398939173,-77.17395782470703,-88.79682922363281,-66.35880279541016,9.67139244079590,-0.35823270678520,-0.27210482954979,3.72741651535034,-2.22093486785889,1.43968987464905
568,1398955840,-79.40181732177734,-88.79261016845703,-64.07153320312500,9.66927433013916,-0.32229399681091,-0.12428718060255,4.32471799850464,-2.41433668136597,1.16222751140594
569,1398972507,-82.32899475097656,-88.78630828857422,-61.07526016235352,9.70916461944580,-0.16318367421627,-0.14193359017372,5.15418529510498,-3.35830593109131,1.19011998176575
570,1398989174,-85.64820098876953,-88.77683258056641,-57.70394515991211,9.79456996917725,-0.06551100313663,-0.16798363626003,3.80238461494446,-3.86375904083252,1.40319180488586
571,1399005841,-88.98120880126953,-88.74539947509766,-54.29371643066406,9.81991100311279,-0.20865811407566,-0.25820401310921,5.51674556732178,-3.99106693267822,2.35968518257141
572,1399022508,-90.73791503906250,-88.69884490966797,-52.38873291015625,9.98548221588135,-0.18137554824352,-0.21705988049507,9.78916358947754,-2.17849516868591,3.05553221702576
573,1399039175,-90.66487121582031,-88.66338348388672,-52.39776229858398,9.72315883636475,-0.20843014121056,-0.47636392712593,4.67253828048706,0.37555906176567,2.44273471832275
574,1399055842,-90.25882720947266,-88.62769317626953,-52.74800491333008,9.72131919860840,-0.41842833161354,-0.47292867302895,4.21422386169434,0.87106227874756,2.42823743820190
575,1399072509,-89.82771301269531,-88.58875274658203,-53.09226608276367,9.80254459381104,-0.34654697775841,-0.28519552946091,6.10463333129883,0.89205187559128,2.61287975311279
576,1399089176,-89.49763488769531,-88.54559326171875,-53.33591842651367,9.76399230957031,-0.16423438489437,-0.22104583680630,6.09072637557983,0.77117294073105,2.86183547973633
577,1399105843,-89.52774047851562,-88.49272918701172,-53.20425033569336,9.80945491790771,-0.21484431624413,-0.15859372913837,6.94264268875122,0.21011379361153,3.47351813316345
578,1399122510,-89.52987670898438,-88.43103027343750,-53.08926010131836,9.87436389923096,-0.22343587875366,-0.20486927032471,7.66805982589722,0.23080888390541,3.96968722343445
579,1399139177,-89.32716369628906,-88.36649322509766,-53.16792297363281,9.89027786254883,-0.40598753094673,-0.25811129808426,8.29981136322021,0.55970168113708,4.16194963455200
580,1399155844,-88.90835571289062,-88.30211639404297,-53.45521163940430,9.79178428649902,-0.42042177915573,-0.30296075344086,8.72438049316406,0.95248550176620,4.18074941635132
581,1399172511,-88.12238311767578,-88.23752593994141,-54.08382797241211,9.85005664825439,-0.31547099351883,-0.04854774475098,10.39001369476318,1.63062047958374,4.08385753631592
582,1399189178,-85.11862182617188,-88.19062805175781,-57.05134201049805,9.70083332061768,-0.08031000941992,0.01445806026459,3.08213067054749,6.12109088897705,2.78752040863037
583,1399205845,-82.53294372558594,-88.15189361572266,-59.65966033935547,9.73566436767578,-0.38604417443275,-0.13096396625042,-0.46045875549316,5.62933969497681,2.09251952171326
584,1399222512,-81.11979675292969,-88.11145782470703,-61.04062271118164,9.70942974090576,-0.48347261548042,-0.12274241447449,2.92281889915466,3.40650200843811,2.24856495857239
585,1399239179,-80.67211151123047,-88.07878875732422,-61.38859939575195,9.74612903594971,-0.36217772960663,0.15594281256199,6.83832216262817,1.38708138465881,2.13380694389343
586,1399255846,-80.90042877197266,-88.06063079833984,-61.14370346069336,9.67040824890137,-0.26181024312973,0.14247493445873,1.79351651668549,0.07480189204216,1.46499526500702
587,1399272513,-81.89324951171875,-88.04425048828125,-60.15043640136719,9.78007125854492,-0.26539820432663,0.10423386096954,0.81466311216354,-1.47271096706390,1.59302020072937
588,1399289180,-83.61546325683594,-88.02731323242188,-58.44355773925781,9.78334236145020,-0.35602548718452,-0.13999637961388,-0.15295264124870,-2.97649669647217,1.76844155788422
589,1399305847,-85.97954559326172,-88.00100708007812,-56.05150985717773,9.80730438232422,-0.43512919545174,-0.27488368749619,2.45898604393005,-4.44110822677612,2.32285451889038
590,1399322514,-89.01058959960938,-87.95608520507812,-52.93186187744141,9.79155158996582,-0.47690987586975,-0.51355975866318,6.08629560470581,-6.11580848693848,3.26474905014038
591,1399339181,-93.11368560791016,-87.88557434082031,-48.61758041381836,9.71611785888672,-0.44823735952377,-0.56014925241470,13.37244319915771,-9.11004447937012,4.34137010574341
592,1399355848,-97.22171783447266,-87.79886627197266,-44.24974822998047,9.80905723571777,-0.30491220951080,-0.23137570917606,16.27855491638184,-9.93697738647461,4.58959627151489
593,1399372515,-100.06948089599609,-87.72264862060547,-41.22014999389648,9.81791687011719,-0.29977914690971,-0.18091556429863,11.65048217773438,-7.33757591247559,3.73573064804077
594,1399389182,-100.70623779296875,-87.67897796630859,-40.44532775878906,10.06050491333008,-0.32003340125084,0.20323511958122,9.09749221801758,-1.92186856269836,2.54094696044922
595,1399405849,-98.62069702148438,-87.67543792724609,-42.53364562988281,9.80573463439941,-0.36588025093079,-0.24007251858711,0.74538081884384,5.37372398376465,1.37969219684601
596,1399422516,-96.69480133056641,-87.66737365722656,-44.42055892944336,9.75664234161377,-0.58362990617752,-0.33109366893768,3.26578569412231,4.89984989166260,1.39110255241394
597,1399439183,-95.23888397216797,-87.65564727783203,-45.77716827392578,9.80558300018311,-0.47915768623352,-0.25102600455284,6.84525156021118,3.62979388237000,1.35313200950623
598,1399455850,-94.43251037597656,-87.64084625244141,-46.47966384887695,9.75220966339111,-0.35838949680328,-0.15049606561661,7.13658237457275,2.04475188255310,1.32302403450012
599,1399472517,-94.44956970214844,-87.62051391601562,-46.34583663940430,9.70122432708740,-0.39215022325516,-0.17687293887138,7.82956027984619,-0.03623557090759,1.50187766551971
600,1399489184,-95.39847564697266,-87.59189605712891,-45.26784515380859,9.73307514190674,-0.43855127692223,-0.22511953115463,8.52335834503174,-2.45609855651855,1.78722906112671
601,1399505851,-97.12577819824219,-87.54943847656250,-43.34605026245117,9.75204372406006,-0.45079809427261,-0.21546986699104,12.43619155883789,-4.75805568695068,2.28783059120178
602,1399522518,-99.10188293457031,-87.50244903564453,-41.17866134643555,9.75663661956787,-0.38526520133018,-0.09188795834780,12.24076557159424,-5.57684278488159,2.28255414962769
603,1399539185,-100.88665771484375,-87.46002197265625,-39.22385787963867,9.79900264739990,-0.36918210983276,-0.07384821027517,10.94855117797852,-5.13742971420288,1.90431797504425
604,1399555852,-102.35424804687500,-87.42527008056641,-37.63380813598633,9.78348064422607,-0.40996837615967,-0.09276016056538,8.10118293762207,-4.21005630493164,1.48966062068939
605,1399572519,-103.41789245605469,-87.39631652832031,-36.48134613037109,9.79523658752441,-0.40144032239914,-0.14031344652176,6.08023786544800,-3.05030012130737,1.30801522731781
606,1399589186,-104.36989593505859,-87.37139892578125,-35.46234130859375,9.76883411407471,-0.48678925633430,-0.17835539579391,4.79208564758301,-2.68629217147827,1.09294509887695
607,1399605853,-105.24868011474609,-87.34996795654297,-34.52496337890625,9.80539798736572,-0.44275847077370,-0.16065569221973,4.32449960708618,-2.44462347030640,0.86997377872467
608,1399622520,-106.04627990722656,-87.33450317382812,-33.69086074829102,9.77290058135986,-0.40638175606728,-0.22550126910210,2.99247241020203,-2.09638023376465,0.56304395198822
609,1399639187,-106.77907562255859,-87.32255554199219,-32.94375228881836,9.76352214813232,-0.40415126085281,-0.27706113457680,1.64337480068207,-1.82202982902527,0.40756210684776
610,1399655854,-107.41592407226562,-87.31321716308594,-32.30831909179688,9.79846191406250,-0.41881135106087,-0.26370689272881,0.72168904542923,-1.48166275024414,0.31015703082085
611,1399672521,-107.91073608398438,-87.30529022216797,-31.80650711059570,9.82653331756592,-0.47669529914856,-0.28350743651390,1.21917736530304,-1.10328638553619,0.33032703399658
612,1399689188,-108.29347991943359,-87.30114746093750,-31.42135047912598,9.78407573699951,-0.39967700839043,-0.29698401689529,0.96402359008789,-0.72242546081543,0.20523457229137
613,1399705855,-108.54490661621094,-87.29795837402344,-31.17718124389648,9.79274654388428,-0.41241180896759,-0.34689927101135,0.37368926405907,-0.32545414566994,0.27035483717918
614,1399722522,-108.67279052734375,-87.29492187500000,-31.04873657226562,9.80730915069580,-0.47563368082047,-0.36195287108421,0.88005244731903,-0.00961116608232,0.35195693373680
615,1399739189,-108.77018737792969,-87.29145050048828,-30.92292404174805,9.78256607055664,-0.46644547581673,-0.29405969381332,2.51911115646362,-0.01715410314500,0.39826461672783
616,1399755856,-108.89601135253906,-87.28668212890625,-30.76794624328613,9.75542068481445,-0.43833830952644,-0.26563170552254,2.56959414482117,-0.11893896758556,0.43596655130386
617,1399772523,-109.15446472167969,-87.28027343750000,-30.48960304260254,9.74161434173584,-0.41466942429543,-0.24315725266933,2.02202033996582,-0.48251119256020,0.40597409009933
618,1399789190,-109.49230194091797,-87.27767944335938,-30.16112899780273,9.76959037780762,-0.39857903122902,-0.21404673159122,0.26253017783165,-0.54380244016647,0.13907694816589
619,1399805857,-109.93025970458984,-87.27947998046875,-29.77085494995117,9.77831649780273,-0.43130555748940,-0.27520567178726,-2.06971740722656,-0.62635219097137,-0.15678173303604
620,1399822524,-110.38806915283203,-87.28228759765625,-29.36675643920898,9.79351329803467,-0.45416861772537,-0.33752325177193,-2.40281057357788,-0.63093686103821,-0.25585165619850
621,1399839191,-110.76953125000000,-87.28423309326172,-29.02642631530762,9.77048397064209,-0.47210526466370,-0.34455585479736,-1.65244805812836,-0.47805461287498,-0.13905774056911
622,1399855858,-111.11903381347656,-87.28595733642578,-28.69870758056641,9.77872085571289,-0.43656194210052,-0.33848443627357,-0.48048779368401,-0.43859824538231,-0.13478042185307
623,1399872525,-111.47487640380859,-87.28682708740234,-28.36534118652344,9.77795600891113,-0.40131092071533,-0.33093857765198,-0.54459637403488,-0.47522440552711,-0.08210790902376
624,1399889192,-111.93173217773438,-87.28214263916016,-27.91664695739746,9.74808216094971,-0.46769690513611,-0.28659665584564,0.33370786905289,-0.89705282449722,0.08632760494947
625,1399905859,-112.59118652343750,-87.27437591552734,-27.27243614196777,9.74217891693115,-0.39518633484840,-0.18702678382397,-0.14606280624866,-1.49291932582855,0.05789750069380
626,1399922526,-113.36466217041016,-87.27071380615234,-26.55164337158203,9.78122234344482,-0.42591983079910,-0.27803102135658,-2.36423826217651,-1.59093928337097,-0.30153191089630
627,1399939193,-114.27046203613281,-87.26555633544922,-25.68856620788574,9.78553771972656,-0.42077392339706,-0.29936149716377,-1.76436269283295,-1.99391663074493,-0.41429182887077
628,1399955860,-115.36032867431641,-87.25704956054688,-24.65143585205078,9.76489639282227,-0.38639259338379,-0.31686323881149,-2.39034986495972,-2.52421450614929,-0.48800513148308
629,1399972527,-116.59027862548828,-87.24245452880859,-23.48617935180664,9.70339012145996,-0.40663143992424,-0.29188680648804,-3.09363627433777,-3.00728297233582,-0.39166298508644
630,1399989194,-118.11154937744141,-87.21857452392578,-22.01661872863770,9.69835567474365,-0.39799526333809,-0.26947259902954,-2.37823534011841,-4.06440925598145,-0.36982822418213
631,1400005861,-119.92366027832031,-87.18568420410156,-20.28373146057129,9.72522068023682,-0.37236875295639,-0.23552052676678,-4.02116203308105,-5.01156711578369,-0.43599861860275
632,1400022528,-121.93296051025391,-87.14302062988281,-18.36065864562988,9.70195293426514,-0.42952871322632,-0.27646091580391,-4.44516754150391,-5.82264471054077,-0.45123815536499
633,1400039195,-124.14699554443359,-87.09613800048828,-16.24481964111328,9.77490615844727,-0.43459200859070,-0.30364382266998,-5.19174003601074,-6.49390268325806,-0.82862865924835
634,1400055862,-126.30464172363281,-87.05244445800781,-14.20737743377686,9.87910652160645,-0.40820547938347,-0.47590783238411,-6.51715946197510,-6.22572565078735,-1.15875089168549
635,1400072529,-128.20188903808594,-87.00965118408203,-12.42290878295898,9.76678085327148,-0.38769370317459,-0.65877652168274,-6.04902315139771,-5.57768583297729,-1.02115941047668
636,1400089196,-129.71899414062500,-86.97321319580078,-11.00158405303955,9.80330753326416,-0.39279085397720,-0.69818150997162,-5.01894283294678,-4.47078037261963,-0.81060993671417
637,1400105863,-130.80677795410156,-86.94687652587891,-9.98584556579590,9.85735702514648,-0.48229995369911,-0.73464328050613,-3.56615281105042,-3.10377931594849,-0.57511407136917
638,1400122530,-131.44967651367188,-86.93458557128906,-9.37609195709229,9.90256023406982,-0.52066332101822,-0.77850359678268,-1.20032000541687,-1.56569790840149,-0.42529246211052
639,1400139197,-131.77574157714844,-86.93337249755859,-9.06042671203613,9.82848358154297,-0.40922182798386,-0.71053159236908,0.20135422050953,-0.40563470125198,-0.32235500216484
640,1400155864,-131.82897949218750,-86.94475555419922,-9.03583621978760,9.79338073730469,-0.35993975400925,-0.65159225463867,-0.88415682315826,0.78775697946548,-0.25364896655083
641,1400172531,-131.66011047363281,-86.96443176269531,-9.22233009338379,9.77210044860840,-0.46080002188683,-0.61781787872314,-0.20602217316628,1.62306404113770,-0.17658036947250
642,1400189198,-131.30729675292969,-86.98889923095703,-9.56049537658691,9.79165172576904,-0.42650768160820,-0.57532924413681,1.73226380348206,2.16280055046082,-0.07601208984852
643,1400205865,-130.82153320312500,-87.02033996582031,-10.04400348663330,9.83858203887939,-0.32475817203522,-0.48818662762642,1.01706755161285,2.78526568412781,-0.12689171731472
644,1400222532,-130.24043273925781,-87.05556488037109,-10.65166473388672,9.79702472686768,-0.40494653582573,-0.57207363843918,-0.71732848882675,3.19675922393799,-0.06676589697599
645,1400239199,-129.49859619140625,-87.09276580810547,-11.38917922973633,9.77758312225342,-0.42426401376724,-0.53864258527756,1.14237773418427,3.55914092063904,0.04693527147174
646,1400255866,-128.63208007812500,-87.13174438476562,-12.23273658752441,9.80091762542725,-0.46161907911301,-0.57038307189941,2.26884984970093,3.84828281402588,0.10465350002050
647,1400272533,-127.73180389404297,-87.16558837890625,-13.08145332336426,9.75204181671143,-0.33871749043465,-0.46297907829285,3.98445272445679,3.64417529106140,0.28057432174683
648,1400289200,-126.92965698242188,-87.19697570800781,-13.86007404327393,9.75938224792480,-0.35287612676620,-0.37619611620903,2.29249048233032,3.36531639099121,0.20670728385448
649,1400305867,-126.22091674804688,-87.22505187988281,-14.55083751678467,9.75044727325439,-0.34986338019371,-0.39368718862534,1.95143163204193,3.01584434509277,0.16438230872154
650,1400322534,-125.53333282470703,-87.25383758544922,-15.23762607574463,9.78740692138672,-0.38988575339317,-0.43751040101051,0.91920155286789,3.01549863815308,0.07796506583691
651,1400339201,-124.86133575439453,-87.28214263916016,-15.89905357360840,9.76906776428223,-0.36840701103210,-0.43974605202675,1.49352777004242,2.91309881210327,0.02375577948987
652,1400355868,-124.16121673583984,-87.30986785888672,-16.59300613403320,9.77907943725586,-0.41562467813492,-0.45623072981834,1.26912212371826,2.96502852439880,0.04241462796926
653,1400372535,-123.55528259277344,-87.33207702636719,-17.17792892456055,9.73714065551758,-0.36582085490227,-0.36520957946777,2.12014269828796,2.50172042846680,0.11758789420128
654,1400389202,-123.07893371582031,-87.35529327392578,-17.65429496765137,9.77474880218506,-0.32336360216141,-0.33900272846222,0.86351943016052,2.27127027511597,-0.13087449967861
655,1400405869,-122.62987518310547,-87.38124847412109,-18.13048934936523,9.78029060363770,-0.33054000139236,-0.38120970129967,-0.76628720760345,2.34137225151062,-0.28394877910614
656,1400422536,-122.18593597412109,-87.40474700927734,-18.59174537658691,9.79638290405273,-0.47522214055061,-0.48262190818787,-0.19471415877342,2.20918512344360,-0.19479097425938
657,1400439203,-121.58381652832031,-87.42884826660156,-19.17967605590820,9.76566123962402,-0.39990642666817,-0.47668594121933,1.72888314723969,2.51610231399536,-0.08682066202164
658,1400455870,-120.98444366455078,-87.44917297363281,-19.74165534973145,9.74638843536377,-0.32951804995537,-0.42131716012955,3.07858324050903,2.31108546257019,0.06337863206863
659,1400472537,-120.31098175048828,-87.46951293945312,-20.40181541442871,9.81087493896484,-0.33094084262848,-0.33219328522682,1.69183409214020,2.53725838661194,0.14507034420967
660,1400489204,-119.72531890869141,-87.48830413818359,-20.97665786743164,9.76814460754395,-0.41359350085258,-0.36768051981926,1.49862468242645,2.27229475975037,0.09846802055836
661,1400505871,-119.20023345947266,-87.50417327880859,-21.46975326538086,9.72984027862549,-0.40017530322075,-0.38184672594070,2.80018520355225,1.99867427349091,0.10315515846014
662,1400522538,-118.68139648437500,-87.51935577392578,-21.96395111083984,9.76837539672852,-0.32263430953026,-0.39045652747154,2.32150983810425,1.95856511592865,0.14717058837414
663,1400539205,-118.13178253173828,-87.53280639648438,-22.48801612854004,9.80174827575684,-0.39310771226883,-0.39377462863922,2.41030859947205,1.98232066631317,0.23444586992264
664,1400555872,-117.55568695068359,-87.54721069335938,-23.03415489196777,9.79386806488037,-0.36824259161949,-0.36680766940117,2.64310264587402,2.04096055030823,0.21245732903481
665,1400572539,-116.88408660888672,-87.56562805175781,-23.69644737243652,9.79139518737793,-0.34872150421143,-0.33379223942757,1.40855753421783,2.40457153320312,0.11676830053329
666,1400589206,-116.13993835449219,-87.58783721923828,-24.44326972961426,9.80717945098877,-0.37656086683273,-0.40028619766235,0.70432358980179,2.69136953353882,-0.03685026988387
667,1400605873,-115.23817443847656,-87.61164855957031,-25.33821868896484,9.77805233001709,-0.38029026985168,-0.41405802965164,1.28753769397736,3.04998612403870,-0.00611503235996
668,1400622540,-114.22600555419922,-87.63247680664062,-26.32098960876465,9.77496242523193,-0.40898856520653,-0.40858659148216,2.64456248283386,3.14748048782349,0.19839596748352
669,1400639207,-113.20806884765625,-87.64873504638672,-27.30032539367676,9.77690315246582,-0.33295729756355,-0.33192849159241,3.18928098678589,3.00620126724243,0.39797013998032
670,1400655874,-112.22939300537109,-87.66594696044922,-28.24843978881836,9.78224754333496,-0.37282535433769,-0.29106211662292,2.70155119895935,2.94338631629944,0.26364436745644
671,1400672541,-111.31546020507812,-87.68100738525391,-29.13611602783203,9.77024269104004,-0.36289447546005,-0.29745635390282,2.46751451492310,2.75204610824585,0.25699782371521
672,1400689208,-110.42139434814453,-87.69522094726562,-30.00601577758789,9.76009082794189,-0.37412530183792,-0.30553179979324,2.32542824745178,2.67550253868103,0.25802233815193
673,1400705875,-109.54105377197266,-87.70816802978516,-30.85582351684570,9.78031063079834,-0.35844698548317,-0.33494028449059,2.69327807426453,2.58911108970642,0.28022855520248
674,1400722542,-108.65167236328125,-87.71913146972656,-31.71272659301758,9.79747295379639,-0.37284019589424,-0.30609390139580,2.81145524978638,2.55044913291931,0.37426564097404
