sep=,
DeviceTag:,Xsens_DOT_2
FirmwareVersion:,3.0.0
AppVersion:,2023.6.0
StartTime: ,2025-04-09_10:45:35_000 CEST
© Movella Technologies B. V. 2005-2025

PacketCounter,SampleTimeFine,Euler_X,Euler_Y,Euler_Z,Acc_X,Acc_Y,Acc_Z,Gyr_X,Gyr_Y,Gyr_Z
0,1389488984,52.38793182373047,-87.21202850341797,-6.22338962554932,0.00000000000000,0.00000000000000,0.00000000000000,0.00000000000000,0.00000000000000,0.00000000000000
1,1389505651,52.50589752197266,-87.21934509277344,-6.33027410507202,9.81111145019531,0.37216782569885,0.47748070955276,0.95813894271851,-1.61653256416321,0.82027864456177
2,1389522318,52.38526916503906,-87.22370910644531,-6.20977687835693,9.78571796417236,0.28325033187866,0.46109175682068,0.25396910309792,-0.98151695728302,1.07702040672302
3,1389538985,52.02048492431641,-87.22251129150391,-5.85057306289673,9.78884220123291,0.20450283586979,0.51032930612564,-0.11868925392628,-0.24483178555965,1.25250577926636
4,1389555652,51.50806045532227,-87.22463226318359,-5.34423112869263,9.78158760070801,0.20658287405968,0.50571447610855,-0.13453070819378,-0.01806975901127,1.65620017051697
5,1389572319,50.84498596191406,-87.22830200195312,-4.68360137939453,9.79983043670654,0.25492781400681,0.51153999567032,0.10567159205675,0.26166576147079,2.02025914192200
6,1389588986,49.86125946044922,-87.22357177734375,-3.71239686012268,9.82174396514893,0.25134903192520,0.53192746639252,-0.48264566063881,1.23474323749542,2.25839328765869
7,1389605653,48.88359832763672,-87.22279357910156,-2.74958062171936,9.80812168121338,0.29723784327507,0.56254363059998,-0.69957250356674,1.05125403404236,2.43815612792969
8,1389622320,48.18249130249023,-87.22985076904297,-2.07587695121765,9.79425716400146,0.27582240104675,0.56680965423584,-1.39573836326599,0.08579612523317,2.26475811004639
9,1389638987,47.70114898681641,-87.23579406738281,-1.63029623031616,9.80522632598877,0.25175085663795,0.54886299371719,-1.87569463253021,-0.38316595554352,1.79026997089386
10,1389655654,47.40326690673828,-87.24913787841797,-1.38296616077423,9.84057044982910,0.22519318759441,0.55148917436600,-2.76973152160645,-1.10675036907196,1.72307515144348
11,1389672321,47.16922378540039,-87.26634216308594,-1.20942831039429,9.87041950225830,0.18105462193489,0.55374896526337,-3.33066296577454,-1.42719113826752,1.75085246562958
12,1389688988,46.84865188598633,-87.27753448486328,-0.94263786077499,9.83191013336182,0.12023419141769,0.59837293624878,-2.90083003044128,-1.01133012771606,1.68758869171143
13,1389705655,46.49558258056641,-87.29260253906250,-0.63118612766266,9.77688312530518,0.20536726713181,0.59966093301773,-2.20349884033203,-1.06931746006012,1.91793656349182
14,1389722322,46.30600357055664,-87.31270599365234,-0.48626253008842,9.72121047973633,0.17385730147362,0.63181948661804,-2.37753748893738,-1.63050460815430,1.81315505504608
15,1389738989,46.39931869506836,-87.33347320556641,-0.62055563926697,9.81534194946289,0.12363250553608,0.68057322502136,-2.16438841819763,-2.23213386535645,1.30608761310577
16,1389755656,46.70803070068359,-87.36218261718750,-0.95639896392822,9.84114074707031,0.09223280847073,0.65150594711304,-1.29262173175812,-2.96665501594543,1.28367638587952
17,1389772323,46.97126770019531,-87.39450836181641,-1.23662149906158,9.84280014038086,0.15835429728031,0.54876136779785,-0.70122444629669,-2.98248338699341,1.54947221279144
18,1389788990,46.93593978881836,-87.41479492187500,-1.21109175682068,9.88758468627930,0.16462935507298,0.54250031709671,-0.27025240659714,-1.86347758769989,1.58357548713684
19,1389805657,46.71542358398438,-87.41396331787109,-0.99664360284805,9.87325859069824,0.19986183941364,0.60404270887375,-0.07825960963964,-0.64865440130234,1.02994430065155
20,1389822324,46.61345672607422,-87.41585540771484,-0.89470607042313,9.78849124908447,0.29186463356018,0.67151552438736,0.30011039972305,-0.96515053510666,0.92190992832184
21,1389838991,46.62790679931641,-87.42892456054688,-0.91938328742981,9.72246360778809,0.22490105032921,0.62528419494629,-0.32353964447975,-1.68872201442719,1.19036948680878
22,1389855658,46.66754913330078,-87.43968200683594,-0.96816778182983,9.76416778564453,0.11988665163517,0.59227323532104,-0.28564560413361,-1.62643194198608,1.02737009525299
23,1389872325,46.79425430297852,-87.45063781738281,-1.09221208095551,9.74491310119629,0.12794604897499,0.58106547594070,0.48012921214104,-1.79122400283813,0.91841369867325
24,1389888992,47.17396163940430,-87.46055603027344,-1.46324217319489,9.71254825592041,0.17978945374489,0.55494457483292,0.92888927459717,-2.21595954895020,0.42268002033234
25,1389905659,47.62187194824219,-87.46440887451172,-1.89168596267700,9.74860763549805,0.20027934014797,0.49581578373909,1.53751111030579,-2.07261800765991,0.04888823628426
26,1389922326,47.81413269042969,-87.46302795410156,-2.06290960311890,9.81351470947266,0.17372891306877,0.54202479124069,1.54912650585175,-1.39070558547974,0.31149527430534
27,1389938993,47.85905456542969,-87.47036743164062,-2.08331489562988,9.85463619232178,0.13145196437836,0.57343918085098,1.76948547363281,-1.42346429824829,0.94251531362534
28,1389955660,47.74295425415039,-87.48533630371094,-1.94377756118774,9.89004325866699,0.14709757268429,0.55078762769699,1.72141051292419,-1.41476869583130,1.56054973602295
29,1389972327,47.47117614746094,-87.49876403808594,-1.65294456481934,9.86940670013428,0.19312858581543,0.55596214532852,1.46222245693207,-1.08533799648285,1.78457117080688
30,1389988994,47.22523117065430,-87.51360321044922,-1.38028895854950,9.81325721740723,0.18128600716591,0.52315652370453,1.95714974403381,-1.16152322292328,1.78567254543304
31,1390005661,46.99101638793945,-87.53407287597656,-1.10868155956268,9.82612895965576,0.15112890303135,0.58468216657639,2.55587244033813,-1.42026269435883,2.04692220687866
32,1390022328,46.87086868286133,-87.57263183593750,-0.95761036872864,9.74704170227051,0.21407675743103,0.61891126632690,2.20737290382385,-2.39170098304749,2.61834120750427
33,1390038995,47.04022216796875,-87.62734985351562,-1.14057576656342,9.66189193725586,0.12040884792805,0.58980929851532,-0.50253403186798,-3.66702198982239,2.74598264694214
34,1390055662,47.24079895019531,-87.69268035888672,-1.34262418746948,9.71420097351074,0.09735281020403,0.59188473224640,0.24249465763569,-4.12899827957153,3.21032834053040
35,1390072329,47.49549865722656,-87.76026153564453,-1.59488630294800,9.82730102539062,0.09583015739918,0.61518728733063,0.48914495110512,-4.28275156021118,3.24440574645996
36,1390088996,47.89331436157227,-87.81340789794922,-1.99649202823639,9.80652236938477,0.16304445266724,0.59611123800278,0.13403767347336,-3.93376564979553,2.41130137443542
37,1390105663,48.14002990722656,-87.84223937988281,-2.25089454650879,9.83122730255127,0.22703845798969,0.60964643955231,-0.03905937075615,-2.66343927383423,1.55342960357666
38,1390122330,48.63308334350586,-87.86064147949219,-2.75466346740723,9.81833171844482,0.17706090211868,0.66432017087936,-0.33141553401947,-2.68979454040527,0.76224035024643
39,1390138997,49.59584426879883,-87.88253021240234,-3.71444177627563,9.84354972839355,0.17841668426991,0.63543111085892,0.52968984842300,-3.56317496299744,0.26340740919113
40,1390155664,50.65307617187500,-87.88974761962891,-4.76387357711792,9.91219806671143,0.17710529267788,0.56094259023666,0.82646411657333,-3.15452384948730,-0.47448801994324
41,1390172331,51.29060363769531,-87.87560272216797,-5.39525365829468,9.95624923706055,0.19303667545319,0.57563495635986,0.79579287767410,-1.61417627334595,-0.90054249763489
42,1390188998,51.77873229980469,-87.85652923583984,-5.88130855560303,9.91003608703613,0.21715590357780,0.49406278133392,0.53935867547989,-1.19971179962158,-0.93494039773941
43,1390205665,52.16820526123047,-87.84060668945312,-6.27911138534546,9.90146541595459,0.21805049479008,0.42917084693909,-0.11934237927198,-1.21311998367310,-0.62580794095993
44,1390222332,52.28168487548828,-87.82067108154297,-6.40353202819824,9.92695808410645,0.20001727342606,0.37329167127609,-0.31905737519264,-0.57454407215118,-0.46180975437164
45,1390238999,51.96552276611328,-87.77568817138672,-6.10203838348389,9.94781970977783,0.15122094750404,0.42629879713058,-0.54111951589584,1.11057293415070,-1.03701972961426
46,1390255666,51.42433929443359,-87.72393798828125,-5.57214117050171,9.94357013702393,0.09890566766262,0.50248932838440,-0.35459506511688,1.82738304138184,-1.02175474166870
47,1390272333,50.62349700927734,-87.67653656005859,-4.79012298583984,9.85739612579346,0.11809120327234,0.44375467300415,-0.75001668930054,2.17399978637695,-0.38330686092377
48,1390289000,49.61840057373047,-87.63371276855469,-3.80642485618591,9.74129199981689,0.10349839925766,0.48224604129791,-0.93015074729919,2.41139054298401,0.23212146759033
49,1390305667,48.84761047363281,-87.60379791259766,-3.06907534599304,9.69646263122559,0.10215870290995,0.50000435113907,-1.65062320232391,1.47012412548065,0.50448697805405
50,1390322334,48.32214736938477,-87.57893371582031,-2.56528544425964,9.68053150177002,0.13201236724854,0.45938587188721,-0.94482690095901,0.87311768531799,0.35277009010315
51,1390339001,47.97056198120117,-87.55303955078125,-2.22989606857300,9.69893836975098,0.12925843894482,0.48007363080978,-0.57997393608093,0.59383684396744,0.06583103537560
52,1390355668,47.73234939575195,-87.52986907958984,-1.99009883403778,9.72252368927002,0.13134694099426,0.49284070730209,0.43943071365356,0.29202961921692,0.05577806010842
53,1390372335,47.45251846313477,-87.51076507568359,-1.69762349128723,9.76344490051270,0.15544797480106,0.44675368070602,1.20145976543427,0.26076930761337,0.31636166572571
54,1390389002,47.08620071411133,-87.48899841308594,-1.32389688491821,9.76238632202148,0.19645760953426,0.51054400205612,0.88452816009521,0.52227503061295,0.36593505740166
55,1390405669,46.92581176757812,-87.47462463378906,-1.16279637813568,9.76364994049072,0.16122257709503,0.47010317444801,0.41776227951050,-0.17840525507927,0.30966392159462
56,1390422336,46.83516693115234,-87.45662689208984,-1.06111764907837,9.81927585601807,0.09043726325035,0.47400137782097,1.01444852352142,-0.16006654500961,0.06862282752991
57,1390439003,46.87817001342773,-87.44358062744141,-1.08222937583923,9.86563301086426,0.11610800027847,0.48579058051109,1.64959239959717,-0.58673566579819,0.04379131644964
58,1390455670,46.90806579589844,-87.43555450439453,-1.09844148159027,9.88310146331787,0.16511435806751,0.47199535369873,1.19998693466187,-0.77904868125916,0.27024602890015
59,1390472337,46.93391418457031,-87.42473602294922,-1.12601792812347,9.80364704132080,0.15384843945503,0.48414695262909,0.30178800225258,-0.68670213222504,0.13045188784599
60,1390489004,46.97275924682617,-87.41699981689453,-1.16684031486511,9.76963329315186,0.12320245802402,0.49397197365761,0.28140029311180,-0.85035437345505,0.25322636961937
61,1390505671,46.96567535400391,-87.40943145751953,-1.16049861907959,9.79092121124268,0.15546126663685,0.46682733297348,0.37247908115387,-0.75305175781250,0.33613464236259
62,1390522338,46.83929443359375,-87.40301513671875,-1.04341077804565,9.78734588623047,0.18649205565453,0.49031949043274,-0.13802683353424,-0.57830917835236,0.59060966968536
63,1390539005,46.72895050048828,-87.39473724365234,-0.94807595014572,9.84015750885010,0.14900082349777,0.47252705693245,-0.57139366865158,-0.55758839845657,0.47596713900566
64,1390555672,46.54640960693359,-87.38484191894531,-0.77025836706161,9.90143489837646,0.09150446206331,0.45722156763077,0.09468375146389,-0.32204127311707,0.56273019313812
65,1390572339,46.21823501586914,-87.37088012695312,-0.43936753273010,9.87395095825195,0.17833817005157,0.52976006269455,0.52812743186951,0.15550109744072,0.67622005939484
66,1390589006,45.91116333007812,-87.36122131347656,-0.13490884006023,9.77960777282715,0.18860965967178,0.56532567739487,0.24555535614491,-0.07422560453415,0.82464569807053
67,1390605673,45.67357635498047,-87.35573577880859,0.10600832849741,9.76515007019043,0.14837555587292,0.54538238048553,0.58631956577301,-0.36978331208229,0.88405430316925
68,1390622340,45.56665039062500,-87.35063171386719,0.22399686276913,9.78302955627441,0.18928794562817,0.53863769769669,1.02815151214600,-0.62186354398727,0.65525615215302
69,1390639007,45.47646713256836,-87.34922790527344,0.32568544149399,9.77266788482666,0.16526600718498,0.54249399900436,1.08282172679901,-0.82716214656830,0.80675524473190
70,1390655674,45.45504760742188,-87.35388946533203,0.36487254500389,9.79879283905029,0.17559561133385,0.52059388160706,1.49388003349304,-1.18370378017426,0.92375409603119
71,1390672341,45.27115631103516,-87.35469818115234,0.57298916578293,9.81426620483398,0.16277804970741,0.55928117036819,1.85409688949585,-0.69952130317688,1.09501338005066
72,1390689008,45.16027450561523,-87.35803222656250,0.71119379997253,9.78970241546631,0.14387366175652,0.56337910890579,2.04069828987122,-0.95134538412094,1.07535564899445
73,1390705675,45.15424346923828,-87.36232757568359,0.74353158473969,9.78504657745361,0.20489728450775,0.49409049749374,1.97349059581757,-1.18988919258118,0.89747542142868
74,1390722342,45.07914352416992,-87.36611938476562,0.84967494010925,9.81078052520752,0.15434981882572,0.52390128374100,2.26229906082153,-1.02777361869812,1.02542352676392
75,1390739009,44.94417190551758,-87.36255645751953,1.01854467391968,9.86522769927979,0.14383809268475,0.58888745307922,2.35565781593323,-0.59813338518143,0.83216297626495
76,1390755676,44.89086532592773,-87.36552429199219,1.10755395889282,9.88078498840332,0.19815520942211,0.57084423303604,2.49262166023254,-1.04096412658691,0.96766704320908
77,1390772343,44.72186279296875,-87.36775207519531,1.30833017826080,9.84835243225098,0.25548371672630,0.50534218549728,2.27027773857117,-0.78054702281952,1.14150035381317
78,1390789010,44.42481231689453,-87.36136627197266,1.62821197509766,9.82867717742920,0.20750318467617,0.51496636867523,1.78430223464966,-0.18090248107910,1.01583158969879
79,1390805677,44.00083160400391,-87.34951782226562,2.06621050834656,9.79652786254883,0.15361227095127,0.54795449972153,1.22534358501434,0.27261519432068,1.03637313842773
80,1390822344,43.67423629760742,-87.35018920898438,2.40570020675659,9.81097602844238,0.20067898929119,0.57397627830505,1.13326597213745,-0.45687931776047,1.36803185939789
81,1390839011,43.37292480468750,-87.36003112792969,2.72054433822632,9.79421138763428,0.19920465350151,0.54202640056610,1.19248259067535,-0.90012001991272,1.69196856021881
82,1390855678,43.04742813110352,-87.36589050292969,3.06266975402832,9.80164909362793,0.19711610674858,0.53703016042709,1.35083293914795,-0.68047821521759,1.57947754859924
83,1390872345,42.69214630126953,-87.35691833496094,3.43633317947388,9.79948329925537,0.16545598208904,0.54289978742599,1.48579919338226,0.01903663948178,1.04987108707428
84,1390889012,42.49090576171875,-87.34989929199219,3.65648341178894,9.77806377410889,0.16807305812836,0.57238703966141,1.54032850265503,-0.34899863600731,0.82091897726059
85,1390905679,42.40477752685547,-87.34982299804688,3.75923466682434,9.78886413574219,0.18158215284348,0.58386284112930,1.39789628982544,-0.88175553083420,0.87001854181290
86,1390922346,42.40953826904297,-87.35277557373047,3.77179408073425,9.79489898681641,0.18740765750408,0.59406274557114,1.42435407638550,-1.18474078178406,0.80688315629959
87,1390939013,42.59436798095703,-87.36040496826172,3.60615944862366,9.78706645965576,0.17916727066040,0.58728498220444,1.58951783180237,-1.70863604545593,0.62404704093933
88,1390955680,42.82273101806641,-87.36596679687500,3.39092087745667,9.82059192657471,0.21681287884712,0.56245666742325,1.12138164043427,-1.73049652576447,0.45436292886734
89,1390972347,42.99979400634766,-87.36500549316406,3.22176623344421,9.80546569824219,0.20913875102997,0.60382121801376,0.87772798538208,-1.35150516033173,0.28405120968819
90,1390989014,43.21762084960938,-87.36522674560547,3.00450730323792,9.80112457275391,0.18298438191414,0.62164330482483,0.46789917349815,-1.48703491687775,0.23068715631962
91,1391005681,43.54290390014648,-87.36946868896484,2.68159484863281,9.78748321533203,0.18616504967213,0.60682111978531,0.59555286169052,-1.86429715156555,0.18973246216774
92,1391022348,43.92631149291992,-87.37527465820312,2.30316281318665,9.78411197662354,0.18504256010056,0.58797991275787,0.68386548757553,-2.04242086410522,0.14748433232307
93,1391039015,44.37969970703125,-87.38311767578125,1.85118126869202,9.79350566864014,0.18230642378330,0.58485978841782,0.49923634529114,-2.27298617362976,0.10104849934578
94,1391055682,44.72394943237305,-87.38565826416016,1.50040376186371,9.84141731262207,0.13720552623272,0.57494336366653,0.01765355281532,-1.85136270523071,0.08260735869408
95,1391072349,44.88613128662109,-87.38132476806641,1.32339489459991,9.85908031463623,0.14035332202911,0.56270498037338,-0.47191399335861,-1.21922862529755,0.12462499737740
96,1391089016,44.97575759887695,-87.37512969970703,1.21954333782196,9.83458328247070,0.14755125343800,0.59588617086411,-0.37803065776825,-1.00172543525696,0.19526481628418
97,1391105683,45.05749511718750,-87.37088012695312,1.13657712936401,9.81809806823730,0.16379614174366,0.55724430084229,0.33913135528564,-1.05651104450226,0.32439124584198
98,1391122350,45.10750579833984,-87.36567687988281,1.08814775943756,9.82248878479004,0.16591925919056,0.59620916843414,0.47377729415894,-0.94512134790421,0.34174379706383
99,1391139017,45.23867416381836,-87.36136627197266,0.95574378967285,9.84039115905762,0.16913363337517,0.58147263526917,0.30361932516098,-1.14981806278229,0.22013475000858
100,1391155684,45.30337905883789,-87.35980987548828,0.89464640617371,9.82980537414551,0.16066429018974,0.57828539609909,0.58794593811035,-1.12519145011902,0.47153624892235
101,1391172351,45.34028244018555,-87.36180877685547,0.85671633481979,9.81644248962402,0.17192310094833,0.60986471176147,0.34036079049110,-1.23060059547424,0.67209643125534
102,1391189018,45.40117263793945,-87.36225891113281,0.79137468338013,9.80579757690430,0.18967287242413,0.55962520837784,0.19456048309803,-1.21641111373901,0.55573791265488
103,1391205685,45.48953247070312,-87.36151885986328,0.69538754224777,9.81140899658203,0.15041463077068,0.52584451436996,-0.04260672628880,-1.22974264621735,0.44629490375519
104,1391222352,45.49936294555664,-87.35958862304688,0.67791169881821,9.88550662994385,0.12869203090668,0.57171571254730,-0.05141749233007,-1.02016651630402,0.54002457857132
105,1391239019,45.48664855957031,-87.36144256591797,0.68955832719803,9.86546516418457,0.16792987287045,0.59947931766510,0.34506070613861,-1.13112080097198,0.76847708225250
106,1391255686,45.43750381469727,-87.36373901367188,0.74064326286316,9.82809448242188,0.18793365359306,0.52180910110474,0.52468258142471,-1.05416750907898,0.84325337409973
107,1391272353,45.22254562377930,-87.35469818115234,0.94915860891342,9.80138969421387,0.18433560431004,0.54445970058441,0.03457074239850,-0.26958644390106,0.66977846622467
108,1391289020,45.06129455566406,-87.35195922851562,1.09868764877319,9.79731178283691,0.15905867516994,0.55331790447235,-0.27793622016907,-0.66074365377426,0.83779782056808
109,1391305687,44.87981414794922,-87.35373687744141,1.27183008193970,9.78779315948486,0.20620505511761,0.51694267988205,-0.09194959700108,-0.81705778837204,1.08562624454498
110,1391322354,44.62218475341797,-87.35469818115234,1.51971578598022,9.81274318695068,0.18439865112305,0.53518509864807,-0.15299746394157,-0.61881560087204,1.18039333820343
111,1391339021,44.38094329833984,-87.35373687744141,1.74625635147095,9.80673217773438,0.16076068580151,0.57210987806320,-0.51367551088333,-0.59089773893356,1.06488001346588
112,1391355688,44.11510467529297,-87.34982299804688,1.99882113933563,9.81098079681396,0.15916283428669,0.54521721601486,-0.34376081824303,-0.40447574853897,0.99211424589157
113,1391372355,43.88073730468750,-87.34864044189453,2.21601200103760,9.79314708709717,0.17064277827740,0.54091888666153,-0.68105453252792,-0.61380833387375,1.05386662483215
114,1391389022,43.69982528686523,-87.35121917724609,2.37376356124878,9.78142166137695,0.14087389409542,0.52254384756088,-0.93446648120880,-0.87375158071518,1.08251428604126
115,1391405689,43.50772094726562,-87.35144805908203,2.55121111869812,9.80019950866699,0.12136618047953,0.54368931055069,-0.42126491665840,-0.72362285852432,1.01342415809631
116,1391422356,43.40565872192383,-87.35417938232422,2.65240120887756,9.84120941162109,0.12450154125690,0.54753839969635,0.32914242148399,-0.99554002285004,0.97424942255020
117,1391439023,43.35128784179688,-87.35780334472656,2.70392346382141,9.82265853881836,0.10202216356993,0.53791838884354,0.23385035991669,-1.13081347942352,0.91607034206390
118,1391455690,43.32418441772461,-87.36114501953125,2.73290657997131,9.79664230346680,0.12879584729671,0.52955502271652,0.53638756275177,-1.16098535060883,0.85849297046661
119,1391472357,43.32519912719727,-87.36403656005859,2.73146700859070,9.82432556152344,0.17804923653603,0.53138703107834,0.47980910539627,-1.19269382953644,0.78170597553253
120,1391489024,43.22689437866211,-87.36916351318359,2.82684659957886,9.79478549957275,0.16427052021027,0.51860970258713,0.27575275301933,-1.09486603736877,1.04743778705597
121,1391505691,43.11156845092773,-87.37422943115234,2.93901371955872,9.78295707702637,0.17319214344025,0.53939932584763,0.25750368833542,-1.07369720935822,1.09255456924438
122,1391522358,42.97124099731445,-87.38162231445312,3.07806992530823,9.80096054077148,0.14399826526642,0.51765674352646,0.34412583708763,-1.13119781017303,1.24260652065277
123,1391539025,42.79413986206055,-87.38798522949219,3.25476670265198,9.80538845062256,0.15600231289864,0.54797548055649,0.33927226066589,-1.03129553794861,1.28426563739777
124,1391555692,42.74295806884766,-87.39556121826172,3.29839348793030,9.81659698486328,0.13110038638115,0.54213494062424,-0.03305318951607,-1.29199421405792,1.02970087528229
125,1391572359,42.69849014282227,-87.39608764648438,3.34492135047913,9.81195640563965,0.10885152220726,0.50929099321365,0.56121909618378,-1.01348173618317,0.78777623176575
126,1391589026,42.66349792480469,-87.39196014404297,3.38842964172363,9.81423854827881,0.12449654936790,0.52257907390594,0.96565634012222,-0.79810458421707,0.57795703411102
127,1391605693,42.70370101928711,-87.38775634765625,3.35776782035828,9.81014919281006,0.11533126980066,0.56902974843979,1.04012537002563,-0.93158507347107,0.42735427618027
128,1391622360,42.76800537109375,-87.38910675048828,3.29442644119263,9.79239082336426,0.15236842632294,0.57161843776703,0.48740333318710,-1.23492920398712,0.58225989341736
129,1391639027,42.82442092895508,-87.39210510253906,3.24670410156250,9.83415699005127,0.13451516628265,0.56018751859665,0.96802556514740,-1.28308093547821,0.68713104724884
130,1391655694,42.78657150268555,-87.39631652832031,3.29456162452698,9.86212921142578,0.15394298732281,0.54013776779175,1.01662564277649,-1.16623580455780,0.93191152811050
131,1391672361,42.63057708740234,-87.39391326904297,3.44580006599426,9.83808135986328,0.17023460566998,0.53127580881119,0.18336771428585,-0.67022025585175,0.85991430282593
132,1391689028,42.47101974487305,-87.38423919677734,3.59479641914368,9.82705974578857,0.14824451506138,0.53239357471466,-0.18354061245918,-0.35743802785873,0.56547075510025
133,1391705695,42.34071731567383,-87.37036132812500,3.72325825691223,9.85316371917725,0.12100075185299,0.55655837059021,0.35643270611763,-0.20519612729549,0.35732915997505
134,1391722362,42.31082534790039,-87.36084747314453,3.75885558128357,9.84243774414062,0.14494031667709,0.60276538133621,0.71420377492905,-0.57738715410233,0.34577786922455
135,1391739029,42.33707427978516,-87.35973358154297,3.74224233627319,9.82286739349365,0.16639095544815,0.51653116941452,0.98119050264359,-1.03146183490753,0.56650811433792
136,1391755696,42.14027404785156,-87.34893035888672,3.94468998908997,9.80300617218018,0.15167114138603,0.48376527428627,0.76709383726120,-0.20848736166954,0.64069515466690
137,1391772363,41.89707183837891,-87.33596801757812,4.19078445434570,9.77197647094727,0.16016167402267,0.52983504533768,0.61962884664536,-0.02191166579723,0.64467805624008
138,1391789030,41.63135147094727,-87.32467651367188,4.45436429977417,9.78474235534668,0.19346208870411,0.54841852188110,0.31098297238350,-0.06565815210342,0.75725865364075
139,1391805697,41.34506225585938,-87.32255554199219,4.73434686660767,9.79562664031982,0.15606759488583,0.52852761745453,0.06773918867111,-0.44493103027344,1.16278457641602
140,1391822364,41.00857543945312,-87.32109069824219,5.06864309310913,9.82358741760254,0.18699732422829,0.49113667011261,0.31648972630501,-0.38347333669662,1.31137669086456
141,1391839031,40.65845870971680,-87.31270599365234,5.41515111923218,9.79906940460205,0.17136563360691,0.54020649194717,0.17328912019730,-0.03854710981250,1.05741381645203
142,1391855698,40.43630599975586,-87.30267333984375,5.63265705108643,9.78463268280029,0.15371619164944,0.55901467800140,0.15561635792255,-0.21008817851543,0.73904806375504
143,1391872365,40.33887100219727,-87.29853820800781,5.72397422790527,9.79493427276611,0.14203855395317,0.56300652027130,0.14246425032616,-0.68105453252792,0.68029254674911
144,1391889032,40.22158432006836,-87.29448699951172,5.83897590637207,9.81153964996338,0.12472103536129,0.58301591873169,0.29923954606056,-0.67022025585175,0.75729709863663
145,1391905699,40.22039413452148,-87.29427337646484,5.83653831481934,9.79313087463379,0.12732958793640,0.61108922958374,0.23475958406925,-1.04379427433014,0.63767296075821
146,1391922366,40.37012863159180,-87.29665374755859,5.68430566787720,9.78971958160400,0.13506865501404,0.54983389377594,0.29679360985756,-1.44339096546173,0.42157864570618
147,1391939033,40.50401687622070,-87.29592895507812,5.54638528823853,9.80329036712646,0.15537378191948,0.53432726860046,0.19285720586777,-1.28445124626160,0.33928504586220
148,1391955700,40.57718276977539,-87.29534912109375,5.46962833404541,9.80373191833496,0.16942101716995,0.55353081226349,0.29217043519020,-1.17061555385590,0.47631296515465
149,1391972367,40.67118453979492,-87.29673004150391,5.37432813644409,9.81027603149414,0.15579248964787,0.55787193775177,0.38785952329636,-1.30080497264862,0.51469355821609
150,1391989034,40.78865432739258,-87.30231475830078,5.25571537017822,9.80805206298828,0.16275699436665,0.55013436079025,0.40575000643730,-1.51272463798523,0.61104857921600
151,1392005701,40.88252639770508,-87.30950164794922,5.16496181488037,9.82234764099121,0.16906027495861,0.53208988904953,0.64990299940109,-1.55544638633728,0.75463330745697
152,1392022368,40.95735168457031,-87.31649780273438,5.09281492233276,9.83660602569580,0.15839926898479,0.58099472522736,0.62956655025482,-1.49998223781586,0.77649378776550
153,1392039035,40.98619842529297,-87.32277679443359,5.06352424621582,9.81098175048828,0.15989466011524,0.56434017419815,0.41143602132797,-1.38536548614502,0.83473712205887
154,1392055702,41.00358963012695,-87.33097839355469,5.03574848175049,9.83230686187744,0.14691454172134,0.57051318883896,-0.18765145540237,-1.48745763301849,0.93201422691345
155,1392072369,41.04182052612305,-87.33685302734375,4.99403238296509,9.80945396423340,0.15664900839329,0.53700053691864,0.24692562222481,-1.40285873413086,0.80766445398331
156,1392089036,41.04817962646484,-87.33802795410156,4.98506069183350,9.81831932067871,0.17368787527084,0.57328587770462,0.29745945334435,-1.12425661087036,0.68633705377579
157,1392105703,41.08282089233398,-87.33891296386719,4.93767690658569,9.83701515197754,0.18777020275593,0.56697946786880,-0.25824007391930,-1.17398357391357,0.59244096279144
158,1392122370,41.12351226806641,-87.34229278564453,4.88413333892822,9.83695507049561,0.16554577648640,0.58335220813751,-0.29475092887878,-1.30199587345123,0.67931920289993
159,1392139037,41.07557678222656,-87.34775543212891,4.92495489120483,9.84160709381104,0.14641116559505,0.55294966697693,0.04262593761086,-1.23325145244598,0.96746218204498
160,1392155704,40.94117736816406,-87.35085296630859,5.04922914505005,9.82980918884277,0.16278202831745,0.55201762914658,-0.15642955899239,-0.96512496471405,1.03796112537384
161,1392172371,40.83121871948242,-87.35056304931641,5.14714193344116,9.80670356750488,0.14357766509056,0.53136527538300,-0.23377987742424,-0.85887062549591,0.85226881504059
162,1392189038,40.70193481445312,-87.34922790527344,5.26401758193970,9.81334590911865,0.13161063194275,0.55758202075958,-0.32108083367348,-0.77789604663849,0.84545606374741
163,1392205705,40.63823699951172,-87.34619903564453,5.31694221496582,9.84500789642334,0.10837613791227,0.60421663522720,-0.15505927801132,-0.82488256692886,0.65973830223083
164,1392222372,40.69994735717773,-87.34539031982422,5.25904941558838,9.83845329284668,0.12524390220642,0.58297455310822,0.68930816650391,-1.11735403537750,0.50230985879898
165,1392239039,40.73843765258789,-87.34429168701172,5.23404169082642,9.82747459411621,0.16022025048733,0.49120536446571,1.27859222888947,-1.05182385444641,0.56795519590378
166,1392255706,40.54757308959961,-87.33274078369141,5.43615293502808,9.82424640655518,0.16225169599056,0.52657407522202,1.14965796470642,-0.15176804363728,0.62758159637451
167,1392272373,40.39472198486328,-87.32395172119141,5.59235239028931,9.78739452362061,0.15308077633381,0.53986006975174,0.69667184352875,-0.36229163408279,0.64695763587952
168,1392289040,40.27002334594727,-87.32160949707031,5.71645545959473,9.77874469757080,0.17976185679436,0.53797793388367,0.45520815253258,-0.71673297882080,0.83209908008575
169,1392305707,40.17721176147461,-87.31941223144531,5.80821418762207,9.80497455596924,0.14376638829708,0.52042174339294,0.41283190250397,-0.78710383176804,0.77443200349808
170,1392322374,40.06175613403320,-87.31118011474609,5.92193651199341,9.80788803100586,0.13504831492901,0.54687005281448,0.32609447836876,-0.46581822633743,0.57951933145523
171,1392339041,39.99114608764648,-87.30085754394531,5.99318027496338,9.81919956207275,0.14036971330643,0.53546911478043,0.49644452333450,-0.44742822647095,0.41472724080086
172,1392355708,39.93079757690430,-87.29419708251953,6.05390644073486,9.81001758575439,0.14066582918167,0.52573317289352,0.48067989945412,-0.63239032030106,0.53127771615982
173,1392372375,39.84416961669922,-87.28776550292969,6.13931798934937,9.81170368194580,0.12603667378426,0.55824106931686,0.43781703710556,-0.59406095743179,0.59657746553421
174,1392389042,39.80235290527344,-87.28199768066406,6.18311691284180,9.80194568634033,0.11216832697392,0.58274614810944,0.60012471675873,-0.70831918716431,0.53724557161331
175,1392405709,39.82300949096680,-87.28077697753906,6.16776895523071,9.81959819793701,0.14223963022232,0.53811120986938,0.83303385972977,-1.00570833683014,0.56906932592392
176,1392422376,39.87473678588867,-87.28157043457031,6.12036466598511,9.82619094848633,0.14373245835304,0.52009862661362,0.72941762208939,-1.19275760650635,0.60465818643570
177,1392439043,39.89300537109375,-87.27998352050781,6.10783720016479,9.84657859802246,0.15373110771179,0.49915808439255,0.81811445951462,-0.99049431085587,0.56426697969437
178,1392455710,39.85528564453125,-87.27466583251953,6.15285921096802,9.82901382446289,0.18954978883266,0.49846437573433,0.90057456493378,-0.71623349189758,0.54720890522003
179,1392472377,39.79824066162109,-87.26878356933594,6.21416234970093,9.79174900054932,0.16553881764412,0.53691768646240,0.73753690719604,-0.66084611415863,0.56362664699554
180,1392489044,39.69099044799805,-87.26977539062500,6.32092571258545,9.77838611602783,0.13849022984505,0.55342572927475,0.51380997896194,-0.90051692724228,0.93930095434189
181,1392505711,39.60898971557617,-87.27351379394531,6.39859151840210,9.79377555847168,0.13754640519619,0.56976163387299,0.19978545606136,-1.09293234348297,0.98480200767517
182,1392522378,39.56185531616211,-87.27767944335938,6.44819545745850,9.76898002624512,0.15097972750664,0.51595610380173,0.49732822179794,-1.14381182193756,0.91098612546921
183,1392539045,39.49941635131836,-87.27660369873047,6.51397943496704,9.79381179809570,0.13855639100075,0.49514254927635,0.68019002676010,-0.88618654012680,0.76897644996643
184,1392555712,39.41004943847656,-87.27164459228516,6.61016798019409,9.80531215667725,0.13694429397583,0.51626688241959,0.88545030355453,-0.63367104530334,0.67338991165161
185,1392572379,39.38184738159180,-87.26913452148438,6.64279127120972,9.81343173980713,0.17756998538971,0.51468157768250,0.77732622623444,-0.87282961606979,0.64052879810333
186,1392589046,39.31837463378906,-87.27006530761719,6.70661926269531,9.82439708709717,0.17680008709431,0.53228151798248,0.49116829037666,-0.97376918792725,0.83434003591537
187,1392605713,39.25405883789062,-87.26849365234375,6.76787137985229,9.82788944244385,0.14595326781273,0.53833591938019,0.31157207489014,-0.84932988882065,0.72606241703033
188,1392622380,39.18084335327148,-87.26605987548828,6.83370018005371,9.82493400573730,0.13688418269157,0.55365657806396,0.03215033933520,-0.82850682735443,0.72579342126846
189,1392639047,39.16907119750977,-87.26519775390625,6.84511232376099,9.79994583129883,0.13009054958820,0.58932852745056,0.44331103563309,-0.98582011461258,0.65181124210358
190,1392655714,39.20470428466797,-87.26799011230469,6.80635166168213,9.77944564819336,0.14022213220596,0.56007832288742,0.29188874363899,-1.24251055717468,0.67716777324677
191,1392672381,39.21778106689453,-87.27108001708984,6.79097938537598,9.79661655426025,0.15211948752403,0.51806336641312,0.37664112448692,-1.21062266826630,0.74136608839035
192,1392689048,39.18637847900391,-87.27157592773438,6.81719303131104,9.79744243621826,0.13509592413902,0.51055747270584,0.21365475654602,-1.00898671150208,0.72952020168304
193,1392705715,39.10697174072266,-87.26749420166016,6.89282321929932,9.83880329132080,0.14470483362675,0.60218900442123,0.19904269278049,-0.73626267910004,0.68328922986984
194,1392722382,39.08615493774414,-87.26950073242188,6.91208600997925,9.85156726837158,0.11654962599277,0.62995356321335,0.37182596325874,-1.10502147674561,0.77814579010010
195,1392739049,39.09662628173828,-87.27581024169922,6.90839767456055,9.86561012268066,0.13468641042709,0.55820131301880,0.88534772396088,-1.33175802230835,0.87793290615082
196,1392755716,38.97301864624023,-87.26956939697266,7.03918027877808,9.86761188507080,0.13669379055500,0.51887661218643,0.89344137907028,-0.51913100481033,0.71279495954514
197,1392772383,38.89170074462891,-87.25991058349609,7.12467956542969,9.81968402862549,0.17474430799484,0.55281203985214,0.77175539731979,-0.44213920831680,0.49106585979462
198,1392789050,38.71394729614258,-87.25198364257812,7.30308580398560,9.82282352447510,0.15447349846363,0.56791466474533,0.53524780273438,-0.34911388158798,0.75905150175095
199,1392805717,38.56767272949219,-87.24608612060547,7.44594860076904,9.82111263275146,0.10948233306408,0.58115595579147,0.27653390169144,-0.50682413578033,0.75647747516632
200,1392822384,38.54501342773438,-87.23941040039062,7.47351551055908,9.79878711700439,0.11443860083818,0.57553589344025,0.80872726440430,-0.68019646406174,0.47572386264801
201,1392839051,38.60363006591797,-87.23218536376953,7.42715120315552,9.77650547027588,0.09185385704041,0.59328961372375,1.18661725521088,-0.78054696321487,0.27484345436096
202,1392855718,38.74747085571289,-87.22837066650391,7.28906345367432,9.78504753112793,0.12502644956112,0.59654068946838,0.82748872041702,-1.11133503913879,0.20212902128696
203,1392872385,38.86271286010742,-87.22921752929688,7.17723464965820,9.77464771270752,0.15831862390041,0.61068373918533,0.70188403129578,-1.28815233707428,0.44229933619499
204,1392889052,38.92534255981445,-87.22992706298828,7.11399602890015,9.79621315002441,0.15826463699341,0.58645677566528,0.45073863863945,-1.19540846347809,0.54697829484940
205,1392905719,39.00983428955078,-87.23204040527344,7.03532123565674,9.82158470153809,0.12999916076660,0.58750313520432,0.82752716541290,-1.27520513534546,0.55394512414932
206,1392922386,39.10577392578125,-87.23501586914062,6.94733810424805,9.83475303649902,0.15461038053036,0.59789365530014,0.95598763227463,-1.34916186332703,0.58091527223587
207,1392939053,39.22140884399414,-87.23416900634766,6.83460235595703,9.85725975036621,0.15873400866985,0.58287423849106,0.65745884180069,-1.20615327358246,0.37191563844681
208,1392955720,39.34008789062500,-87.23097991943359,6.71818780899048,9.82772159576416,0.12735034525394,0.57274764776230,0.61136877536774,-1.09831094741821,0.26908063888550
209,1392972387,39.41089248657227,-87.22717285156250,6.65469455718994,9.80879116058350,0.12694406509399,0.56597208976746,0.91956639289856,-0.98316901922226,0.37304258346558
210,1392989054,39.43484115600586,-87.22110748291016,6.63888549804688,9.81947708129883,0.16183614730835,0.57017987966537,1.04905128479004,-0.79068964719772,0.40070426464081
211,1393005721,39.41033172607422,-87.21540069580078,6.67066955566406,9.83627510070801,0.18518927693367,0.55385369062424,0.90604287385941,-0.71351861953735,0.50846976041794
212,1393022388,39.35275650024414,-87.20782470703125,6.73097181320190,9.82528305053711,0.16547124087811,0.58886498212814,0.64986461400986,-0.57827073335648,0.50718903541565
213,1393039055,39.24483489990234,-87.19802856445312,6.83987283706665,9.82049465179443,0.16009306907654,0.59296023845673,0.53047102689743,-0.38629072904587,0.53479957580566
214,1393055722,39.10404586791992,-87.18944549560547,6.97842550277710,9.81342411041260,0.16610409319401,0.58856147527695,0.33362460136414,-0.38832688331604,0.65060740709305
215,1393072389,39.02998352050781,-87.18651580810547,7.04773378372192,9.80591583251953,0.14431490004063,0.59604203701019,0.18358542025089,-0.75772607326508,0.68987160921097
216,1393089056,38.96476745605469,-87.18297576904297,7.11082887649536,9.82646560668945,0.12616775929928,0.57543903589249,0.36015936732292,-0.76622951030731,0.67684757709503
217,1393105723,38.95541381835938,-87.17700195312500,7.12091255187988,9.83749198913574,0.12044661492109,0.58352571725845,0.52688521146774,-0.74490684270859,0.45846086740494
218,1393122390,38.97298049926758,-87.17001342773438,7.10604333877563,9.82522296905518,0.12603722512722,0.60362911224365,0.60016316175461,-0.74024546146393,0.35653519630432
219,1393139057,39.06312561035156,-87.16179656982422,7.02012252807617,9.80651378631592,0.13703028857708,0.61430037021637,0.72952008247375,-0.81319040060043,0.14688241481781
220,1393155724,39.18742370605469,-87.15421295166016,6.90723657608032,9.78413009643555,0.15060245990753,0.63180500268936,1.17089104652405,-0.89757150411606,0.11008977890015
221,1393172391,39.35968780517578,-87.14926910400391,6.73865985870361,9.78237628936768,0.16482900083065,0.60949492454529,0.72225892543793,-1.12994265556335,0.08568087965250
222,1393189058,39.50587844848633,-87.14748382568359,6.58982181549072,9.77312183380127,0.20039729773998,0.55615872144699,0.38071358203888,-1.23498034477234,0.25010162591934
223,1393205725,39.57025909423828,-87.14562988281250,6.51422262191772,9.81257820129395,0.15537552535534,0.54557669162750,-0.12601448595524,-1.08847570419312,0.41228121519089
224,1393222392,39.54835128784180,-87.13658905029297,6.52952718734741,9.85093784332275,0.13461193442345,0.58767467737198,0.08402886241674,-0.58930981159210,0.34529119729996
225,1393239059,39.61068344116211,-87.12785339355469,6.46315050125122,9.85852336883545,0.14004427194595,0.65000784397125,0.21976335346699,-0.76649838685989,0.17435204982758
226,1393255726,39.68078231811523,-87.12540435791016,6.39226245880127,9.84667205810547,0.15880452096462,0.54227924346924,0.47697889804840,-1.05544817447662,0.39874488115311
227,1393272393,39.58098220825195,-87.11316680908203,6.49187183380127,9.86172103881836,0.15601204335690,0.50435966253281,0.43821406364441,-0.28560718894005,0.42275679111481
228,1393289060,39.52226257324219,-87.10071563720703,6.54510402679443,9.78603363037109,0.16447693109512,0.54762822389603,0.16951124370098,-0.36056274175644,0.30906203389168
229,1393305727,39.36542129516602,-87.08744812011719,6.69356393814087,9.79134845733643,0.15137374401093,0.54017889499664,0.04357360303402,-0.12552782893181,0.49867281317711
230,1393322394,39.18997955322266,-87.08140563964844,6.86073255538940,9.81412887573242,0.15582038462162,0.58112299442291,-0.08888888359070,-0.43267536163330,0.81538677215576
231,1393339061,39.09941864013672,-87.07644653320312,6.94755172729492,9.77905654907227,0.14045093953609,0.54515027999878,0.26074370741844,-0.63872951269150,0.67584878206253
232,1393355728,39.10471343994141,-87.06575775146484,6.94034147262573,9.78176021575928,0.12535679340363,0.58463120460510,0.38908892869949,-0.54941797256470,0.23465712368488
233,1393372395,39.13135147094727,-87.05563354492188,6.90806484222412,9.78686714172363,0.14668886363506,0.63210892677307,0.20681613683701,-0.63621944189072,0.21036349236965
234,1393389062,39.20223617553711,-87.05470275878906,6.82478475570679,9.78019046783447,0.13548710942268,0.60727459192276,-0.21300803124905,-1.14998471736908,0.42396065592766
235,1393405729,39.25696945190430,-87.05490112304688,6.75647449493408,9.84513092041016,0.14181767404079,0.58511185646057,-0.31416535377502,-1.17316412925720,0.49799415469170
236,1393422396,39.32477188110352,-87.05097961425781,6.68246412277222,9.84916782379150,0.13786707818508,0.59307020902634,0.13622751832008,-0.99328601360321,0.32951375842094
237,1393439063,39.43630218505859,-87.04939270019531,6.56902837753296,9.83027553558350,0.15229254961014,0.59501224756241,0.38665571808815,-1.18868541717529,0.33252328634262
238,1393455730,39.58612060546875,-87.04952239990234,6.41542673110962,9.84290122985840,0.15628020465374,0.56830722093582,0.24280196428299,-1.34859836101532,0.30018723011017
239,1393472397,39.61158752441406,-87.04395294189453,6.38806056976318,9.86641693115234,0.17339438199997,0.54098230600357,0.38976761698723,-0.82650893926620,0.37632092833519
240,1393489064,39.47676086425781,-87.03575897216797,6.52456045150757,9.83222961425781,0.22890175879002,0.56012046337128,0.63494515419006,-0.40027523040771,0.68665724992752
241,1393505731,39.26769256591797,-87.03258514404297,6.73068237304688,9.77981185913086,0.23366537690163,0.57577544450760,0.32564625144005,-0.47573027014732,1.02705001831055
242,1393522398,38.99691772460938,-87.03343963623047,6.99639272689819,9.80557155609131,0.23238001763821,0.59526681900024,0.19199919700623,-0.54451316595078,1.32319676876068
243,1393539065,38.70309066772461,-87.02783966064453,7.28319454193115,9.80900478363037,0.17663905024529,0.57015383243561,0.05043780431151,-0.21232926845551,1.13791441917419
244,1393555732,38.45444107055664,-87.01902770996094,7.52427148818970,9.80147457122803,0.13815817236900,0.60401105880737,-0.01312650833279,-0.15817122161388,0.91491758823395
245,1393572399,38.32547760009766,-87.01436614990234,7.65090799331665,9.80168724060059,0.12838406860828,0.59772062301636,0.33215188980103,-0.57663148641586,0.79878962039948
246,1393589066,38.20824050903320,-87.01358032226562,7.76660633087158,9.79808521270752,0.14989660680294,0.58198326826096,0.41536757349968,-0.77279919385910,0.91420054435730
247,1393605733,38.08409118652344,-87.01286315917969,7.89256095886230,9.82454967498779,0.16195017099380,0.60637015104294,0.63776254653931,-0.75023436546326,0.93930083513260
248,1393622400,37.96887207031250,-87.01456451416016,8.01106643676758,9.82278537750244,0.16964682936668,0.58519917726517,0.68290501832962,-0.88020610809326,1.00688016414642
249,1393639067,37.89780426025391,-87.01797485351562,8.08256912231445,9.80793762207031,0.19282811880112,0.58137863874435,0.49315333366394,-1.06844663619995,0.96656566858292
250,1393655734,37.87519454956055,-87.01889038085938,8.09946250915527,9.81244754791260,0.17289292812347,0.57453203201294,0.17013876140118,-1.03891527652740,0.72975063323975
251,1393672401,37.87665557861328,-87.01817321777344,8.09017944335938,9.80424690246582,0.15348556637764,0.57708603143692,0.02943539433181,-1.01473665237427,0.60929405689240
252,1393689068,37.93119049072266,-87.01528930664062,8.03372764587402,9.79738998413086,0.17908392846584,0.55774337053299,0.42594560980797,-1.00221216678619,0.41470161080360
253,1393705735,37.93270492553711,-87.00866699218750,8.03448009490967,9.79649639129639,0.18283377587795,0.53264588117599,0.64579212665558,-0.72199636697769,0.42066934704781
254,1393722402,37.91433334350586,-87.00833892822266,8.05007839202881,9.80578231811523,0.20821110904217,0.56559586524963,0.31239169836044,-0.98334830999374,0.68147069215775
255,1393739069,37.81537628173828,-87.00997924804688,8.13321495056152,9.83206462860107,0.19311858713627,0.54303485155106,-0.45636710524559,-0.94640213251114,0.92137217521667
256,1393755736,37.65256881713867,-87.00736236572266,8.27014160156250,9.86206436157227,0.12898086011410,0.56908577680588,-1.04353833198547,-0.64787322282791,0.90464693307877
257,1393772403,37.44239044189453,-86.99475860595703,8.46776580810547,9.90469264984131,0.08842528611422,0.54888015985489,-0.31325611472130,-0.05905007570982,0.68800193071365
258,1393789070,37.17492675781250,-86.97185516357422,8.73612499237061,9.87479972839355,0.13461595773697,0.54305505752563,0.53428721427917,0.58503884077072,0.48872229456902
259,1393805737,36.83698272705078,-86.94386291503906,9.06989860534668,9.84321689605713,0.16316585242748,0.57159149646759,0.23251850903034,0.95714026689529,0.48849183320999
260,1393822404,36.62603759765625,-86.92987060546875,9.28179645538330,9.77169322967529,0.18155924975872,0.57992464303970,0.52331227064133,0.03863035514951,0.70612293481827
261,1393839071,36.24969100952148,-86.92285919189453,9.65628242492676,9.74250507354736,0.19700914621353,0.55041044950485,0.38501650094986,0.02970433048904,1.37137448787689
262,1393855738,35.86688995361328,-86.92253875732422,10.03580665588379,9.80665969848633,0.15797659754753,0.52917486429214,0.29742103815079,-0.30544421076775,1.64270257949829
263,1393872405,35.47948455810547,-86.91313934326172,10.41928672790527,9.79169940948486,0.14361293613911,0.56326657533646,0.25012722611427,0.15520657598972,1.32872927188873
264,1393889072,35.26657104492188,-86.90016937255859,10.62226009368896,9.76555252075195,0.16193424165249,0.62337225675583,-0.05870430171490,-0.01126958709210,0.74478524923325
265,1393905739,35.16676712036133,-86.89833831787109,10.71134567260742,9.79008007049561,0.17488974332809,0.58747488260269,-0.10360337793827,-0.77113437652588,0.83363586664200
266,1393922406,35.01035308837891,-86.89783477783203,10.85158729553223,9.81954669952393,0.16751536726952,0.56985920667648,-0.44171664118767,-0.72729831933975,1.00472867488861
267,1393939073,34.81375122070312,-86.89688110351562,11.03322601318359,9.84701251983643,0.13446803390980,0.56656628847122,-0.41338902711868,-0.65855377912521,1.11885881423950
268,1393955740,34.67087554931641,-86.90180969238281,11.16556835174561,9.85716819763184,0.17027375102043,0.59489756822586,-0.13730968534946,-1.02566063404083,1.17772960662842
269,1393972407,34.54887008666992,-86.90940093994141,11.27061653137207,9.86278915405273,0.16283847391605,0.56260168552399,-0.50928288698196,-1.20952141284943,1.19788682460785
270,1393989074,34.34934997558594,-86.90844726562500,11.46032333374023,9.85129833221436,0.12998832762241,0.53085792064667,-0.05727000162005,-0.62551337480545,1.12850201129913
271,1394005741,34.08586502075195,-86.90320587158203,11.71704578399658,9.85596179962158,0.14893455803394,0.56015908718109,0.05853142589331,-0.30960634350777,1.17208206653595
272,1394022408,33.76668167114258,-86.89637756347656,12.02708816528320,9.80537509918213,0.14993834495544,0.59182089567184,-0.07827240973711,-0.12665478885174,1.26299417018890
273,1394039075,33.35159301757812,-86.89253234863281,12.43044376373291,9.79682540893555,0.10827470570803,0.60541599988937,-0.22312502563000,-0.11305445432663,1.62250673770905
274,1394055742,32.98446655273438,-86.88586425781250,12.78936767578125,9.78547000885010,0.08539473265409,0.58853334188461,-0.02074628695846,-0.04589794948697,1.41019034385681
275,1394072409,32.67398452758789,-86.87025451660156,13.09701633453369,9.81438541412354,0.08699165284634,0.57262283563614,0.33480280637741,0.30857539176941,0.99238330125809
276,1394089076,32.41488265991211,-86.84874725341797,13.36193656921387,9.84215736389160,0.06614147871733,0.63201540708542,0.82992190122604,0.53437691926956,0.69327813386917
277,1394105743,32.14839553833008,-86.82479095458984,13.64245891571045,9.81949901580811,0.12406637519598,0.66097348928452,1.35706949234009,0.67925512790680,0.68109929561615
278,1394122410,31.87630462646484,-86.81076812744141,13.92085075378418,9.81335163116455,0.13021674752235,0.59054940938950,0.84669804573059,0.18379032611847,0.99148672819138
279,1394139077,31.57131958007812,-86.80224609375000,14.22945499420166,9.82861614227295,0.12009237706661,0.60655802488327,0.68419843912125,-0.04512957856059,1.26135492324829
280,1394155744,31.27575683593750,-86.78947448730469,14.53868484497070,9.83150577545166,0.09789987653494,0.57028275728226,1.27377724647522,0.16180184483528,1.14421534538269
281,1394172411,30.98447418212891,-86.76615142822266,14.84454345703125,9.85322761535645,0.08962043374777,0.57207447290421,1.41615819931030,0.70454776287079,0.82173860073090
282,1394189078,30.73583412170410,-86.73505401611328,15.11074161529541,9.83733081817627,0.08292092382908,0.65606343746185,1.57540500164032,1.04687416553497,0.47635138034821
283,1394205745,30.57849121093750,-86.71556091308594,15.27450752258301,9.81172561645508,0.08201258629560,0.66107511520386,0.87674188613892,0.27307620644569,0.53971719741821
284,1394222412,30.36703109741211,-86.69915771484375,15.49610996246338,9.81978511810303,0.07648453116417,0.61949342489243,1.09658861160278,0.21672825515270,0.81198012828827
285,1394239079,30.09417915344238,-86.67092132568359,15.80352973937988,9.77785301208496,0.07902174443007,0.63824635744095,2.54648518562317,0.97531241178513,0.72368043661118
286,1394255746,29.84840583801270,-86.64123535156250,16.09373092651367,9.79833793640137,0.18196909129620,0.60846120119095,3.13986706733704,1.03692364692688,0.63858217000961
287,1394272413,29.49702262878418,-86.61476135253906,16.49037551879883,9.82581710815430,0.26316615939140,0.58297979831696,3.15972971916199,1.04308354854584,1.08653557300568
288,1394289080,28.90968132019043,-86.58201599121094,17.09210205078125,9.87561225891113,0.20056506991386,0.61847150325775,1.35874736309052,1.73529255390167,1.57070517539978
289,1394305747,28.27559280395508,-86.55570983886719,17.73349761962891,9.88717651367188,0.18586270511150,0.71417379379272,0.86658644676208,1.45967400074005,1.92253375053406
290,1394322414,27.73478889465332,-86.54289245605469,18.27474021911621,9.88579940795898,0.15894526243210,0.60806673765182,0.46588864922523,0.57594639062881,2.01699376106262
291,1394339081,27.34251594543457,-86.52312469482422,18.65678215026855,9.88090515136719,0.08095781505108,0.61646878719330,-0.15494403243065,0.66952234506607,1.33575999736786
292,1394355748,27.18030548095703,-86.50424957275391,18.81600379943848,9.80544090270996,0.13418297469616,0.69502544403076,0.29665267467499,0.24765558540821,0.65382170677185
293,1394372415,27.07381057739258,-86.48715209960938,18.91027641296387,9.73587131500244,0.13801303505898,0.71818494796753,-0.23170529305935,0.05151354894042,0.49562498927116
294,1394389082,27.01762390136719,-86.47452545166016,18.96457099914551,9.71743488311768,0.09503055363894,0.73055118322372,0.40352168679237,-0.26290157437325,0.49668782949448
295,1394405749,27.02098083496094,-86.45995330810547,18.97385597229004,9.74669647216797,0.12134353071451,0.71955662965775,1.27364933490753,-0.22431603074074,0.28980129957199
296,1394422416,27.04779624938965,-86.44554901123047,18.95285034179688,9.71958351135254,0.11893837898970,0.75738996267319,0.83075428009033,-0.28469794988632,0.19207602739334
297,1394439083,27.10485458374023,-86.43663024902344,18.89754295349121,9.69883346557617,0.06354815512896,0.72380906343460,0.59315806627274,-0.64310914278030,0.23027734458447
298,1394455750,27.20746421813965,-86.43585968017578,18.79666709899902,9.73419952392578,0.08232303708792,0.68648469448090,0.64346140623093,-1.14134025573730,0.29885536432266
299,1394472417,27.33788108825684,-86.43146514892578,18.67283248901367,9.84425449371338,0.04815120622516,0.64040762186050,0.92440712451935,-1.00711703300476,0.13264176249504
300,1394489084,27.39464187622070,-86.41777801513672,18.63884162902832,9.90720462799072,0.03381190076470,0.64673435688019,1.90673100948334,-0.34282594919205,0.16520830988884
301,1394505751,27.39782714843750,-86.39570617675781,18.66240310668945,9.91752433776855,0.08316948264837,0.67591094970703,2.13688683509827,0.19730104506016,0.12840287387371
302,1394522418,27.40743064880371,-86.38112640380859,18.67317962646484,9.89501762390137,0.10279908031225,0.69386917352676,1.73373019695282,-0.21778480708599,0.28659969568253
303,1394539085,27.35328483581543,-86.37274932861328,18.74414253234863,9.86832046508789,0.12635265290737,0.70994043350220,1.48061263561249,-0.45745566487312,0.66653859615326
304,1394555752,27.26943778991699,-86.36083984375000,18.83610725402832,9.81764888763428,0.12275324016809,0.71140933036804,1.00812232494354,-0.21880929172039,0.63833892345428
305,1394572419,27.15454483032227,-86.34597015380859,18.96228218078613,9.78491783142090,0.16606736183167,0.72396415472031,1.17510426044464,-0.00964318122715,0.67940890789032
306,1394589086,26.95141792297363,-86.32160949707031,19.17694091796875,9.78491115570068,0.18045109510422,0.69927501678467,1.19902658462524,0.66798567771912,0.72023552656174
307,1394605753,26.68422698974609,-86.29456329345703,19.44601631164551,9.79199886322021,0.17087192833424,0.70881664752960,0.57700932025909,0.89688634872437,0.85045045614243
308,1394622420,26.34033203125000,-86.26828765869141,19.78845596313477,9.84155178070068,0.16612735390663,0.70559149980545,0.32962900400162,0.97992277145386,1.14284503459930
309,1394639087,26.04950523376465,-86.24766540527344,20.06887245178223,9.82536888122559,0.14575596153736,0.72826391458511,-0.19052007794380,0.57355159521103,1.09146606922150
310,1394655754,25.81688499450684,-86.23558807373047,20.28064155578613,9.81107711791992,0.16276480257511,0.73122817277908,-0.78801310062408,-0.01208919379860,1.09137642383575
311,1394672421,25.55349349975586,-86.22686004638672,20.51462554931641,9.83738136291504,0.13971264660358,0.73685920238495,-1.25529122352600,-0.13654130697250,1.25812804698944
312,1394689088,25.28344535827637,-86.21441650390625,20.74019050598145,9.83530139923096,0.15589146316051,0.75742840766907,-2.14779138565063,0.04585313424468,1.14126992225647
313,1394705755,25.10550498962402,-86.21028900146484,20.87922859191895,9.81750488281250,0.14699558913708,0.73197996616364,-1.84963405132294,-0.57081735134125,1.05489099025726
314,1394722422,24.95857048034668,-86.20863342285156,20.98775863647461,9.81943225860596,0.12764924764633,0.73466414213181,-1.81504404544830,-0.74637973308563,1.00413954257965
315,1394739089,24.84307670593262,-86.20099639892578,21.06442070007324,9.81698131561279,0.12436525523663,0.75504487752914,-1.85918736457825,-0.48375985026360,0.74226236343384
316,1394755756,24.76682472229004,-86.19491577148438,21.10374832153320,9.74663829803467,0.13600690662861,0.75314319133759,-1.67668414115906,-0.60840404033661,0.64287227392197
317,1394772423,24.72647857666016,-86.19563293457031,21.11516380310059,9.73283386230469,0.11380930244923,0.75631093978882,-1.20457816123962,-1.03253757953644,0.71531790494919
318,1394789090,24.65362930297852,-86.19558715820312,21.15382385253906,9.76736068725586,0.12523113191128,0.72961193323135,-1.52687537670135,-0.95740276575089,0.80136370658875
319,1394805757,24.56583404541016,-86.19378662109375,21.19880104064941,9.80488586425781,0.16158901154995,0.71032077074051,-2.06517767906189,-0.84322130680084,0.77434241771698
320,1394822424,24.43397140502930,-86.18689727783203,21.28153038024902,9.90265655517578,0.17114381492138,0.72843933105469,-2.46578550338745,-0.50173991918564,0.78241026401520
321,1394839091,24.25683403015137,-86.17639160156250,21.41243553161621,9.94031429290771,0.12316602468491,0.79898881912231,-2.30865192413330,-0.22543017566204,0.86919903755188
322,1394855758,24.05814743041992,-86.17766571044922,21.57329940795898,9.86415004730225,0.16695088148117,0.73607712984085,-1.79523265361786,-0.83339887857437,1.27816987037659
323,1394872425,23.74043846130371,-86.17366790771484,21.84168624877930,9.89161396026611,0.13361753523350,0.63189363479614,-2.46468424797058,-0.34880653023720,1.53587186336517
324,1394889092,23.39343261718750,-86.14578247070312,22.14785003662109,9.83882331848145,0.10511187463999,0.70289099216461,-1.96490371227264,1.00367844104767,1.11910212039948
325,1394905759,23.05536842346191,-86.11062622070312,22.44974136352539,9.78896427154541,0.17337878048420,0.72588443756104,-1.70414102077484,1.40232741832733,0.94858556985855
326,1394922426,22.65183067321777,-86.07719421386719,22.81606292724609,9.79551029205322,0.23327082395554,0.73097211122513,-1.74810504913330,1.42995059490204,1.25035429000854
327,1394939093,22.15086364746094,-86.05161285400391,23.26894187927246,9.81660747528076,0.21826155483723,0.74682861566544,-2.46750187873840,1.11313438415527,1.79120492935181
328,1394955760,21.57362747192383,-86.02778625488281,23.79082489013672,9.78951263427734,0.17573846876621,0.73823511600494,-2.87468004226685,1.11651539802551,2.13031744956970
329,1394972427,21.05617332458496,-86.00620269775391,24.25027465820312,9.77740669250488,0.15629963576794,0.77398681640625,-3.02347707748413,0.88422089815140,1.97095501422882
330,1394989094,20.59297370910645,-85.98434448242188,24.66166687011719,9.76794242858887,0.18470279872417,0.74062812328339,-2.63394594192505,0.83232945203781,1.79851734638214
331,1395005761,20.23034858703613,-85.95218658447266,24.97445487976074,9.80761909484863,0.16673064231873,0.74187380075455,-2.50453805923462,1.25892186164856,1.21904301643372
332,1395022428,19.92570495605469,-85.91131591796875,25.25407409667969,9.82674789428711,0.06998189538717,0.72725385427475,-1.04452443122864,1.69031643867493,0.93389666080475
333,1395039095,19.65735626220703,-85.85807037353516,25.51964187622070,9.86905956268311,0.12703806161880,0.76734089851379,0.27367809414864,2.38274312019348,0.64542084932327
334,1395055762,19.42827606201172,-85.80931854248047,25.74798011779785,9.86574172973633,0.22601665556431,0.85250848531723,0.40300944447517,2.07377719879150,0.61376351118088
335,1395072429,19.13477897644043,-85.77914428710938,26.03058242797852,9.90481662750244,0.28768283128738,0.87611615657806,-0.17275764048100,1.11214816570282,1.23106813430786
336,1395089096,18.75812530517578,-85.75301361083984,26.38694381713867,9.83689308166504,0.27077388763428,0.86184585094452,-0.74977332353592,0.98654347658157,1.63939845561981
337,1395105763,18.41465759277344,-85.73580169677734,26.72959327697754,9.81502532958984,0.26874837279320,0.82603502273560,0.40680012106895,0.44489896297455,1.77558112144470
338,1395122430,18.12069320678711,-85.72382354736328,27.03504753112793,9.80232048034668,0.27806061506271,0.85641646385193,1.17113423347473,0.10136865824461,1.72831284999847
339,1395139097,17.92930412292480,-85.71380615234375,27.23890495300293,9.76824283599854,0.32993817329407,0.85566115379333,1.21797990798950,-0.15956711769104,1.33917915821075
340,1395155764,17.86453437805176,-85.71285247802734,27.29947662353516,9.76611900329590,0.35868453979492,0.82392901182175,0.27887746691704,-0.87216371297836,0.90111243724823
341,1395172431,17.83258628845215,-85.71860504150391,27.31799507141113,9.82667922973633,0.34551069140434,0.77102112770081,-0.28628596663475,-1.31646716594696,0.84526395797729
342,1395189098,17.77014732360840,-85.72996520996094,27.36643218994141,9.84579849243164,0.43574962019920,0.72454804182053,-0.30047535896301,-1.59305858612061,1.07737886905670
343,1395205765,17.57508850097656,-85.74983215332031,27.53321075439453,9.82180023193359,0.53457343578339,0.70283573865891,-1.20457804203033,-1.92565238475800,1.73134791851044
344,1395222432,17.22935676574707,-85.77960968017578,27.83159637451172,9.75032806396484,0.48888728022575,0.73857367038727,-2.36973810195923,-2.31260895729065,2.45347237586975
345,1395239099,16.82719993591309,-85.81764984130859,28.19065093994141,9.68907928466797,0.40893101692200,0.70463424921036,-2.15446329116821,-2.74288940429688,2.83827757835388
346,1395255766,16.48480415344238,-85.85669708251953,28.49489974975586,9.63030433654785,0.35552784800529,0.66160470247269,-1.82555782794952,-2.86174535751343,2.59618639945984
347,1395272433,16.16883659362793,-85.89735412597656,28.77587509155273,9.63405418395996,0.35660916566849,0.67531180381775,-1.61774921417236,-3.02758741378784,2.51650524139404
348,1395289100,15.79669761657715,-85.94914245605469,29.11627769470215,9.67022228240967,0.34725257754326,0.64501297473907,-1.38028109073639,-3.58489346504211,2.91511535644531
349,1395305767,15.33634471893311,-86.00374603271484,29.55308914184570,9.67786121368408,0.36508414149284,0.65874016284943,-0.94125396013260,-3.69625854492188,3.32133340835571
350,1395322434,14.79237270355225,-86.07240295410156,30.05849838256836,9.76986503601074,0.41320464015007,0.67519462108612,-1.83144891262054,-4.43131685256958,3.75486660003662
351,1395339101,14.08803844451904,-86.15488433837891,30.71335029602051,9.76858234405518,0.44711604714394,0.63658374547958,-2.51694726943970,-5.14650058746338,4.47946262359619
352,1395355768,13.12859058380127,-86.24412536621094,31.60845947265625,9.75231456756592,0.42061796784401,0.60422682762146,-3.44410204887390,-5.39149999618530,5.38557672500610
353,1395372435,12.02792072296143,-86.33590698242188,32.63315963745117,9.76870441436768,0.39532381296158,0.67514801025391,-4.11396408081055,-5.51075315475464,5.74523067474365
354,1395389102,10.99561405181885,-86.42993164062500,33.59045410156250,9.79008102416992,0.33615362644196,0.68636429309845,-4.06355857849121,-5.83474159240723,5.34549379348755
355,1395405769,9.98813629150391,-86.51087188720703,34.53341674804688,9.79420852661133,0.33367165923119,0.54989707469940,-3.41692686080933,-5.14848613739014,4.97441625595093
356,1395422436,8.88895797729492,-86.58625793457031,35.55161666870117,9.75548553466797,0.32208284735680,0.61178117990494,-4.42821931838989,-4.88037347793579,5.03513145446777
357,1395439103,7.64020967483521,-86.67951965332031,36.69940948486328,9.69311141967773,0.29682967066765,0.68389391899109,-5.59311103820801,-5.96449565887451,5.47353124618530
358,1395455770,6.22354364395142,-86.79100036621094,38.00470352172852,9.67912197113037,0.30102375149727,0.69569498300552,-6.23027849197388,-7.11430168151855,5.90012454986572
359,1395472437,4.52943325042725,-86.90857696533203,39.57802200317383,9.75887966156006,0.23630116879940,0.66316974163055,-6.77890300750732,-7.56947851181030,6.49446773529053
360,1395489104,2.69047975540161,-87.00952148437500,41.30103302001953,9.73174381256104,0.20194451510906,0.61095392704010,-6.51035308837891,-6.70568847656250,6.51701927185059
361,1395505771,0.86222636699677,-87.10403442382812,42.98544311523438,9.61335182189941,0.14853931963444,0.61410742998123,-8.17176151275635,-6.52277612686157,6.02553749084473
362,1395522438,-1.14355003833771,-87.21575927734375,44.82894134521484,9.72175407409668,-0.00689854705706,0.60812842845917,-9.28560829162598,-7.73004627227783,6.12503099441528
363,1395539105,-3.33127355575562,-87.30485534667969,46.84867477416992,9.79685497283936,-0.03808044642210,0.53090137243271,-9.62016201019287,-6.58666849136353,6.23836851119995
364,1395555772,-5.26083278656006,-87.36641693115234,48.58877944946289,9.72356319427490,-0.10500970482826,0.62313365936279,-10.86940765380859,-5.05532169342041,5.22506427764893
365,1395572439,-7.12055873870850,-87.42208099365234,50.25749588012695,9.74175548553467,-0.20842511951923,0.64971619844437,-10.93026447296143,-4.81992912292480,4.82941198348999
366,1395589106,-9.28214645385742,-87.48200225830078,52.21742630004883,9.84714221954346,-0.26924082636833,0.55098772048950,-11.59087944030762,-5.32070827484131,5.31966447830200
367,1395605773,-11.72634410858154,-87.52077484130859,54.43791580200195,9.92508697509766,-0.41038978099823,0.42382580041885,-12.88520908355713,-4.34836101531982,5.94621706008911
368,1395622440,-13.87555027008057,-87.54544830322266,56.34605789184570,9.91232299804688,-0.53609287738800,0.30589258670807,-13.92051410675049,-3.54486465454102,5.13600969314575
369,1395639107,-15.21998214721680,-87.55047607421875,57.46701431274414,9.94279479980469,-0.55907428264618,0.22285902500153,-12.91403484344482,-2.01242995262146,3.37006402015686
370,1395655774,-15.99114131927490,-87.55487823486328,58.00371551513672,9.97398376464844,-0.69049674272537,0.20501245558262,-13.53036403656006,-1.60359919071198,1.92343163490295
371,1395672441,-16.47002029418945,-87.57231140136719,58.27445602416992,9.96449756622314,-0.86987316608429,0.06153402477503,-11.95683670043945,-2.20111823081970,1.03441429138184
372,1395689108,-16.65286254882812,-87.58362579345703,58.32191467285156,9.99682426452637,-0.95461273193359,-0.09814495593309,-7.58498477935791,-1.69536876678467,0.58406567573547
373,1395705775,-16.83016777038574,-87.58151245117188,58.42368316650391,10.05272865295410,-0.88167655467987,-0.15246851742268,-3.98755145072937,-0.95659583806992,0.94575530290604
374,1395722442,-17.63002395629883,-87.56217193603516,59.16864013671875,10.10967636108398,-0.81917971372604,-0.16877062618732,-2.78896737098694,-0.45347291231155,2.80805492401123
375,1395739109,-19.33114051818848,-87.51052856445312,60.82728195190430,10.18454265594482,-0.88422060012817,-0.17638164758682,-2.07706212997437,0.60259640216827,5.69400453567505
376,1395755776,-21.63886833190918,-87.41411590576172,63.11951446533203,10.21265220642090,-0.97507858276367,-0.19772125780582,-0.48454120755196,2.33843374252319,8.39001274108887
377,1395772443,-23.99320793151855,-87.26784515380859,65.47197723388672,10.22146987915039,-0.97170984745026,-0.02722503989935,0.29543623328209,4.56926250457764,10.08613777160645
378,1395789110,-25.91382789611816,-87.08381652832031,67.40106201171875,10.27155494689941,-0.98253160715103,0.19286970794201,0.93260377645493,6.62880659103394,10.48233032226562
379,1395805777,-27.48332023620605,-86.88121795654297,68.98027038574219,10.12017536163330,-0.97267174720764,0.46313297748566,1.02160799503326,7.66050052642822,10.58338546752930
380,1395822444,-28.78108978271484,-86.67492675781250,70.28151702880859,9.85915660858154,-0.88267558813095,0.65661263465881,0.64408928155899,7.87343072891235,10.36548328399658
381,1395839111,-29.81910705566406,-86.48387145996094,71.29804992675781,9.54784011840820,-0.79000443220139,0.80371594429016,-0.83037704229355,7.25078630447388,9.45114994049072
382,1395855778,-30.77926445007324,-86.34259796142578,72.21101379394531,9.32715129852295,-0.79105997085571,0.75443851947784,-2.38426184654236,4.60220050811768,7.88849020004272
383,1395872445,-31.94075775146484,-86.25749969482422,73.31191253662109,9.30050849914551,-0.81910175085068,0.64307004213333,-3.22408890724182,1.15422999858856,6.95007801055908
384,1395889112,-33.10989379882812,-86.20032501220703,74.42663574218750,9.44879722595215,-0.82660478353500,0.56586915254593,-2.84923386573792,-0.45196178555489,6.21140718460083
385,1395905779,-34.25901794433594,-86.15998077392578,75.53297424316406,9.61080265045166,-0.71024829149246,0.53186815977097,-2.16697573661804,-1.42361819744110,5.67386054992676
386,1395922446,-35.41834640502930,-86.13710021972656,76.61470794677734,9.79825878143311,-0.63905972242355,0.69500935077667,-4.24508762359619,-2.34415149688721,5.01972484588623
387,1395939113,-36.48436355590820,-86.17546844482422,77.64284515380859,9.81377792358398,-0.84932631254196,0.59155124425888,-1.86041700839996,-5.28037834167480,2.64663076400757
388,1395955780,-37.27904891967773,-86.23880767822266,78.45001220703125,9.88071060180664,-0.83142298460007,0.40774020552635,1.19102251529694,-5.95328807830811,0.93198859691620
389,1395972447,-37.71434402465820,-86.28253936767578,78.90299987792969,9.99349880218506,-0.73631912469864,0.32091334462166,1.55711746215820,-4.14741277694702,0.46353223919868
390,1395989114,-37.74992370605469,-86.31709289550781,78.95333099365234,9.96994972229004,-0.76136946678162,0.34905794262886,1.42375242710114,-2.75364708900452,-0.46451193094254
391,1396005781,-37.70558929443359,-86.34859466552734,78.93758392333984,9.91065120697021,-0.68215620517731,0.31757491827011,2.26304197311401,-2.44996976852417,-0.55235064029694
392,1396022448,-37.50543594360352,-86.36579132080078,78.76951599121094,9.97693443298340,-0.73213058710098,0.27691483497620,2.48781895637512,-1.41384661197662,-0.48123705387115
393,1396039115,-36.92664718627930,-86.36492919921875,78.21944427490234,9.97716045379639,-0.68899732828140,0.31147563457489,2.33224749565125,0.30692335963249,-0.98744630813599
394,1396055782,-36.16772079467773,-86.35804748535156,77.47484588623047,9.98844623565674,-0.74575638771057,0.34147000312805,1.49915611743927,1.03187799453735,-1.37317359447479
395,1396072449,-35.12860107421875,-86.34655761718750,76.46598052978516,10.04707908630371,-0.86334800720215,0.28589752316475,2.48182582855225,1.81484556198120,-2.06869935989380
396,1396089116,-33.80359649658203,-86.31836700439453,75.17046356201172,10.01321697235107,-0.83624303340912,0.34916934370995,2.47797155380249,3.22605466842651,-2.47605705261230
397,1396105783,-32.27470397949219,-86.28131866455078,73.67592620849609,9.95849132537842,-0.83658832311630,0.35863590240479,2.78456783294678,4.01944589614868,-2.98571109771729
398,1396122450,-30.56835746765137,-86.23500823974609,72.02699279785156,9.87389278411865,-0.90606170892715,0.42808052897453,4.20961999893188,4.76435327529907,-3.38999485969543
399,1396139117,-28.70100784301758,-86.18792724609375,70.23307800292969,9.81242370605469,-0.85960012674332,0.48281750082970,5.17702627182007,4.97688865661621,-4.12794923782349
400,1396155784,-26.62198638916016,-86.14004516601562,68.24001312255859,9.72997665405273,-0.85677587985992,0.46958187222481,5.97011041641235,5.26672124862671,-5.09163999557495
401,1396172451,-24.67236137390137,-86.10338592529297,66.40270233154297,9.60967826843262,-0.82091605663300,0.59521299600601,7.53735351562500,4.22971534729004,-5.10507488250732
402,1396189118,-23.00551605224609,-86.08578491210938,64.84095001220703,9.48147869110107,-0.80404514074326,0.48765423893929,7.06799936294556,2.55785799026489,-4.75251436233521
403,1396205785,-21.25990486145020,-86.07714080810547,63.20042419433594,9.38680648803711,-0.90023589134216,0.49906200170517,7.08136844635010,2.03129863739014,-5.37550449371338
404,1396222452,-19.41823768615723,-86.09600067138672,61.51589584350586,9.42309379577637,-0.93810307979584,0.57654768228531,10.20975685119629,0.34589320421219,-6.20428133010864
405,1396239119,-17.47002601623535,-86.14979553222656,59.76340484619141,9.50265693664551,-0.83641731739044,0.50532537698746,12.52855682373047,-1.79853785037994,-7.10758066177368
406,1396255786,-15.65859985351562,-86.21897125244141,58.13333129882812,9.46935558319092,-0.75418353080750,0.40906617045403,11.63862895965576,-3.11263608932495,-6.76499652862549
407,1396272453,-14.00642299652100,-86.29673004150391,56.65263748168945,9.45051002502441,-0.75284779071808,0.37889415025711,11.00918483734131,-4.02744579315186,-6.14902448654175
408,1396289120,-12.44071006774902,-86.37874603271484,55.28664398193359,9.60921573638916,-0.58558440208435,0.33416011929512,12.69915103912354,-4.57397079467773,-5.56548976898193
409,1396305787,-11.03239536285400,-86.46797943115234,54.04960250854492,9.67499732971191,-0.56960791349411,0.36533781886101,10.95903396606445,-5.29147148132324,-4.96930170059204
410,1396322454,-9.65931797027588,-86.56703948974609,52.80539703369141,9.54113101959229,-0.60861772298813,0.34767228364944,8.41169357299805,-6.03508424758911,-4.87681341171265
411,1396339121,-8.05479717254639,-86.64929962158203,51.32774353027344,9.60530185699463,-0.72705233097076,0.51722413301468,8.30866622924805,-5.05163288116455,-5.28656530380249
412,1396355788,-6.01965761184692,-86.70360565185547,49.44263458251953,9.74224948883057,-0.97674578428268,0.93208450078964,9.73896980285645,-3.40811705589294,-6.24750328063965
413,1396372455,-3.54835653305054,-86.70016479492188,47.19817733764648,9.83615970611572,-1.40687751770020,1.56989121437073,14.36561775207520,-0.15024422109127,-7.04515075683594
414,1396389122,-0.74177181720734,-86.56738281250000,44.79970932006836,9.72752380371094,-1.88147664070129,2.19533228874207,25.29577827453613,7.31060791015625,-7.48369169235229
415,1396405789,1.68884468078613,-86.16457366943359,43.07639312744141,9.49398517608643,-2.28249239921570,2.35819149017334,43.20206451416016,23.15290641784668,-6.09939718246460
416,1396422456,2.68137502670288,-85.25257110595703,43.13608169555664,8.54275703430176,-2.39980053901672,2.66114306449890,63.71642303466797,53.76371765136719,-1.17626643180847
417,1396439123,2.07854557037354,-83.80783843994141,44.97000885009766,5.93392753601074,-1.08037912845612,3.11549830436707,73.96200561523438,86.09465789794922,7.51479434967041
418,1396455790,0.03630920499563,-82.39805603027344,48.02957153320312,1.92932593822479,-0.17083607614040,2.42685222625732,60.30051040649414,83.98530578613281,21.11121559143066
419,1396472457,-2.79783272743225,-81.02252197265625,51.60128021240234,-1.75400400161743,1.00612604618073,-0.66540741920471,42.60125732421875,80.73797607421875,33.50748443603516
420,1396489124,-5.63522768020630,-79.85962677001953,54.22921752929688,-3.39293956756592,2.04928278923035,-0.84392613172531,-14.17520999908447,66.65372467041016,31.88046455383301
421,1396505791,-6.71482658386230,-78.80270385742188,55.16530990600586,-1.50234889984131,0.24708236753941,-3.48531270027161,-9.01080703735352,60.93809509277344,17.80647087097168
422,1396522458,-5.82526159286499,-77.72836303710938,54.09480285644531,-0.65887504816055,1.46141028404236,-1.89929318428040,-8.95049285888672,64.51167297363281,-5.29371213912964
423,1396539125,-4.38523054122925,-76.89855194091797,52.26140975952148,0.98714321851730,2.30766701698303,-1.37019050121307,-20.35527038574219,50.74695587158203,-18.97819900512695
424,1396555792,-2.91349720954895,-76.15926361083984,50.43999099731445,3.15749454498291,2.03977227210999,-0.40545314550400,-17.69068908691406,44.89941787719727,-22.00044059753418
425,1396572459,-2.09516978263855,-75.40711975097656,49.23651504516602,2.54124426841736,1.24230635166168,0.02324482984841,-20.65093231201172,44.87461853027344,-15.17708873748779
426,1396589126,-1.26683807373047,-74.90803527832031,48.11582183837891,1.09099256992340,0.39278453588486,-0.44298487901688,-15.06519317626953,29.45429039001465,-15.77712726593018
427,1396605793,-0.21520708501339,-74.37892913818359,46.64443206787109,0.45519816875458,0.38849666714668,-0.24975678324699,-21.88967323303223,31.05702781677246,-22.43463516235352
428,1396622460,0.94664639234543,-73.85200500488281,44.89913177490234,-0.66404062509537,0.54608535766602,-0.22551026940346,-30.89348220825195,30.44208908081055,-28.34244918823242
429,1396639127,2.07068848609924,-73.38806915283203,43.34035873413086,-1.92110359668732,-0.46927875280380,-0.79198139905930,-22.17767143249512,26.14677810668945,-26.58513450622559
430,1396655794,1.71526920795441,-73.09700775146484,43.06985473632812,-0.92748254537582,0.78171265125275,1.92124509811401,-36.73930740356445,16.31490516662598,-4.74259042739868
431,1396672461,-0.89037436246872,-72.69175720214844,44.29691314697266,5.63541221618652,4.10248613357544,3.84060406684875,-85.79607391357422,23.48045158386230,22.00230026245117
432,1396689128,-5.43681526184082,-72.30513000488281,46.95365524291992,22.56316757202148,8.24853420257568,11.84769248962402,-120.56490325927734,19.53562545776367,49.66950607299805
433,1396705795,-7.70389080047607,-70.54653167724609,47.88404083251953,43.16348266601562,-6.21865415573120,16.64539337158203,-82.88084411621094,101.81526184082031,30.28150749206543
434,1396722462,-8.06064701080322,-70.15966796875000,48.82502365112305,29.48628425598145,-5.48113059997559,11.67081546783447,32.16800689697266,19.40806007385254,22.58929252624512
435,1396739129,-8.06553459167480,-70.74659729003906,49.54376602172852,40.65818405151367,-7.46051549911499,7.65101909637451,40.79960250854492,-37.88315200805664,9.96362495422363
436,1396755796,-10.75380516052246,-71.78593444824219,51.79184341430664,39.39840316772461,-0.11600869894028,6.49281358718872,-33.05438995361328,-69.57067871093750,33.16802597045898
437,1396772463,-11.90053176879883,-73.26116180419922,52.12788772583008,45.17057418823242,3.13507723808289,3.46299862861633,-49.09649276733398,-88.95719909667969,-10.82523536682129
438,1396789130,-11.13785743713379,-74.84621429443359,50.75605773925781,44.93313217163086,-0.33658108115196,3.38035583496094,-32.91841125488281,-89.62598419189453,-40.51148223876953
439,1396805797,-9.58277225494385,-76.54036712646484,48.63492584228516,41.29166412353516,-0.48179394006729,2.32531714439392,-29.61752128601074,-95.26949310302734,-48.58681488037109
440,1396822464,-6.57719182968140,-77.92625427246094,45.02198791503906,36.11340713500977,-0.24166509509087,-2.38143491744995,-30.79860115051270,-76.49430084228516,-58.49525833129883
441,1396839131,-3.31747102737427,-80.45109558105469,41.66782760620117,29.10952568054199,-0.65728592872620,-3.26173186302185,-1.95876014232635,-148.54177856445312,-50.07221221923828
442,1396855798,-2.51347470283508,-84.08443450927734,40.39003753662109,21.23007392883301,-1.14380204677582,-3.60001301765442,-27.64866828918457,-218.15748596191406,-20.79406929016113
443,1396872465,-3.13331747055054,-86.45707702636719,40.83430099487305,18.08772659301758,-1.61381101608276,-1.83840465545654,-10.53032684326172,-143.31240844726562,-4.20732021331787
444,1396889132,-2.20674943923950,-87.42306518554688,39.71827697753906,12.30522537231445,-1.96656167507172,9.44925022125244,-10.79077911376953,-58.73499679565430,-5.60637044906616
445,1396905799,1.43899035453796,-86.24401855468750,36.28034973144531,4.68553113937378,-2.43186497688293,21.47246551513672,13.38775444030762,69.99429321289062,-10.22796630859375
446,1396922466,1.11479306221008,-85.64068603515625,35.96048355102539,-0.90933454036713,-4.38995742797852,19.71658325195312,-38.00814056396484,35.26716995239258,-1.50159716606140
447,1396939133,7.92246723175049,-85.60862731933594,29.98882675170898,-16.27238273620605,-9.81989002227783,24.35205268859863,51.74169158935547,-1.20313262939453,-26.70611763000488
448,1396955800,28.39372825622559,-86.42100524902344,10.82913303375244,-11.18370151519775,-5.99114513397217,9.09688091278076,81.89402770996094,-71.46657562255859,-59.83847427368164
449,1396972467,61.30705642700195,-86.61991119384766,-21.08090972900391,-4.33361387252808,3.90685963630676,-2.74149608612061,64.10780334472656,-89.93256378173828,-72.45278930664062
450,1396989134,73.33306121826172,-86.46016693115234,-32.52093887329102,-1.27933025360107,6.76176738739014,-6.32903289794922,36.98419952392578,-35.41995620727539,-24.08830070495605
451,1397005801,79.82112884521484,-87.44648742675781,-38.49992752075195,2.17206931114197,4.95452976226807,-5.48439645767212,31.56355094909668,-33.24654769897461,53.84149169921875
452,1397022468,95.75257873535156,-88.67529296875000,-54.45079803466797,8.02066993713379,6.35545778274536,-3.56261587142944,-0.12165032327175,-35.90946578979492,72.73596954345703
453,1397039135,61.92922973632812,-89.13002014160156,-21.12963294982910,9.95697116851807,1.23637294769287,0.08129976689816,-30.45430374145508,30.29302597045898,34.00595855712891
454,1397055802,22.21155548095703,-88.21381378173828,18.43027877807617,4.25216722488403,-2.46168637275696,4.32930326461792,-9.14617919921875,73.59524536132812,5.12479829788208
455,1397072469,13.71244239807129,-87.36136627197266,26.62653350830078,0.92033499479294,-3.94861221313477,4.38829135894775,-17.84784698486328,53.54246139526367,2.86125850677490
456,1397089136,13.81222438812256,-86.72811126708984,26.70030212402344,-0.51824629306793,-5.52414703369141,3.49374365806580,11.01812076568604,36.05567169189453,-8.16409015655518
457,1397105803,20.01620674133301,-86.41865539550781,21.01562309265137,-1.84655344486237,-3.81067132949829,2.56540036201477,32.33677291870117,10.87188243865967,-24.20440673828125
458,1397122470,26.93894195556641,-86.30334472656250,14.76449394226074,-2.14639139175415,-1.39635419845581,0.36992350220680,41.60145950317383,-4.11840200424194,-23.88074493408203
459,1397139137,27.54358100891113,-85.96332550048828,14.79498004913330,-2.60608530044556,1.98455536365509,-1.52194023132324,38.66312026977539,17.22122573852539,-8.57115364074707
460,1397155804,25.20323371887207,-85.60737609863281,17.41469764709473,-4.60756015777588,2.40238165855408,-0.49296411871910,16.90859794616699,23.29378509521484,1.51009702682495
461,1397172471,23.93096542358398,-85.77738189697266,18.89789009094238,-3.47617077827454,0.35711416602135,-0.33421218395233,12.94570446014404,-7.49387454986572,10.99163150787354
462,1397189138,22.08459472656250,-86.01876831054688,20.91695022583008,-0.05736822634935,-0.13846072554588,-1.34595561027527,10.60015869140625,-10.93155479431152,14.30497646331787
463,1397205805,18.20464134216309,-86.03601837158203,24.90951538085938,1.63449037075043,0.25953054428101,-0.77729135751724,6.72795867919922,3.76026296615601,16.59279251098633
464,1397222472,14.20366668701172,-86.00099945068359,29.00623512268066,2.26133728027344,0.01186128146946,-0.01553076412529,5.71310472488403,5.80262136459351,16.45980834960938
465,1397239139,11.98627948760986,-85.89596557617188,31.35914039611816,2.41391468048096,-0.03493287786841,0.46305665373802,8.32568931579590,7.42038249969482,8.95764446258545
466,1397255806,12.66637229919434,-85.65148162841797,30.81701850891113,2.69558310508728,-0.27259108424187,1.12733101844788,8.92985630035400,12.86632728576660,-4.78925848007202
467,1397272473,14.93903923034668,-85.33612823486328,28.67969894409180,1.18207669258118,0.23113110661507,1.68198502063751,9.07476806640625,15.01513290405273,-13.60556793212891
468,1397289140,17.96581268310547,-85.22270965576172,25.71160507202148,-0.96182191371918,0.37395438551903,1.87144422531128,4.67627477645874,1.41852843761444,-15.28304386138916
469,1397305807,20.89773750305176,-85.28649139404297,22.82720947265625,-2.61641240119934,0.00487353978679,1.84111535549164,3.99603939056396,-9.32830524444580,-11.52916908264160
470,1397322474,23.93605422973633,-85.59642028808594,19.97570800781250,-3.16833901405334,-0.27284425497055,1.57711040973663,12.28237628936768,-23.35679244995117,-4.76892995834351
471,1397339141,26.87573623657227,-86.08889007568359,17.27582168579102,-1.96392130851746,0.23849561810493,0.79814463853836,15.32816410064697,-32.71696853637695,2.78459334373474
472,1397355808,29.16737365722656,-86.50045013427734,15.17404079437256,-0.27569594979286,0.60141158103943,1.00111162662506,12.19357013702393,-26.59597396850586,5.11323833465576
473,1397372475,31.19503784179688,-86.81524658203125,13.19933032989502,-0.29354572296143,0.25279235839844,1.05017054080963,3.89912366867065,-20.78890037536621,4.24572753906250
474,1397389142,33.37710571289062,-87.06655120849609,11.21848297119141,-0.64723777770996,-0.52803796529770,1.27588772773743,12.76721572875977,-17.11557388305664,3.41339111328125
475,1397405809,33.80912017822266,-87.22357177734375,10.79693222045898,1.71229457855225,-4.09930419921875,2.07752156257629,1.19815611839294,-9.51444339752197,4.86797094345093
476,1397422476,34.31905746459961,-87.73722076416016,11.48569583892822,10.46682357788086,1.96882236003876,-2.47732686996460,71.94073486328125,-25.57455444335938,19.48329162597656
477,1397439143,29.73518180847168,-88.85158538818359,16.71222114562988,40.88970184326172,-3.01317071914673,9.80999183654785,38.19986724853516,-53.07736206054688,44.18551254272461
478,1397455810,144.63957214355469,-88.89730834960938,-96.08621978759766,126.75633239746094,-7.30801439285278,-13.26851272583008,128.26792907714844,-111.76531219482422,-3.22545433044434
479,1397472477,-1.60776543617249,-86.47769165039062,48.48303985595703,-24.18671226501465,10.27864265441895,13.35598659515381,-101.90071105957031,262.62054443359375,41.98705291748047
480,1397489144,-77.38152313232422,-88.91358184814453,123.93074035644531,7.48504972457886,4.94803810119629,-17.71142959594727,-20.73245239257812,-197.65985107421875,56.71426010131836
481,1397505811,-160.79890441894531,-87.34465026855469,-152.57522583007812,41.80830383300781,-1.63776087760925,-9.50037574768066,3.72237753868103,-165.11740112304688,-9.71031570434570
482,1397522478,-171.29956054687500,-86.64159393310547,-142.83557128906250,22.90143394470215,0.43171671032906,-6.52277469635010,-46.05020904541016,-49.16168975830078,-18.79774093627930
483,1397539145,-174.25474548339844,-84.59278106689453,-139.85751342773438,28.24657058715820,-2.40380406379700,-2.81551122665405,1.22963690757751,-124.69249725341797,2.65014410018921
484,1397555812,-174.19146728515625,-85.01045227050781,-140.24839782714844,22.27929687500000,-3.03143310546875,-3.70356798171997,-19.04917716979980,24.23592758178711,0.29369544982910
485,1397572479,-176.70896911621094,-85.33696746826172,-138.17185974121094,14.66606521606445,-2.66422080993652,-1.26057517528534,-26.38164329528809,17.77681159973145,-11.29278564453125
486,1397589146,176.38157653808594,-85.82552337646484,-131.36042785644531,11.18633651733398,-0.77581429481506,-0.88637137413025,-6.59955024719238,28.44074440002441,-30.65358543395996
487,1397605813,168.82998657226562,-86.19774627685547,-123.77144622802734,11.25855064392090,1.60476803779602,1.59425044059753,1.65629827976227,25.26831245422363,-27.77608489990234
488,1397622480,161.59213256835938,-86.45856475830078,-116.56957244873047,9.75423622131348,2.10489082336426,2.42209911346436,-2.61766457557678,21.23745918273926,-22.00559043884277
489,1397639147,155.64173889160156,-86.42105865478516,-110.74340820312500,4.68647623062134,0.87468421459198,2.14672446250916,-7.71715831756592,4.88280773162842,-20.28314208984375
490,1397655814,153.73643493652344,-86.13867187500000,-108.79563903808594,1.33697962760925,-0.11012351512909,1.97933781147003,2.70181655883789,-13.04245090484619,-13.39013099670410
491,1397672481,152.53211975097656,-86.05156707763672,-107.65766143798828,3.18298721313477,-0.52490299940109,2.14713907241821,-3.69447851181030,-3.51292324066162,-5.80125188827515
492,1397689148,150.61830139160156,-86.08184051513672,-105.75680541992188,3.96015262603760,-0.68756288290024,2.51045417785645,-0.60043859481812,4.38929367065430,-5.29422187805176
493,1397705815,150.24874877929688,-85.98024749755859,-105.34124755859375,4.48158550262451,-0.27266713976860,2.30003833770752,3.14892148971558,-5.39718532562256,-3.80175709724426
494,1397722482,150.56262207031250,-85.90093231201172,-105.72640228271484,6.82109880447388,0.93054586648941,1.80649375915527,-3.77916765213013,-5.88619709014893,-0.22076871991158
495,1397739149,150.15168762207031,-86.03592681884766,-105.53318023681641,9.04749679565430,1.45016205310822,1.00551247596741,-12.64181041717529,6.51593303680420,4.01509475708008
496,1397755816,148.70742797851562,-86.28174591064453,-104.31834411621094,10.66132545471191,0.81856030225754,0.35117661952972,-13.49303340911865,14.24343013763428,4.01563549041748
497,1397772483,146.70700073242188,-86.47047424316406,-102.49488067626953,11.40352249145508,0.62908774614334,0.22480614483356,-10.35891246795654,12.34118938446045,0.93357747793198
498,1397789150,145.26206970214844,-86.51564025878906,-101.23942565917969,10.95478439331055,0.59015309810638,-0.30452600121498,-11.02990913391113,3.89060258865356,-1.58326256275177
499,1397805817,144.67338562011719,-86.53157806396484,-100.83874511718750,9.12976169586182,0.80840432643890,-0.56517052650452,-10.87168693542480,0.67631000280380,0.06504987925291
500,1397822484,145.64553833007812,-86.54101562500000,-102.04817962646484,9.14228916168213,0.85845333337784,-0.51189649105072,-13.64973354339600,-2.97955322265625,4.62348604202271
501,1397839151,146.57685852050781,-86.55991363525391,-103.24324798583984,10.47132778167725,0.28657978773117,-0.64701718091965,-15.23268127441406,-2.38489031791687,4.92689561843872
502,1397855818,146.31622314453125,-86.55383300781250,-103.17462158203125,10.58049392700195,-0.06493695080280,-0.73717135190964,-11.03250885009766,-1.10538065433502,0.30096855759621
503,1397872485,145.52859497070312,-86.53152465820312,-102.55223083496094,9.67399215698242,0.02738341316581,-0.53413164615631,-9.47714996337891,-0.78958857059479,-1.90429222583771
504,1397889152,144.33653259277344,-86.50710296630859,-101.51702117919922,9.59055042266846,0.00623816996813,-0.22642174363136,-9.02919673919678,0.03221438080072,-3.21310114860535
505,1397905819,142.41178894042969,-86.53422546386719,-99.74960327148438,9.80911159515381,-0.17039683461189,-0.24537953734398,-9.12196540832520,4.21515417098999,-3.46995830535889
506,1397922486,139.96925354003906,-86.66017913818359,-97.41203308105469,9.67502689361572,-0.26293191313744,-0.43198400735855,-6.06930351257324,10.16268253326416,-1.03057873249054
507,1397939153,136.74934387207031,-86.90118408203125,-94.23947906494141,9.22706222534180,-0.03276155143976,-0.31269127130508,-2.65081477165222,16.97339439392090,2.35309863090515
508,1397955820,133.37019348144531,-87.15407562255859,-90.88763427734375,9.09250164031982,-0.09387437254190,-0.11037544906139,-1.39207744598389,17.17563438415527,4.07797574996948
509,1397972487,130.21458435058594,-87.36070251464844,-87.72965240478516,9.60715007781982,-0.34529471397400,-0.07058271765709,0.46284100413322,14.10057640075684,3.95306086540222
510,1397989154,127.05052185058594,-87.51975250244141,-84.48601531982422,9.68795776367188,-0.19686441123486,-0.23883259296417,5.09432315826416,11.81197452545166,2.77364540100098
511,1398005821,124.02732849121094,-87.59295654296875,-81.38082885742188,9.54129123687744,0.32375201582909,-0.18139611184597,5.28370285034180,8.06758689880371,-0.31694445014000
512,1398022488,121.40838623046875,-87.55976867675781,-78.69556427001953,9.71414756774902,0.48302945494652,-0.38197013735771,4.32965373992920,3.70087528228760,-4.64618253707886
513,1398039155,118.77819061279297,-87.49368286132812,-76.02880096435547,9.72304344177246,0.43330681324005,-0.55631709098816,2.54890561103821,3.04735422134399,-6.15696001052856
514,1398055822,116.92416381835938,-87.45355224609375,-74.14828491210938,9.62001132965088,0.55836242437363,-0.44298371672630,2.00070405006409,2.32539606094360,-3.74247622489929
515,1398072489,116.20496368408203,-87.46086883544922,-73.43526458740234,9.64102363586426,0.33705344796181,-0.52355015277863,0.16561809182167,0.96127659082413,0.25638949871063
516,1398089156,115.43067932128906,-87.54202270507812,-72.70952606201172,9.47508144378662,-0.01610294356942,-0.83627772331238,-2.39640140533447,2.89534306526184,4.26933622360229
517,1398105823,114.25070953369141,-87.66201019287109,-71.55517578125000,9.54872417449951,-0.11208583414555,-0.62252980470657,-1.03640520572662,4.73194122314453,6.05825567245483
518,1398122490,113.03023529052734,-87.77410888671875,-70.33937072753906,9.82249832153320,-0.17370139062405,-0.54231178760529,0.19728825986385,4.43064546585083,5.73513889312744
519,1398139157,112.23609161376953,-87.85096740722656,-69.51950836181641,9.79138278961182,-0.01466756314039,-0.62873542308807,2.02193737030029,2.57865500450134,4.26112794876099
520,1398155824,111.62282562255859,-87.87625122070312,-68.87459564208984,9.91357326507568,0.15050339698792,-0.77387642860413,2.40351486206055,0.97838598489761,1.59700930118561
521,1398172491,110.66118621826172,-87.85570526123047,-67.87155151367188,9.90920734405518,0.15093970298767,-0.81556725502014,2.99350309371948,0.71054106950760,-1.24496924877167
522,1398189158,110.26325225830078,-87.82363128662109,-67.42398071289062,9.50267505645752,0.33647871017456,-0.55814516544342,3.54529094696045,-0.66014176607132,-1.45928370952606
523,1398205825,110.86808776855469,-87.81331634521484,-68.02835845947266,9.48275089263916,0.38671284914017,-0.70181614160538,0.62809377908707,-2.43387246131897,0.60313421487808
524,1398222492,110.76307678222656,-87.85443115234375,-67.97284698486328,9.64848613739014,0.28341603279114,-0.34980642795563,-2.41771101951599,0.06987785547972,2.97831559181213
525,1398239159,111.07978820800781,-87.91409301757812,-68.37648773193359,9.46032428741455,0.14609675109386,-0.08131416141987,-4.64040708541870,-0.47377100586891,4.38794898986816
526,1398255826,112.18539428710938,-87.96856689453125,-69.57067108154297,9.15803146362305,-0.02927793003619,-0.03841067850590,-4.72160005569458,-2.09232783317566,4.72120952606201
527,1398272493,114.04306793212891,-88.01614379882812,-71.50345611572266,9.25771141052246,-0.00486272573471,-0.01520632021129,-3.85298275947571,-3.51576590538025,4.93917274475098
528,1398289160,115.51389312744141,-88.05721282958984,-73.04836273193359,9.51116752624512,-0.17910966277122,0.14498972892761,-3.77307128906250,-2.76393079757690,4.26929807662964
529,1398305827,117.96564483642578,-88.04555511474609,-75.52040863037109,9.57053375244141,-0.25092682242393,-0.01312269270420,-0.53811007738113,-5.72916412353516,2.32907176017761
530,1398322494,120.26582336425781,-87.99562835693359,-77.78499603271484,9.80438423156738,-0.02205043472350,-0.28736665844917,2.78332638740540,-6.46587657928467,0.36450085043907
531,1398339161,121.20113372802734,-87.94043731689453,-78.69222259521484,9.90458297729492,0.07542809844017,-0.11267131567001,2.27694988250732,-4.27524662017822,-1.16387951374054
532,1398355828,122.64096832275391,-87.87606811523438,-80.10020446777344,9.71550083160400,0.27777248620987,-0.27656224370003,2.54412889480591,-5.57880496978760,-0.95353531837463
533,1398372495,124.54100036621094,-87.82507324218750,-81.99642181396484,9.62897109985352,0.43542152643204,-0.47888088226318,0.92687886953354,-6.16433763504028,0.50101649761200
534,1398389162,126.46446228027344,-87.79788970947266,-83.96930694580078,9.77061462402344,0.35095649957657,-0.49334311485291,-2.26640415191650,-5.54021978378296,1.99376320838928
535,1398405829,128.14112854003906,-87.78053283691406,-85.72044372558594,9.89112949371338,0.29045715928078,-0.57441568374634,-3.78823423385620,-4.77793455123901,2.31693172454834
536,1398422496,129.19104003906250,-87.75006103515625,-86.85457611083984,9.84088802337646,0.05122950673103,-0.59891861677170,-4.42212200164795,-4.12534761428833,0.94120901823044
537,1398439163,129.37101745605469,-87.71440887451172,-87.09551239013672,9.76294898986816,-0.13705265522003,-0.47926092147827,-3.06475162506104,-2.71722579002380,-0.58080643415451
538,1398455830,129.58976745605469,-87.66695404052734,-87.33930206298828,9.76450347900391,0.00271625537425,-0.44843712449074,-0.90247642993927,-3.20111370086670,-1.12879025936127
539,1398472497,129.87095642089844,-87.61813354492188,-87.64336395263672,9.78467369079590,0.07468492537737,-0.55083155632019,-0.72327697277069,-3.36068058013916,-1.05305325984955
540,1398489164,129.95320129394531,-87.58467864990234,-87.73661041259766,9.86916542053223,-0.07242016494274,-0.47084677219391,-0.05309512838721,-2.40808057785034,-0.69964939355850
541,1398505831,129.98941040039062,-87.55591583251953,-87.77833557128906,9.73678684234619,-0.21687681972980,-0.47036969661713,0.26710844039917,-2.12194824218750,-0.55423325300217
542,1398522498,129.89363098144531,-87.51975250244141,-87.65175628662109,9.62686920166016,-0.08422011882067,-0.59571325778961,2.41951036453247,-2.06885290145874,-1.16139519214630
543,1398539165,129.49879455566406,-87.49673461914062,-87.19490051269531,9.84151268005371,0.01992358826101,-0.67311185598373,4.27987575531006,-0.89257705211639,-1.11256456375122
544,1398555832,128.99291992187500,-87.52939605712891,-86.60437011718750,10.03353977203369,0.29129052162170,-0.60853421688080,5.63136911392212,1.50581538677216,1.26075315475464
545,1398572499,128.93762207031250,-87.56675720214844,-86.46393585205078,9.84966564178467,0.36839762330055,-0.46457445621490,5.70992279052734,0.76564693450928,2.22813224792480
546,1398589166,128.51763916015625,-87.60714721679688,-85.98171234130859,9.99566936492920,0.04374609515071,-0.48726907372475,4.29312992095947,1.54148113727570,1.84549093246460
547,1398605833,127.56845855712891,-87.65682220458984,-84.95236206054688,9.92227363586426,-0.02332362718880,-0.28949645161629,5.35589170455933,2.92131471633911,1.49505829811096
548,1398622500,126.82926177978516,-87.71167755126953,-84.13317108154297,9.84555721282959,-0.00781902112067,-0.31486707925797,5.33062458038330,2.65457105636597,2.15180635452271
549,1398639167,126.25618743896484,-87.76734924316406,-83.48403167724609,9.74782180786133,-0.01481214631349,-0.38151335716248,5.06610918045044,2.31381940841675,2.50852704048157
550,1398655834,125.71716308593750,-87.81771087646484,-82.85066986083984,9.62193679809570,0.09939814358950,-0.22146975994110,6.17586946487427,2.03348875045776,2.30287003517151
551,1398672501,125.49916839599609,-87.85488891601562,-82.54728698730469,9.54325485229492,0.40146136283875,-0.13709937036037,5.67567873001099,0.93447297811508,2.13020205497742
552,1398689168,125.14105987548828,-87.89587402343750,-82.15464019775391,9.66463565826416,0.38266512751579,-0.14427684247494,2.63232612609863,1.21655845642090,2.22737669944763
553,1398705835,124.65332031250000,-87.94643402099609,-81.67125701904297,9.77816581726074,0.27450922131538,0.02846973575652,0.25964236259460,1.66269350051880,2.59165310859680
554,1398722502,124.33964538574219,-87.98792266845703,-81.37827301025391,9.81964778900146,0.15969243645668,0.02512663416564,-0.72907835245132,1.01644647121429,2.43897581100464
555,1398739169,124.33016967773438,-88.01751708984375,-81.40862274169922,9.81024074554443,0.17294397950172,-0.01587198860943,-1.85225939750671,0.02802669815719,2.21934676170349
556,1398755836,124.12534332275391,-88.04395294189453,-81.23448944091797,9.70975208282471,0.22395725548267,0.05527904629707,-1.31420040130615,0.26272866129875,1.82222187519073
557,1398772503,124.49282073974609,-88.03965759277344,-81.63171386718750,9.66041278839111,0.16308590769768,0.11437565088272,-1.22852599620819,-1.74281632900238,0.95027601718903
558,1398789170,124.91400146484375,-88.02088165283203,-82.07859039306641,9.68215274810791,0.00073762284592,0.11368666589260,-0.96525293588638,-2.31280112266541,0.31680986285210
559,1398805837,125.42439270019531,-88.00227355957031,-82.59477233886719,9.77612781524658,-0.04183480888605,0.05828394740820,0.20513851940632,-2.45282578468323,0.40128058195114
560,1398822504,125.77998352050781,-87.99552917480469,-82.94585418701172,9.87874984741211,-0.01280374825001,0.11587174236774,0.81346583366394,-1.75427794456482,0.81032818555832
561,1398839171,125.91979980468750,-87.99670410156250,-83.07518768310547,9.88543319702148,0.09131104499102,0.12702125310898,1.16122210025787,-1.11024641990662,0.91928458213806
562,1398855838,125.85088348388672,-88.00551605224609,-83.00302124023438,9.86434173583984,0.15156075358391,0.14822378754616,0.74878096580505,-0.48625713586807,1.05796456336975
563,1398872505,125.67874908447266,-88.01634216308594,-82.82589721679688,9.86642742156982,0.09699852019548,0.21903809905052,0.80080020427704,-0.24982625246048,1.02249097824097
564,1398889172,125.45011138916016,-88.03119659423828,-82.58821868896484,9.79274940490723,0.05156599730253,0.27721923589706,1.08848214149475,-0.00624949857593,1.15617656707764
565,1398905839,125.38316345214844,-88.03885650634766,-82.51292419433594,9.89926242828369,0.06371583044529,0.25005987286568,1.03639853000641,-0.53205251693726,0.99796664714813
566,1398922506,125.22162628173828,-88.04716491699219,-82.33183288574219,9.83323383331299,0.08124031871557,0.12479424476624,1.69487547874451,-0.32177233695984,0.92340821027756
567,1398939173,124.80683135986328,-88.06063079833984,-81.89427947998047,9.80361270904541,0.15016192197800,0.26731139421463,1.85522365570068,0.26156327128410,0.86323118209839
568,1398955840,124.22498321533203,-88.07542419433594,-81.27627563476562,9.70488739013672,0.07708466053009,0.31256538629532,2.68092608451843,0.60251951217651,0.73924010992050
569,1398972507,123.76467132568359,-88.07695007324219,-80.77381134033203,9.77596473693848,0.02891117148101,0.16227202117443,3.03130793571472,-0.04409226775169,0.21688194572926
570,1398989174,122.89739990234375,-88.08020782470703,-79.86935424804688,9.80081748962402,0.08045547455549,0.29872697591782,2.75864768028259,0.70653271675110,-0.10263009369373
571,1399005841,122.29993438720703,-88.08797454833984,-79.24931335449219,9.81853866577148,0.19744068384171,0.22619086503983,1.86316382884979,0.37354198098183,0.44566735625267
572,1399022508,121.98963928222656,-88.10866546630859,-78.94019317626953,9.78245544433594,0.24676077067852,0.12681029736996,0.42698290944099,0.23816607892513,1.41667032241821
573,1399039175,121.84461975097656,-88.13407897949219,-78.80979919433594,9.71108722686768,0.19161269068718,0.08450049906969,-0.36928388476372,0.09166144579649,1.86640369892120
574,1399055842,121.62313079833984,-88.15666198730469,-78.59654235839844,9.69288921356201,0.12605971097946,0.10519718378782,0.01340184453875,0.14459009468555,1.65878725051880
575,1399072509,121.24707794189453,-88.16719818115234,-78.22615051269531,9.77017116546631,0.15180487930775,0.10226850956678,0.17761765420437,0.01765355281532,0.89638680219650
576,1399089176,120.69580841064453,-88.16826629638672,-77.67585754394531,9.86645889282227,0.16032494604588,0.09863537549973,0.45924207568169,-0.00421328889206,0.20880112051964
577,1399105843,119.98254394531250,-88.17394256591797,-76.95897674560547,9.85625934600830,0.07454373687506,0.09611848741770,0.71018248796463,0.42606082558632,0.32067739963531
578,1399122510,119.28684997558594,-88.18457794189453,-76.25163269042969,9.75244426727295,0.04820554703474,0.08229593932629,1.18820524215698,0.55189603567123,0.59842151403427
579,1399139177,118.70975494384766,-88.18383026123047,-75.64824676513672,9.84062194824219,0.06187627092004,0.03559728339314,2.05100727081299,0.05020729079843,0.11924632638693
580,1399155844,117.83665466308594,-88.18135070800781,-74.73677825927734,9.89766979217529,0.07830215990543,0.03336854279041,2.77428412437439,0.52835786342621,-0.22507159411907
581,1399172511,116.86971282958984,-88.18727874755859,-73.72320556640625,9.81889247894287,0.19098053872585,0.02595454081893,3.28592395782471,0.94529432058334,0.15924057364464
582,1399189178,115.69720458984375,-88.20354461669922,-72.50662994384766,9.75256252288818,0.20524585247040,0.04977899789810,3.11712288856506,1.54638588428497,0.55827355384827
583,1399205845,114.65940856933594,-88.21775817871094,-71.42653656005859,9.78166484832764,0.12641873955727,0.09949018806219,3.04968476295471,1.26722013950348,0.64726489782333
584,1399222512,113.48430633544922,-88.22800445556641,-70.21496582031250,9.87870216369629,0.13879118859768,0.16234490275383,2.65065193176270,1.36763501167297,0.35227069258690
585,1399239179,112.46870422363281,-88.23297882080078,-69.16320037841797,9.83175945281982,0.10412169992924,0.18640208244324,2.61859798431396,0.97399342060089,0.23529748618603
586,1399255846,111.67425537109375,-88.23586273193359,-68.32336425781250,9.78570747375488,0.14649513363838,0.13573965430260,3.21602630615234,0.56922298669815,0.29416823387146
587,1399272513,111.16220855712891,-88.23353576660156,-67.77231597900391,9.75414657592773,0.14491139352322,0.12694463133812,2.81835126876831,-0.04140292853117,0.19627653062344
588,1399289180,110.87602996826172,-88.22602081298828,-67.46575927734375,9.69113922119141,0.19159965217113,0.08162184059620,1.75789535045624,-0.56301820278168,0.08487407118082
589,1399305847,111.46266937255859,-88.21556854248047,-68.03774261474609,9.67336082458496,0.25463560223579,0.00078105716966,1.39113438129425,-2.14251518249512,0.50526809692383
590,1399322514,112.33685302734375,-88.20834350585938,-68.90029907226562,9.74479961395264,0.26123252511024,-0.14324328303337,1.23078620433807,-2.58690810203552,0.88911277055740
591,1399339181,112.60752868652344,-88.20812225341797,-69.15713500976562,9.74699878692627,0.20878291130066,-0.12860544025898,1.33976840972900,-1.36222422122955,0.90987205505371
592,1399355848,112.43426513671875,-88.20660400390625,-68.96739959716797,9.79028701782227,0.18352596461773,-0.09136768430471,1.47725737094879,-0.63863986730576,0.48301070928574
593,1399372515,112.20943450927734,-88.19995880126953,-68.72176361083984,9.82678127288818,0.12128897011280,-0.09137393534184,1.75883018970490,-0.65116435289383,0.16949839890003
594,1399389182,111.90630340576172,-88.18857574462891,-68.37902832031250,9.79460525512695,-0.00822182092816,-0.09302942454815,2.90385890007019,-0.58974522352219,-0.17380777001381
595,1399405849,111.52774810791016,-88.17490386962891,-67.93772888183594,9.77776336669922,0.07727774977684,-0.09376465529203,4.29574298858643,-0.46224522590637,-0.38153961300850
596,1399422516,110.85627746582031,-88.16122436523438,-67.19705963134766,9.84076499938965,0.17253066599369,-0.01640458963811,4.60780811309814,0.09538810700178,-0.55560356378555
597,1399439183,109.75443267822266,-88.15061950683594,-66.03971862792969,9.94485950469971,0.17620405554771,0.12197203934193,3.78621673583984,0.93446028232574,-0.66354829072952
598,1399455850,108.84946441650391,-88.14164733886719,-65.07625579833984,9.80262756347656,0.09034076333046,0.16333007812500,3.98202633857727,0.64285957813263,-0.43349501490593
599,1399472517,108.61861419677734,-88.12831878662109,-64.77062225341797,9.73839569091797,0.18224661052227,-0.04478732123971,5.00308942794800,-0.63459306955338,-0.27122572064400
600,1399489184,108.00343322753906,-88.12080383300781,-64.09616851806641,9.74172592163086,0.20737193524837,-0.02520121447742,4.06092596054077,0.19527767598629,-0.09338391572237
601,1399505851,107.32927703857422,-88.11508178710938,-63.37655258178711,9.75675106048584,0.13306757807732,-0.00616937596351,3.19885325431824,0.31529870629311,-0.03411611542106
602,1399522518,106.61933135986328,-88.11487579345703,-62.61995315551758,9.74588489532471,0.19236682355404,0.04059124737978,3.25692987442017,0.48791551589966,0.26080772280693
603,1399539185,106.44639587402344,-88.11539459228516,-62.41373062133789,9.76709747314453,0.22968573868275,0.04872962832451,2.48286318778992,-0.53224474191666,0.62044847011566
604,1399555852,106.27854156494141,-88.11446380615234,-62.22106933593750,9.77154064178467,0.19829989969730,0.01661328971386,1.98356914520264,-0.58574968576431,0.53385192155838
605,1399572519,105.79154205322266,-88.11477661132812,-61.71390151977539,9.80041122436523,0.18487212061882,0.02347737923265,1.71615982055664,0.03766988217831,0.46281510591507
606,1399589186,105.29235839843750,-88.11508178710938,-61.21332931518555,9.84794902801514,0.23526796698570,0.03856263682246,0.59105783700943,0.03049831837416,0.48286977410316
607,1399605853,105.20107269287109,-88.11611938476562,-61.12990188598633,9.81208610534668,0.21480153501034,0.01738101243973,0.05780145525932,-0.75791811943054,0.71132224798203
608,1399622520,105.18408203125000,-88.11727142333984,-61.12346649169922,9.78687000274658,0.15790283679962,-0.03554567322135,-0.13821892440319,-0.89280742406845,0.78792983293533
609,1399639187,104.81990814208984,-88.11768341064453,-60.76115036010742,9.75578308105469,0.11063355207443,0.02101737074554,0.37238940596581,-0.23450988531113,0.55473899841309
610,1399655854,104.49816131591797,-88.10794067382812,-60.44060516357422,9.74042987823486,0.12321822345257,0.03369859978557,0.44949644804001,-0.46260374784470,-0.00439257780090
611,1399672521,104.25072479248047,-88.10029602050781,-60.19376754760742,9.75262451171875,0.08882226049900,-0.01306746155024,0.47090873122215,-0.57613205909729,0.12360049039125
612,1399689188,104.17975616455078,-88.09566497802734,-60.10930633544922,9.74922752380371,0.11189334094524,0.00065250298940,1.33310902118683,-0.83005636930466,0.40970712900162
613,1399705855,104.17434692382812,-88.09114837646484,-60.09664154052734,9.78535747528076,0.16266120970249,-0.00275342701934,0.95457881689072,-0.97648406028748,0.41686588525772
614,1399722522,103.87716674804688,-88.08838653564453,-59.79751968383789,9.81575584411621,0.12930850684643,-0.02759759128094,0.61555647850037,-0.39421784877777,0.38823089003563
615,1399739189,103.62833404541016,-88.08460235595703,-59.53399276733398,9.76933574676514,0.15697501599789,0.02057276479900,1.37134873867035,-0.46640726923943,0.38554155826569
616,1399755856,103.69235992431641,-88.08133697509766,-59.58378601074219,9.75931549072266,0.14447331428528,0.03365418687463,1.36512494087219,-1.07048285007477,0.54066491127014
617,1399772523,103.71555328369141,-88.07949829101562,-59.58958435058594,9.78173542022705,0.13873067498207,0.02425354719162,1.55901265144348,-0.96440768241882,0.60568261146545
618,1399789190,103.36986541748047,-88.08377838134766,-59.23041915893555,9.78134155273438,0.14329104125500,0.04277583956718,1.29992771148682,-0.17065742611885,0.78965872526169
619,1399805857,103.04674530029297,-88.09053802490234,-58.90129089355469,9.74762821197510,0.21768949925900,0.09177170693874,0.84019267559052,-0.20089320838451,0.94012057781219
620,1399822524,103.15756225585938,-88.09402465820312,-59.01508331298828,9.73387813568115,0.19756191968918,0.03437533602118,0.32628658413887,-1.09642851352692,0.98530143499374
621,1399839191,103.37351989746094,-88.09484863281250,-59.23292541503906,9.76057815551758,0.21830923855305,0.04344029352069,0.39544084668159,-1.34031260013580,0.84750497341156
622,1399855858,103.61170196533203,-88.09309387207031,-59.47561645507812,9.78207015991211,0.23035213351250,0.05901316553354,0.25085717439651,-1.42347705364227,0.71132230758667
623,1399872525,103.85518646240234,-88.09648895263672,-59.73840713500977,9.79282951354980,0.21530543267727,0.05786761268973,-0.64228951931000,-1.38396906852722,1.04414629936218
624,1399889192,103.83560180664062,-88.10286712646484,-59.73846054077148,9.80375671386719,0.14473776519299,0.07043515890837,-0.68087518215179,-0.83263045549393,1.09663987159729
625,1399905859,103.81072998046875,-88.10824584960938,-59.72446060180664,9.75346374511719,0.13684123754501,0.14518387615681,-0.13072721660137,-0.82896780967712,0.99805647134781
626,1399922526,104.27889251708984,-88.10721588134766,-60.21123886108398,9.74263954162598,0.15833525359631,0.16765192151070,-0.59014219045639,-1.87591254711151,0.87652426958084
627,1399939193,105.01333618164062,-88.10163116455078,-60.97693634033203,9.74697113037109,0.12961462140083,0.13743418455124,-1.35705053806305,-2.47564673423767,0.76863068342209
628,1399955860,105.63535308837891,-88.10266876220703,-61.63014984130859,9.82570838928223,0.17559221386909,0.18153037130833,-1.33931362628937,-2.15915060043335,1.10674405097961
629,1399972527,106.34082031250000,-88.10143280029297,-62.36101531982422,9.80847740173340,0.18067954480648,0.26472944021225,-0.99212062358856,-2.33394432067871,1.04518377780914
630,1399989194,107.73738861083984,-88.09125518798828,-63.77265930175781,9.78557109832764,0.25471112132072,0.08246745169163,-0.32000508904457,-3.79422736167908,0.91248458623886
631,1400005861,108.64813995361328,-88.07908630371094,-64.71309661865234,9.78132152557373,0.20223642885685,0.10039002448320,-1.22943508625031,-2.92682695388794,0.63180768489838
632,1400022528,109.70756530761719,-88.05963134765625,-65.80809783935547,9.73400402069092,0.17556069791317,0.06669082492590,-1.59440350532532,-3.39615440368652,0.32067742943764
633,1400039195,110.63527679443359,-88.04676055908203,-66.77545166015625,9.75746154785156,0.15715497732162,0.05618667975068,-1.85219538211823,-3.04196929931641,0.64552325010300
634,1400055862,111.65343475341797,-88.03159332275391,-67.84555053710938,9.79001522064209,0.14114509522915,0.02293754741549,-2.56675076484680,-3.30567741394043,0.62478977441788
635,1400072529,112.74581909179688,-88.01190185546875,-68.98862457275391,9.77325153350830,0.21584819257259,-0.00290848361328,-2.46122694015503,-3.55017662048340,0.51811289787292
636,1400089196,113.72220611572266,-87.99425506591797,-70.02391052246094,9.80389022827148,0.23973117768764,-0.04915571212769,-2.95838236808777,-3.33241724967957,0.57077264785767
637,1400105863,114.39136505126953,-87.98365020751953,-70.76750946044922,9.78148174285889,0.17707490921021,-0.06725560128689,-3.90400338172913,-2.59574508666992,0.79311662912369
638,1400122530,114.91296386718750,-87.97618865966797,-71.36441040039062,9.78275585174561,0.07604641467333,-0.07996586710215,-3.98409461975098,-2.26343297958374,0.81314563751221
639,1400139197,115.13644409179688,-87.96741485595703,-71.64939117431641,9.81387615203857,0.08834149688482,-0.08882196247578,-3.16310477256775,-1.70195114612579,0.47796499729156
640,1400155864,114.94571685791016,-87.95867156982422,-71.51228332519531,9.80974960327148,0.10243606567383,-0.03031834214926,-2.69934797286987,-0.88867104053497,0.10708029568195
641,1400172531,114.58435821533203,-87.95187377929688,-71.19311523437500,9.80139923095703,0.04442315921187,-0.02287748642266,-2.02367234230042,-0.47695970535278,0.06402534246445
642,1400189198,114.13689422607422,-87.94377136230469,-70.77220916748047,9.75615692138672,0.08025909215212,0.01402576919645,-1.07164812088013,-0.31949278712273,-0.12967708706856
643,1400205865,113.99414062500000,-87.92831420898438,-70.65464019775391,9.71544265747070,0.08719009906054,0.03342919051647,-1.01996171474457,-1.07602798938751,-0.24166861176491
644,1400222532,114.23563385009766,-87.90706634521484,-70.91307830810547,9.75630474090576,0.04301633685827,-0.02489230223000,-0.49892252683640,-1.96086990833282,-0.22504597902298
645,1400239199,114.26961517333984,-87.89067840576172,-70.94450378417969,9.80898284912109,0.12136205285788,-0.05816655978560,0.68075352907181,-1.39901685714722,-0.16937677562237
646,1400255866,113.91964721679688,-87.87957000732422,-70.59387207031250,9.80039215087891,0.14705722033978,-0.01327845733613,0.52187800407410,-0.49380001425743,-0.21195791661739
647,1400272533,113.67436218261719,-87.86494445800781,-70.35276794433594,9.78097057342529,0.20022407174110,0.03225721418858,0.26376602053642,-0.79275149106979,-0.31271830201149
648,1400289200,113.58708953857422,-87.84760284423828,-70.28201293945312,9.79816532135010,0.16010169684887,0.01906135305762,-0.44691598415375,-1.19991660118103,-0.30854335427284
649,1400305867,113.62318420410156,-87.83843231201172,-70.33409881591797,9.83472633361816,0.13788963854313,-0.01728562079370,-0.44636535644531,-1.26426839828491,0.23573291301727
650,1400322534,113.55831146240234,-87.83662414550781,-70.28412628173828,9.84032440185547,0.15156298875809,-0.00391197623685,-0.36020416021347,-0.86914134025574,0.56338328123093
651,1400339201,113.37451934814453,-87.83499908447266,-70.11225128173828,9.82231140136719,0.18895946443081,0.02570234611630,-0.20878191292286,-0.60416519641876,0.47713258862495
652,1400355868,113.29336547851562,-87.82759094238281,-70.04335784912109,9.77982902526855,0.19366331398487,0.04515142366290,-0.23175650835037,-0.96152627468109,0.24067611992359
653,1400372535,113.31425476074219,-87.81412506103516,-70.08026885986328,9.78115749359131,0.19502562284470,0.00897552445531,-0.41301760077477,-1.33276975154877,-0.01845394819975
654,1400389202,113.33672332763672,-87.80323028564453,-70.12794494628906,9.83522605895996,0.16465234756470,-0.03455443307757,-0.97328251600266,-1.28717899322510,0.14984071254730
655,1400405869,113.18975067138672,-87.80349731445312,-70.00838470458984,9.80233955383301,0.13603915274143,-0.03182708099484,-1.11722588539124,-0.67970979213715,0.59481012821198
656,1400422536,113.03874206542969,-87.80367279052734,-69.87381744384766,9.78684234619141,0.16019521653652,0.01505304779857,-0.49125155806541,-0.62784403562546,0.62708204984665
657,1400439203,112.99950408935547,-87.80091857910156,-69.85741424560547,9.74197673797607,0.19168594479561,-0.02205753885210,-0.85305666923523,-0.96217942237854,0.53625953197479
658,1400455870,112.76259613037109,-87.79744720458984,-69.64623260498047,9.72198772430420,0.15632607042789,-0.04189744219184,-1.03582882881165,-0.57204687595367,0.31104704737663
659,1400472537,112.45470428466797,-87.79354095458984,-69.36278533935547,9.78705215454102,0.14879070222378,0.04182643815875,-0.93683570623398,-0.42008668184280,0.23382472991943
660,1400489204,112.32660675048828,-87.78282928466797,-69.24443054199219,9.78103828430176,0.06826077401638,0.12263286858797,-0.06727175414562,-0.91625589132309,0.02258399873972
661,1400505871,112.73497772216797,-87.76026153564453,-69.63888549804688,9.81846523284912,0.12435224652290,-0.09243697673082,1.38036453723907,-2.29602456092834,-0.19778124988079
662,1400522538,112.21790313720703,-87.75014495849609,-69.10755920410156,9.82314395904541,0.11517277359962,-0.07816754281521,1.34673500061035,-0.01384366396815,-0.33317002654076
663,1400539205,112.02264404296875,-87.74224090576172,-68.89730072021484,9.75789928436279,0.16458967328072,0.00126463267952,1.42569875717163,-0.64768111705780,0.08721763640642
664,1400555872,111.85924530029297,-87.74102783203125,-68.72295379638672,9.79588317871094,0.18572539091110,-0.03824738040566,1.16925191879272,-0.57668280601501,0.48213991522789
665,1400572539,111.74902343750000,-87.74423980712891,-68.60872650146484,9.75390815734863,0.21762043237686,-0.00713665271178,0.78066861629486,-0.60371685028076,0.79293709993362
666,1400589206,111.88973236083984,-87.73963928222656,-68.74354553222656,9.71059989929199,0.19501304626465,-0.03557930141687,0.89656615257263,-1.32553410530090,0.57086223363876
667,1400605873,111.91835784912109,-87.72798156738281,-68.76425933837891,9.78475093841553,0.15908712148666,-0.00497947260737,0.99719834327698,-1.23619687557220,0.07646030932665
668,1400622540,111.78747558593750,-87.71792602539062,-68.62334442138672,9.79894161224365,0.17261061072350,0.01319250557572,1.12482655048370,-0.84228652715683,0.02509404346347
669,1400639207,111.79305267333984,-87.70903015136719,-68.61755371093750,9.75323390960693,0.16703999042511,-0.02242423035204,1.18575918674469,-1.12010741233826,0.19385612010956
670,1400655874,111.82643890380859,-87.70202636718750,-68.63507080078125,9.80086517333984,0.14744275808334,-0.04186686128378,1.49224054813385,-1.13164567947388,0.31518343091011
671,1400672541,111.57297515869141,-87.69548034667969,-68.35868835449219,9.85155200958252,0.12803417444229,0.01828816533089,1.89228534698486,-0.45102679729462,0.11217721551657
672,1400689208,111.45243072509766,-87.68277740478516,-68.21224212646484,9.79305839538574,0.15619534254074,0.02372155524790,2.08523893356323,-0.88000118732452,-0.12812753021717
673,1400705875,111.38797760009766,-87.67039489746094,-68.12800598144531,9.78913879394531,0.18466535210609,-0.03469537571073,1.72813355922699,-1.01157367229462,-0.06345546245575
674,1400722542,111.22090148925781,-87.66435241699219,-67.93996429443359,9.81253814697266,0.17126968502998,-0.02205032110214,1.76301801204681,-0.63461863994598,0.20580443739891
675,1400739209,111.03910064697266,-87.66091918945312,-67.73445892333984,9.78875827789307,0.16903960704803,-0.02057181484997,1.94325482845306,-0.53819972276688,0.33148598670959
676,1400755876,110.77864074707031,-87.65899658203125,-67.45269775390625,9.73967838287354,0.24408143758774,0.00119420490228,1.76487505435944,-0.32779133319855,0.35260361433029
677,1400772543,110.64494323730469,-87.65523529052734,-67.31072235107422,9.79380702972412,0.19718906283379,0.01184491626918,1.02447593212128,-0.69026225805283,0.36085093021393
678,1400789210,110.43276977539062,-87.65098571777344,-67.08889007568359,9.82172107696533,0.15832079946995,-0.02907510288060,1.11955034732819,-0.50366097688675,0.29532080888748
679,1400805877,110.18156433105469,-87.65006256103516,-66.82025909423828,9.78819847106934,0.14300750195980,-0.00245296256617,1.55775809288025,-0.33475798368454,0.41663539409637
680,1400822544,109.95120239257812,-87.65106964111328,-66.56960296630859,9.78764247894287,0.19078987836838,0.01243575196713,1.73648333549500,-0.33708873391151,0.53958910703659
681,1400839211,109.77606201171875,-87.64914703369141,-66.38048553466797,9.80411720275879,0.15624108910561,-0.00143849989399,1.35345840454102,-0.53205269575119,0.44178706407547
682,1400855878,109.50406646728516,-87.65198516845703,-66.09061431884766,9.78406238555908,0.15428176522255,0.01096854452044,1.61328637599945,-0.19971503317356,0.63408726453781
683,1400872545,109.31395721435547,-87.65564727783203,-65.88649749755859,9.78038787841797,0.18255317211151,-0.00706499582157,1.37935268878937,-0.38366541266441,0.75091946125031
684,1400889212,109.09070587158203,-87.66125488281250,-65.65032958984375,9.79774665832520,0.19038283824921,-0.01638038083911,1.28829967975616,-0.27298018336296,0.83745205402374
685,1400905879,108.79219818115234,-87.66326904296875,-65.33645629882812,9.81417942047119,0.20056957006454,-0.04206785932183,1.43876147270203,-0.16540680825710,0.57620251178741
