sep=,
DeviceTag:,Xsens_DOT_3
FirmwareVersion:,3.0.0
AppVersion:,2023.6.0
StartTime: ,2025-04-09_10:43:22_000 CEST
© Movella Technologies B. V. 2005-2025

PacketCounter,SampleTimeFine,Euler_X,Euler_Y,Euler_Z,Acc_X,Acc_Y,Acc_Z,Gyr_X,Gyr_Y,Gyr_Z
0,1256552992,97.78074645996094,-85.35742187500000,74.81214904785156,0.00000000000000,0.00000000000000,0.00000000000000,0.00000000000000,0.00000000000000,0.00000000000000
1,1256569659,97.61032867431641,-85.34852600097656,75.01596832275391,9.71385002136230,0.85242503881454,0.00798390153795,2.48789620399475,1.30758607387543,-0.41917744278908
2,1256586326,97.60186767578125,-85.34062194824219,75.05712890625000,9.70688056945801,0.86004966497421,-0.03320545330644,2.65030646324158,0.54781085252762,-0.24301333725452
3,1256602993,97.74814605712891,-85.33502960205078,74.94435119628906,9.74111747741699,0.88816958665848,-0.03852811828256,2.50007486343384,-0.19878017902374,-0.01317773479968
4,1256619660,97.95787048339844,-85.33032989501953,74.74748992919922,9.71381759643555,0.86561256647110,-0.11349781602621,1.79618656635284,-0.55801105499268,0.10061307996511
5,1256636327,98.16202545166016,-85.32621765136719,74.54481506347656,9.73388576507568,0.85599023103714,-0.20380300283432,1.04061186313629,-0.58801633119583,0.14186233282089
6,1256652994,98.33496856689453,-85.32157135009766,74.36293792724609,9.77054023742676,0.77952939271927,-0.26216018199921,0.82765513658524,-0.45899233222008,0.09641259163618
7,1256669661,98.45581817626953,-85.31742858886719,74.26043701171875,9.71963214874268,0.78632849454880,-0.23755840957165,1.73909604549408,-0.12875506281853,0.08122427761555
8,1256686328,98.51851654052734,-85.30960845947266,74.21007537841797,9.68072986602783,0.82445442676544,-0.20586240291595,1.27085733413696,0.08003327995539,-0.18451388180256
9,1256702995,98.55695343017578,-85.30318450927734,74.17848205566406,9.73836231231689,0.78924036026001,-0.23160119354725,1.01052975654602,0.19176866114140,-0.10640795528889
10,1256719662,98.62757873535156,-85.29772186279297,74.12149810791016,9.71901130676270,0.79425799846649,-0.16930703818798,1.88073396682739,0.11411096900702,-0.03499975055456
11,1256736329,98.73329162597656,-85.29343414306641,74.03704833984375,9.76795578002930,0.90393137931824,-0.07381242513657,1.29999172687531,-0.09545851498842,0.07062061131001
12,1256752996,98.84197998046875,-85.28823089599609,73.92903900146484,9.77390670776367,0.82532435655594,-0.16384582221508,0.86100286245346,-0.15357373654842,0.02518368512392
13,1256769663,98.99813842773438,-85.28524017333984,73.78124237060547,9.75154590606689,0.83802610635757,-0.17103041708469,1.81940448284149,-0.29272750020027,0.17125290632248
14,1256786330,99.14384460449219,-85.28162384033203,73.65701293945312,9.68804740905762,0.83973038196564,-0.21623587608337,1.64317643642426,-0.25957190990448,0.14094027876854
15,1256802997,99.30671691894531,-85.27809906005859,73.49962615966797,9.75717830657959,0.81942951679230,-0.17057202756405,1.96662616729736,-0.31658574938774,0.15935581922531
16,1256819664,99.44882965087891,-85.27540588378906,73.36856842041016,9.74774932861328,0.82065844535828,-0.21776565909386,1.97787022590637,-0.20711708068848,0.18856708705425
17,1256836331,99.59363555908203,-85.27470397949219,73.25045776367188,9.72752666473389,0.89335381984711,-0.19568933546543,2.44121670722961,-0.16503544151783,0.30034092068672
18,1256852998,99.70071411132812,-85.27462005615234,73.16207885742188,9.76039695739746,0.79871582984924,-0.22955483198166,2.29458403587341,0.01870367303491,0.32401984930038
19,1256869665,99.76707458496094,-85.27660369873047,73.14101409912109,9.71182727813721,0.84729468822479,-0.19067268073559,2.48507857322693,0.24906429648399,0.39345589280128
20,1256886332,99.82129669189453,-85.27632141113281,73.11349487304688,9.70488262176514,0.82010537385941,-0.22388800978661,1.71545553207397,0.22519326210022,0.26436787843704
21,1256902999,99.88415527343750,-85.27507781982422,73.05902099609375,9.71143531799316,0.82963091135025,-0.21420292556286,1.25515663623810,0.13479323685169,0.22580794990063
22,1256919666,99.99790191650391,-85.27283477783203,72.91876220703125,9.72253799438477,0.85161513090134,-0.18804302811623,1.17299115657806,-0.13088089227676,0.20507447421551
23,1256936333,100.15516662597656,-85.26997375488281,72.76358032226562,9.75619697570801,0.84691774845123,-0.17317064106464,0.90982067584991,-0.37115359306335,0.22126169502735
24,1256953000,100.35354614257812,-85.26699829101562,72.57421875000000,9.72998905181885,0.80529421567917,-0.18424125015736,1.67183697223663,-0.51404690742493,0.23345333337784
25,1256969667,100.57865905761719,-85.26657867431641,72.36411285400391,9.72126865386963,0.86246693134308,-0.19515906274319,1.83190345764160,-0.60034883022308,0.41987538337708
26,1256986334,100.83776092529297,-85.26675415039062,72.13889312744141,9.74018001556396,0.86318647861481,-0.19281996786594,1.17030191421509,-0.82068210840225,0.48193499445915
27,1257003001,101.10962677001953,-85.26749420166016,71.87503814697266,9.72530174255371,0.84038567543030,-0.19518107175827,0.49735379219055,-0.92524594068527,0.55686491727829
28,1257019668,101.40570068359375,-85.26885986328125,71.56072235107422,9.73509120941162,0.81900155544281,-0.15872150659561,0.56577807664871,-1.02797853946686,0.62414944171906
29,1257036335,101.70265197753906,-85.27143096923828,71.24708557128906,9.72381591796875,0.84534639120102,-0.18637643754482,0.50715065002441,-1.01641440391541,0.71604782342911
30,1257053002,102.01690673828125,-85.27349853515625,70.92974853515625,9.72712326049805,0.83413189649582,-0.20272934436798,0.59414422512054,-1.10499596595764,0.68480038642883
31,1257069669,102.37885284423828,-85.27586364746094,70.58826446533203,9.73134613037109,0.83410227298737,-0.22692364454269,0.60675841569901,-1.32438135147095,0.77199876308441
32,1257086336,102.73902893066406,-85.27644348144531,70.20566558837891,9.75664997100830,0.84532827138901,-0.26012209057808,0.19229376316071,-1.36896049976349,0.68227750062943
33,1257103003,103.05055236816406,-85.27914428710938,69.86623382568359,9.74254608154297,0.78754436969757,-0.28667110204697,0.22150503098965,-1.09859263896942,0.76801604032516
34,1257119670,103.32968902587891,-85.28204345703125,69.56723785400391,9.72748851776123,0.77975386381149,-0.28322589397430,0.81674408912659,-0.88698053359985,0.73976516723633
35,1257136337,103.54381561279297,-85.28553009033203,69.35133361816406,9.74033832550049,0.82877379655838,-0.28938329219818,0.59227442741394,-0.58284264802933,0.70392018556595
36,1257153004,103.71157073974609,-85.28852844238281,69.17736816406250,9.75244140625000,0.80159014463425,-0.30291330814362,0.65579402446747,-0.35838571190834,0.62315052747726
37,1257169671,103.80641937255859,-85.29226684570312,69.08904266357422,9.73768615722656,0.80764180421829,-0.27703624963760,1.05193281173706,0.03442987054586,0.57419186830521
38,1257186338,103.90727233886719,-85.29622650146484,68.99709320068359,9.75051784515381,0.79011791944504,-0.26703599095345,0.71469032764435,-0.01771118119359,0.60249394178391
39,1257203005,103.99185943603516,-85.29876708984375,68.90273284912109,9.73405361175537,0.81015759706497,-0.21293811500072,0.54231679439545,0.03130512312055,0.51302868127823
40,1257219672,104.07514190673828,-85.30051422119141,68.82260894775391,9.74833488464355,0.77919137477875,-0.27433818578720,0.93439602851868,0.05339607223868,0.44770354032516
41,1257236339,104.20913696289062,-85.30260467529297,68.68266296386719,9.71503925323486,0.84664559364319,-0.21293096244335,0.60911476612091,-0.21139438450336,0.53185403347015
42,1257253006,104.41085052490234,-85.30281066894531,68.47794342041016,9.67222309112549,0.80043232440948,-0.23244698345661,0.31841069459915,-0.58230471611023,0.52045643329620
43,1257269673,104.64866638183594,-85.30230712890625,68.22973632812500,9.69447326660156,0.82813274860382,-0.17885661125183,0.00492404121906,-0.78898638486862,0.53778344392776
44,1257286340,104.89617156982422,-85.30143737792969,67.99443817138672,9.73771667480469,0.81126123666763,-0.22808025777340,0.23026457428932,-0.82590699195862,0.51952159404755
45,1257303007,105.13746643066406,-85.30130767822266,67.74887084960938,9.74670791625977,0.81138271093369,-0.28956806659698,-0.35145744681358,-0.82802009582520,0.57412785291672
46,1257319674,105.38336181640625,-85.30176544189453,67.47605895996094,9.78345870971680,0.77806746959686,-0.31519693136215,0.16386362910271,-0.79448026418686,0.62002575397491
47,1257336341,105.61771392822266,-85.30451965332031,67.23126983642578,9.75929450988770,0.80698078870773,-0.32468935847282,0.61700350046158,-0.66531544923782,0.72963541746140
48,1257353008,105.80890655517578,-85.30773162841797,67.05152130126953,9.75893402099609,0.81165760755539,-0.33890011906624,1.06441903114319,-0.42027881741524,0.68202143907547
49,1257369675,105.98292541503906,-85.31261444091797,66.88555145263672,9.70937252044678,0.78271418809891,-0.28481525182724,1.48526120185852,-0.27522128820419,0.74757713079453
50,1257386342,106.08604431152344,-85.31914520263672,66.80580902099609,9.71391868591309,0.79948705434799,-0.32172322273254,0.86987775564194,0.03998783230782,0.76286786794662
51,1257403009,106.14500427246094,-85.32488250732422,66.79058074951172,9.74041557312012,0.77047920227051,-0.32421401143074,1.29116821289062,0.27705898880959,0.66370838880539
52,1257419676,106.15264892578125,-85.33259582519531,66.81755065917969,9.73032474517822,0.80104005336761,-0.31088972091675,1.50937581062317,0.56110382080078,0.68310993909836
53,1257436343,106.14705657958984,-85.34053802490234,66.83172607421875,9.72219753265381,0.77272248268127,-0.29344764351845,1.63363552093506,0.64241135120392,0.68271297216415
54,1257453010,106.17361450195312,-85.34709930419922,66.83449554443359,9.71323394775391,0.80199033021927,-0.28082051873207,2.44487929344177,0.53050947189331,0.62947684526443
55,1257469677,106.25632476806641,-85.35156250000000,66.74578094482422,9.71252536773682,0.82887482643127,-0.20307943224907,1.40053462982178,0.15092924237251,0.61066436767578
56,1257486344,106.35590362548828,-85.35425567626953,66.66138458251953,9.73217010498047,0.78602081537247,-0.23752488195896,1.25345349311829,0.03102337941527,0.53290426731110
57,1257503011,106.53598022460938,-85.35695648193359,66.48432159423828,9.74921894073486,0.81868451833725,-0.24094410240650,1.48747682571411,-0.32903355360031,0.63573920726776
58,1257519678,106.84024810791016,-85.35758972167969,66.21109008789062,9.73612213134766,0.77100795507431,-0.23112316429615,1.98217344284058,-0.90020966529846,0.69297081232071
59,1257536345,107.22313690185547,-85.35691833496094,65.84580993652344,9.74065971374512,0.83176422119141,-0.19744955003262,1.78116488456726,-1.30642700195312,0.73375898599625
60,1257553012,107.62121582031250,-85.35413360595703,65.43334197998047,9.74397087097168,0.79964613914490,-0.26182872056961,1.10972785949707,-1.46194720268250,0.67131525278091
61,1257569679,108.04460906982422,-85.35089111328125,64.99413299560547,9.75507450103760,0.77394783496857,-0.29739379882812,1.00407540798187,-1.59529972076416,0.69462269544601
62,1257586346,108.47663879394531,-85.34735107421875,64.56069946289062,9.73053073883057,0.80087894201279,-0.33953920006752,1.37129747867584,-1.60965573787689,0.70178157091141
63,1257603013,108.90882873535156,-85.34516143798828,64.15866851806641,9.71319770812988,0.79457014799118,-0.34798133373260,1.75237619876862,-1.55383288860321,0.78312748670578
64,1257619680,109.31093597412109,-85.34272003173828,63.78149414062500,9.73505210876465,0.79606956243515,-0.35500261187553,1.34691429138184,-1.45080578327179,0.73982924222946
65,1257636347,109.67122650146484,-85.34007263183594,63.47989654541016,9.74713039398193,0.77045673131943,-0.36383345723152,1.68555271625519,-1.23078000545502,0.67336434125900
66,1257653014,109.97577667236328,-85.33662414550781,63.22958755493164,9.73344993591309,0.78610128164291,-0.36308002471924,1.26289200782776,-1.02509713172913,0.54273957014084
67,1257669681,110.27914428710938,-85.33267974853516,62.97032165527344,9.73652935028076,0.78141498565674,-0.36449095606804,1.34199655056000,-1.02263832092285,0.52419590950012
68,1257686348,110.52482604980469,-85.33016204833984,62.74314117431641,9.74033069610596,0.80745220184326,-0.33271461725235,0.89980626106262,-0.75767487287521,0.53237920999527
69,1257703015,110.75201416015625,-85.32759857177734,62.53045654296875,9.74064159393311,0.76025497913361,-0.38475948572159,1.29150116443634,-0.64337819814682,0.48974686861038
70,1257719682,110.92073822021484,-85.32626342773438,62.34990310668945,9.73732852935791,0.78644514083862,-0.38524508476257,0.86700910329819,-0.37783858180046,0.47859254479408
71,1257736349,111.06017303466797,-85.32609558105469,62.20686340332031,9.74446201324463,0.75567859411240,-0.38789871335030,1.13569915294647,-0.20349287986755,0.47577503323555
72,1257753016,111.16670227050781,-85.32759857177734,62.11431503295898,9.71782684326172,0.79612690210342,-0.36606410145760,1.10894668102264,-0.01652019098401,0.51506501436234
73,1257769683,111.25891876220703,-85.32798004150391,62.00191116333008,9.73804569244385,0.79979723691940,-0.35035309195518,0.93223184347153,0.01579663157463,0.44132602214813
74,1257786350,111.33287811279297,-85.33058166503906,61.95853805541992,9.75095558166504,0.76003921031952,-0.39389848709106,0.84988695383072,0.13481883704662,0.52030271291733
75,1257803017,111.39405822753906,-85.33368682861328,61.92686843872070,9.73249721527100,0.78129047155380,-0.41045966744423,1.36928701400757,0.24835994839668,0.52280002832413
76,1257819684,111.46393585205078,-85.33696746826172,61.86562728881836,9.73103809356689,0.79392445087433,-0.33735248446465,1.21609735488892,0.19840236008167,0.54434025287628
77,1257836351,111.50718688964844,-85.34015655517578,61.83633804321289,9.75120162963867,0.79404592514038,-0.34757316112518,1.17247891426086,0.32040843367577,0.50448691844940
78,1257853018,111.53483581542969,-85.34326934814453,61.80787658691406,9.75000762939453,0.79067450761795,-0.34244656562805,0.45583558082581,0.33176767826080,0.48703187704086
79,1257869685,111.53366088867188,-85.34924316406250,61.80683517456055,9.73470115661621,0.75130134820938,-0.40333127975464,1.33779621124268,0.59621882438660,0.57382047176361
80,1257886352,111.52020263671875,-85.35594940185547,61.81878662109375,9.70922279357910,0.82380425930023,-0.39242696762085,1.16859865188599,0.65206736326218,0.59158301353455
81,1257903019,111.50883483886719,-85.36329650878906,61.85609817504883,9.73445987701416,0.78088718652725,-0.38378220796585,1.17836999893188,0.65638303756714,0.63080877065659
82,1257919686,111.50108337402344,-85.37014007568359,61.86681747436523,9.73051738739014,0.75033468008041,-0.38189023733139,1.19814300537109,0.63242244720459,0.61042112112045
83,1257936353,111.49220275878906,-85.37648773193359,61.91703033447266,9.72474288940430,0.75641232728958,-0.33433598279953,1.33591365814209,0.63735282421112,0.58182448148727
84,1257953020,111.46147918701172,-85.38378906250000,61.96260833740234,9.73803901672363,0.77986580133438,-0.35861867666245,1.15382003784180,0.73794674873352,0.59021264314651
85,1257969687,111.44643402099609,-85.39129638671875,61.98288726806641,9.73940372467041,0.76711058616638,-0.32610872387886,0.98668444156647,0.66602629423141,0.64909625053406
86,1257986354,111.42268371582031,-85.39870452880859,62.01280593872070,9.75008201599121,0.75418370962143,-0.36377713084221,1.24653792381287,0.71705949306488,0.60705298185349
87,1258003021,111.44519042968750,-85.40594482421875,62.00644683837891,9.71977329254150,0.78018492460251,-0.36926531791687,1.53235006332397,0.52656507492065,0.67529797554016
88,1258019688,111.52744293212891,-85.41157531738281,61.93791198730469,9.70545578002930,0.77774387598038,-0.29725375771523,1.30606198310852,0.20977440476418,0.70100033283234
89,1258036355,111.62228393554688,-85.41678619384766,61.83183288574219,9.75134658813477,0.76890999078751,-0.29327130317688,1.09103059768677,0.12799304723740,0.70454770326614
90,1258053022,111.70670318603516,-85.42265319824219,61.75252532958984,9.73476028442383,0.76401066780090,-0.36194905638695,1.33624649047852,0.20726437866688,0.71611189842224
91,1258069689,111.81804656982422,-85.42868804931641,61.59912109375000,9.71728706359863,0.75995522737503,-0.37074097990990,1.31297743320465,0.09292928874493,0.77543097734451
92,1258086356,111.93126678466797,-85.43366241455078,61.48717880249023,9.74483680725098,0.75750023126602,-0.39346686005592,1.76596355438232,0.09529844671488,0.70696812868118
93,1258103023,112.04637908935547,-85.44039154052734,61.32648086547852,9.73254871368408,0.74287939071655,-0.36583909392357,1.36069381237030,0.09692486375570,0.81595009565353
94,1258119690,112.11898040771484,-85.44663238525391,61.25809097290039,9.74994564056396,0.72186475992203,-0.38024106621742,1.35344552993774,0.28106737136841,0.72619044780731
95,1258136357,112.16390991210938,-85.45541381835938,61.24660873413086,9.72736072540283,0.74948137998581,-0.39216071367264,2.28232836723328,0.52178829908371,0.77432948350906
96,1258153024,112.21607208251953,-85.46305084228516,61.21872711181641,9.72829151153564,0.77885830402374,-0.39418432116508,2.14623546600342,0.45472145080566,0.72788095474243
97,1258169691,112.25949859619141,-85.47161102294922,61.17982101440430,9.72983837127686,0.77332043647766,-0.37601310014725,1.94659733772278,0.50930213928223,0.78568881750107
98,1258186358,112.29579162597656,-85.48043823242188,61.15406417846680,9.74024486541748,0.73241335153580,-0.38172471523285,2.18756151199341,0.55631422996521,0.76468640565872
99,1258203025,112.35578155517578,-85.48802947998047,61.09022521972656,9.71331691741943,0.76351767778397,-0.34939295053482,1.78904056549072,0.39887297153473,0.75363439321518
100,1258219692,112.42062377929688,-85.49302673339844,61.04127120971680,9.71326255798340,0.76476162672043,-0.31660395860672,1.53551328182220,0.30068668723106,0.62943851947784
101,1258236359,112.47776794433594,-85.50003051757812,61.01084136962891,9.74640941619873,0.73617088794708,-0.34523266553879,1.16717708110809,0.35521611571312,0.74250572919846
102,1258253026,112.55420684814453,-85.50638580322266,60.94558715820312,9.75277233123779,0.76126992702484,-0.37661001086235,1.73340988159180,0.29187595844269,0.70956784486771
103,1258269693,112.67671966552734,-85.51223754882812,60.83142852783203,9.72707939147949,0.74485009908676,-0.34719672799110,1.95280826091766,0.10172724723816,0.76925820112228
104,1258286360,112.81665039062500,-85.51676940917969,60.70899581909180,9.72322845458984,0.75943052768707,-0.29513785243034,1.70275139808655,-0.02447293326259,0.72977620363235
105,1258303027,112.97188568115234,-85.51934814453125,60.54934692382812,9.75254631042480,0.76482921838760,-0.31872344017029,1.08000433444977,-0.17475543916225,0.68084311485291
106,1258319694,113.11194610595703,-85.52206420898438,60.41173934936523,9.77253913879395,0.71522623300552,-0.38593235611916,1.07433116436005,-0.10581887513399,0.65721541643143
107,1258336361,113.21374511718750,-85.52587127685547,60.31421661376953,9.75088882446289,0.70186823606491,-0.40121462941170,1.33459460735321,0.10002399981022,0.63240957260132
108,1258353028,113.29707336425781,-85.52793121337891,60.25742721557617,9.72972202301025,0.73444503545761,-0.39489984512329,1.69353103637695,0.16958808898926,0.49890333414078
109,1258369695,113.36882019042969,-85.53121185302734,60.20391082763672,9.76113796234131,0.74383234977722,-0.34134298563004,1.25369668006897,0.21471765637398,0.55158871412277
110,1258386362,113.41767120361328,-85.53340911865234,60.15806579589844,9.73817539215088,0.72036176919937,-0.36745807528496,1.01699697971344,0.27573993802071,0.46682342886925
111,1258403029,113.42418670654297,-85.53717803955078,60.16755294799805,9.74950790405273,0.72335952520370,-0.37837773561478,1.38037729263306,0.51758778095245,0.45574593544006
112,1258419696,113.41291809082031,-85.54161071777344,60.16051101684570,9.74943065643311,0.72409778833389,-0.40762594342232,1.73757183551788,0.63882553577423,0.45329990983009
113,1258436363,113.39121246337891,-85.54517364501953,60.18820190429688,9.73272228240967,0.73620253801346,-0.38854041695595,1.30681765079498,0.63084721565247,0.39796376228333
114,1258453030,113.37432861328125,-85.54737854003906,60.21130752563477,9.73017406463623,0.73213684558868,-0.36413347721100,1.18254470825195,0.56928712129593,0.33642917871475
115,1258469697,113.34327697753906,-85.54781341552734,60.27395629882812,9.73702239990234,0.74587118625641,-0.37572276592255,0.90102267265320,0.55932366847992,0.20851938426495
116,1258486364,113.31517791748047,-85.54759216308594,60.30056381225586,9.74538516998291,0.71154415607452,-0.38489651679993,0.72362917661667,0.53235346078873,0.20691858232021
117,1258503031,113.27378845214844,-85.54701995849609,60.33720016479492,9.75201416015625,0.75212681293488,-0.36863601207733,1.36958146095276,0.61478799581528,0.12053976953030
118,1258519698,113.25379180908203,-85.54689025878906,60.36295318603516,9.73906898498535,0.76348584890366,-0.37854608893394,1.09400165081024,0.52078944444656,0.20545868575573
119,1258536365,113.25739288330078,-85.54574584960938,60.36996459960938,9.73953151702881,0.73974061012268,-0.34834510087967,1.03764081001282,0.39226487278938,0.19805657863617
120,1258553032,113.27378082275391,-85.54270935058594,60.35456466674805,9.74483203887939,0.74301367998123,-0.33226975798607,0.98136967420578,0.28922501206398,0.12087272852659
121,1258569699,113.30393981933594,-85.54130554199219,60.32949066162109,9.72490310668945,0.73946321010590,-0.37163227796555,0.96812796592712,0.26363790035248,0.22916322946548
122,1258586366,113.31936645507812,-85.54025268554688,60.32143783569336,9.73832225799561,0.76198989152908,-0.37455502152443,1.12555634975433,0.34736585617065,0.21873885393143
123,1258603033,113.33611297607422,-85.53704833984375,60.31595993041992,9.74546051025391,0.72678595781326,-0.37070035934448,1.45338630676270,0.31429985165596,0.09149497002363
124,1258619700,113.33950805664062,-85.53555297851562,60.34385299682617,9.73564147949219,0.71998500823975,-0.36492398381233,1.44424247741699,0.40352165699005,0.14644700288773
125,1258636367,113.36763763427734,-85.53288269042969,60.33354187011719,9.72766208648682,0.76525861024857,-0.35209190845490,1.60177338123322,0.28887921571732,0.14045365154743
126,1258653034,113.39347076416016,-85.52967834472656,60.31626129150391,9.75064754486084,0.78082364797592,-0.31158638000488,0.87122231721878,0.23376071453094,0.12744237482548
127,1258669701,113.38573455810547,-85.52731323242188,60.33089828491211,9.74103164672852,0.72458010911942,-0.39418372511864,1.14772415161133,0.41982415318489,0.10633752495050
128,1258686368,113.39094543457031,-85.52482604980469,60.31752395629883,9.76232814788818,0.73160350322723,-0.36777704954147,1.37533164024353,0.37785774469376,0.11946403980255
129,1258703035,113.45220184326172,-85.52197265625000,60.23826599121094,9.72488212585449,0.74663203954697,-0.34921699762344,1.09181177616119,0.10156074166298,0.20024646818638
130,1258719702,113.51618194580078,-85.51934814453125,60.19845199584961,9.72338485717773,0.75535374879837,-0.34485071897507,0.84858077764511,0.07827882468700,0.23096893727779
131,1258736369,113.59615325927734,-85.51563262939453,60.11047363281250,9.75143337249756,0.73512905836105,-0.36548954248428,1.02916300296783,-0.00729961879551,0.18857990205288
132,1258753036,113.66699218750000,-85.51306152343750,60.04149627685547,9.75436973571777,0.74547827243805,-0.37722194194794,1.48669552803040,0.10140707343817,0.23572008311749
133,1258769703,113.76366424560547,-85.50926208496094,59.95849609375000,9.74278450012207,0.73429250717163,-0.37110188603401,1.18305706977844,-0.06623444706202,0.22272165119648
134,1258786370,113.83583831787109,-85.50421142578125,59.85090637207031,9.73855972290039,0.74909228086472,-0.37522792816162,1.13587844371796,0.01160895451903,0.11618559807539
135,1258803037,113.89871215820312,-85.49885559082031,59.78893661499023,9.74036598205566,0.75855278968811,-0.39880415797234,0.50177192687988,-0.01261425390840,0.08769147843122
136,1258819704,113.92327880859375,-85.49520111083984,59.77872467041016,9.75455951690674,0.73228222131729,-0.42065474390984,0.46654173731804,0.19376647472382,0.11044835299253
137,1258836371,113.92382812500000,-85.49289703369141,59.78849029541016,9.75457763671875,0.72243851423264,-0.42297470569611,1.21097481250763,0.38857668638229,0.12449694424868
138,1258853038,113.89070129394531,-85.49302673339844,59.83382415771484,9.70927143096924,0.76138359308243,-0.40588271617889,1.28891432285309,0.59258174896240,0.17915442585945
139,1258869705,113.85221862792969,-85.49176788330078,59.87259292602539,9.72606563568115,0.78087943792343,-0.38810294866562,0.80921399593353,0.55481582880020,0.12030923366547
140,1258886372,113.77192687988281,-85.49054718017578,59.93659210205078,9.77267837524414,0.72663944959641,-0.38717019557953,0.53648996353149,0.71754616498947,0.05041219294071
141,1258903039,113.68933868408203,-85.49337005615234,60.01149749755859,9.74390316009521,0.72732931375504,-0.38973918557167,1.16246438026428,0.86699634790421,0.24386492371559
142,1258919706,113.59574127197266,-85.49584960937500,60.10681152343750,9.73065280914307,0.76264852285385,-0.37877127528191,1.27500653266907,0.91189539432526,0.19582831859589
143,1258936373,113.51013183593750,-85.49685668945312,60.16363906860352,9.72899436950684,0.74952882528305,-0.36738222837448,0.96689856052399,0.82330101728439,0.14635735750198
144,1258953040,113.45121765136719,-85.49745941162109,60.23495483398438,9.72715377807617,0.75577741861343,-0.38804471492767,0.94393682479858,0.69838798046112,0.18304756283760
145,1258969707,113.39763641357422,-85.49810791015625,60.25518417358398,9.74283123016357,0.73250091075897,-0.35555857419968,0.76134395599365,0.66164654493332,0.19479098916054
146,1258986374,113.34165954589844,-85.49763488769531,60.32292175292969,9.73460674285889,0.76225066184998,-0.34314683079720,1.43212759494781,0.69115221500397,0.10664487630129
147,1259003041,113.31616973876953,-85.49842071533203,60.36075210571289,9.73617935180664,0.74857425689697,-0.34562128782272,1.07033562660217,0.56531709432602,0.25037056207657
148,1259019708,113.31747436523438,-85.49784851074219,60.34932708740234,9.74374389648438,0.75860065221786,-0.34006822109222,0.94606262445450,0.40272766351700,0.21964809298515
149,1259036375,113.31710815429688,-85.49737548828125,60.35993957519531,9.74537181854248,0.74640476703644,-0.36605495214462,1.06669843196869,0.42698290944099,0.22772891819477
150,1259053042,113.34622192382812,-85.49711608886719,60.33380126953125,9.74660301208496,0.76792037487030,-0.32349926233292,1.25947248935699,0.31497856974602,0.28259131312370
151,1259069709,113.38116455078125,-85.49711608886719,60.32450485229492,9.73237037658691,0.75156360864639,-0.34023261070251,1.16411638259888,0.28521662950516,0.30619344115257
152,1259086376,113.44200134277344,-85.49594116210938,60.26649475097656,9.72358226776123,0.75656920671463,-0.38379049301147,1.12930881977081,0.14817588031292,0.30391392111778
153,1259103043,113.51118469238281,-85.49419403076172,60.19633483886719,9.75063896179199,0.75075972080231,-0.39667961001396,1.18235266208649,0.09935806691647,0.27953061461449
154,1259119710,113.55641937255859,-85.49459075927734,60.15725326538086,9.75755405426025,0.73262208700180,-0.40349337458611,1.16826558113098,0.25417402386665,0.35489594936371
155,1259136377,113.55839538574219,-85.49589538574219,60.17329025268555,9.73972129821777,0.76097297668457,-0.36822575330734,1.24177420139313,0.46494096517563,0.31312167644501
156,1259153044,113.54961395263672,-85.49906921386719,60.18085861206055,9.75340461730957,0.76492220163345,-0.38255935907364,1.24323403835297,0.56461274623871,0.40945103764534
157,1259169711,113.53692626953125,-85.50167846679688,60.20922470092773,9.71482181549072,0.75169354677200,-0.39509668946266,1.53334915637970,0.58406561613083,0.35540825128555
158,1259186378,113.53075408935547,-85.50325012207031,60.22655868530273,9.73073673248291,0.76306521892548,-0.41931173205376,1.31395077705383,0.52018755674362,0.32517245411873
159,1259203045,113.53213500976562,-85.50516510009766,60.21481704711914,9.73702144622803,0.75447696447372,-0.40571868419647,1.47621989250183,0.50159263610840,0.34203836321831
160,1259219712,113.49939727783203,-85.50761413574219,60.26919555664062,9.73016929626465,0.74358630180359,-0.36312159895897,1.35590434074402,0.65570437908173,0.31691235303879
161,1259236379,113.47676086425781,-85.50975036621094,60.30234909057617,9.74054622650146,0.75219762325287,-0.38299387693405,1.57432925701141,0.61974406242371,0.30963829159737
162,1259253046,113.45349884033203,-85.51245117187500,60.32712173461914,9.74270439147949,0.76723903417587,-0.35069641470909,1.06910610198975,0.59615480899811,0.35122054815292
163,1259269713,113.44329833984375,-85.51511383056641,60.33932113647461,9.73928260803223,0.74504780769348,-0.37241774797440,0.96688586473465,0.53797560930252,0.38764181733131
164,1259286380,113.44557952880859,-85.51821899414062,60.35567855834961,9.74347877502441,0.75156581401825,-0.37425425648689,1.42992496490479,0.52221089601517,0.41226840019226
165,1259303047,113.45760345458984,-85.52171325683594,60.34784317016602,9.75178432464600,0.77385228872299,-0.34599646925926,1.25910115242004,0.47833639383316,0.45856338739395
166,1259319714,113.46203613281250,-85.52464294433594,60.31687545776367,9.73585128784180,0.75275593996048,-0.32866108417511,1.09476995468140,0.48421448469162,0.41472724080086
167,1259336381,113.49678039550781,-85.52951049804688,60.28982162475586,9.72394943237305,0.80520361661911,-0.33593362569809,0.93264162540436,0.39453157782555,0.59492534399033
168,1259353048,113.53127288818359,-85.53169250488281,60.25621795654297,9.74586582183838,0.69861561059952,-0.38576471805573,0.94488441944122,0.32998758554459,0.44332379102707
169,1259369715,113.54918670654297,-85.53638458251953,60.28800964355469,9.73909282684326,0.75872075557709,-0.35528293251991,1.56249654293060,0.49725139141083,0.51826661825180
170,1259386382,113.60577392578125,-85.53981781005859,60.23516082763672,9.74752521514893,0.75913077592850,-0.34933739900589,0.97455680370331,0.27010512351990,0.55890107154846
171,1259403049,113.63682556152344,-85.54323577880859,60.20925140380859,9.74477481842041,0.72454100847244,-0.37050879001617,1.17899739742279,0.38792359828949,0.48958039283752
172,1259419716,113.68304443359375,-85.54477691650391,60.15505981445312,9.73424530029297,0.75351178646088,-0.38526251912117,1.30225837230682,0.29249060153961,0.42136090993881
173,1259436383,113.73384094238281,-85.54798889160156,60.11320495605469,9.73299407958984,0.78056985139847,-0.38409537076950,0.82114952802658,0.27124488353729,0.52415746450424
174,1259453050,113.81072998046875,-85.55142211914062,60.04775238037109,9.73242664337158,0.72020667791367,-0.40902701020241,0.99211424589157,0.17903916537762,0.58168357610703
175,1259469717,113.85436248779297,-85.55481719970703,60.05883789062500,9.74243354797363,0.72426068782806,-0.39158242940903,1.02737021446228,0.32348197698593,0.51986736059189
176,1259486384,113.86243438720703,-85.55728149414062,60.06455612182617,9.73690319061279,0.74888658523560,-0.39155972003937,1.08949375152588,0.46185457706451,0.40431565046310
177,1259503051,113.84103393554688,-85.56102752685547,60.07518386840820,9.74087810516357,0.74206709861755,-0.37369519472122,0.77047479152679,0.59329891204834,0.42376849055290
178,1259519718,113.81502532958984,-85.56429290771484,60.10925292968750,9.73407459259033,0.72237199544907,-0.38081440329552,1.06219065189362,0.62412387132645,0.38622030615807
179,1259536385,113.79597473144531,-85.56765747070312,60.13753509521484,9.72742938995361,0.75188744068146,-0.35498037934303,1.39498937129974,0.61797684431076,0.38896089792252
180,1259553052,113.81294250488281,-85.56916046142578,60.11670303344727,9.72394371032715,0.73571389913559,-0.37362581491470,1.18885838985443,0.40834966301918,0.36439827084541
181,1259569719,113.85728454589844,-85.57048034667969,60.07101440429688,9.74635696411133,0.75304639339447,-0.34469145536423,1.34144592285156,0.29547449946404,0.39865529537201
182,1259586386,113.94610595703125,-85.57035064697266,59.98447799682617,9.73552036285400,0.74490541219711,-0.32000112533569,1.11077797412872,0.05109093338251,0.40615981817245
183,1259603053,114.04882049560547,-85.56951141357422,59.89744186401367,9.73338222503662,0.72625315189362,-0.34667703509331,0.90638852119446,-0.03506378456950,0.40692815184593
184,1259619720,114.16764068603516,-85.56981658935547,59.79461669921875,9.73929786682129,0.75000518560410,-0.34552332758904,1.23453855514526,-0.05426050722599,0.48853024840355
185,1259636387,114.28170013427734,-85.56929016113281,59.68183135986328,9.74092006683350,0.74139726161957,-0.36829194426537,0.94193911552429,-0.07306022942066,0.44560337066650
186,1259653054,114.39936828613281,-85.56747436523438,59.56113433837891,9.73820590972900,0.72292816638947,-0.38492661714554,0.97123998403549,-0.11687075346708,0.38461950421333
187,1259669721,114.50711059570312,-85.56672668457031,59.42888259887695,9.70814514160156,0.70885258913040,-0.39297524094582,1.35435485839844,-0.01673790067434,0.41621279716492
188,1259686388,114.63024902343750,-85.56372070312500,59.31113815307617,9.72383975982666,0.76232993602753,-0.37112385034561,1.31222188472748,-0.14810544252396,0.31689953804016
189,1259703055,114.71326446533203,-85.56208801269531,59.22416687011719,9.75029659271240,0.72627395391464,-0.37815850973129,0.70334398746490,0.01474651042372,0.33712077140808
190,1259719722,114.80020904541016,-85.56050109863281,59.13948059082031,9.76624011993408,0.72194385528564,-0.38904184103012,1.13868296146393,0.02583681046963,0.32829716801643
191,1259736389,114.84564208984375,-85.55992889404297,59.09300613403320,9.75325870513916,0.74533683061600,-0.35880190134048,0.89394086599350,0.21484573185444,0.31673309206963
192,1259753056,114.89483642578125,-85.55838775634766,59.03849029541016,9.75287151336670,0.72275865077972,-0.39283207058907,0.65178555250168,0.16059800982475,0.28558799624443
193,1259769723,114.92588806152344,-85.55785369873047,59.05034637451172,9.73832130432129,0.73925107717514,-0.39549201726913,0.87804812192917,0.26659619808197,0.27986356616020
194,1259786390,114.93943786621094,-85.55807495117188,59.05654907226562,9.74099540710449,0.71143239736557,-0.39784744381905,1.16756141185760,0.38682222366333,0.28725284337997
195,1259803057,114.96664428710938,-85.55860137939453,59.02700042724609,9.74246215820312,0.73511904478073,-0.37939524650574,1.39573204517365,0.35834088921547,0.33084565401077
196,1259819724,114.96887207031250,-85.55882263183594,59.06203460693359,9.73438739776611,0.72701525688171,-0.38813465833664,1.55956363677979,0.46289190649986,0.25294458866119
197,1259836391,115.00739288330078,-85.55829620361328,59.03665161132812,9.72647190093994,0.74354350566864,-0.38764369487762,1.30254018306732,0.26796647906303,0.28323164582253
198,1259853058,115.07238006591797,-85.55573272705078,58.97980499267578,9.73017120361328,0.74236720800400,-0.35553491115570,1.38817620277405,0.11768394708633,0.23550236225128
199,1259869725,115.10916900634766,-85.55503082275391,58.94971847534180,9.74687290191650,0.75219225883484,-0.34391704201698,1.28161466121674,0.27205169200897,0.27795544266701
200,1259886392,115.10661315917969,-85.55256652832031,58.95386505126953,9.73603820800781,0.71478635072708,-0.39528679847717,0.93475461006165,0.37404140830040,0.12294735759497
201,1259903059,115.10796356201172,-85.55120086669922,58.96973800659180,9.72128200531006,0.71736055612564,-0.42295694351196,1.46091639995575,0.41922223567963,0.16807693243027
202,1259919726,115.09040832519531,-85.55071258544922,58.98764419555664,9.75954723358154,0.76344949007034,-0.37978720664978,1.28495705127716,0.50448691844940,0.17435202002525
203,1259936393,115.09626007080078,-85.55058288574219,58.98963165283203,9.73606872558594,0.75852680206299,-0.37553194165230,1.24932968616486,0.42326903343201,0.26069244742393
204,1259953060,115.12346649169922,-85.55093383789062,58.97496795654297,9.72867012023926,0.72134363651276,-0.40151351690292,1.30992960929871,0.34147492051125,0.31560611724854
205,1259969727,115.12790679931641,-85.55067443847656,58.95951080322266,9.74923610687256,0.73658549785614,-0.38816225528717,0.94174695014954,0.39436513185501,0.24381369352341
206,1259986394,115.13514709472656,-85.54904174804688,58.95920562744141,9.73687362670898,0.71353697776794,-0.41376957297325,1.12277758121490,0.36765110492706,0.18457150459290
207,1260003061,115.11197662353516,-85.54772186279297,58.97550201416016,9.74403762817383,0.72630357742310,-0.42850571870804,0.80142772197723,0.47631296515465,0.13945473730564
208,1260019728,115.07239532470703,-85.54772186279297,59.03010940551758,9.72699165344238,0.74435597658157,-0.40525379776955,1.04601621627808,0.59702563285828,0.17387819290161
209,1260036395,115.02082061767578,-85.54878234863281,59.06940841674805,9.71872329711914,0.75278031826019,-0.38127279281616,1.13158833980560,0.68326359987259,0.20691861212254
210,1260053062,114.98257446289062,-85.55036926269531,59.11501312255859,9.71587371826172,0.74047136306763,-0.38855770230293,1.41394269466400,0.66113424301147,0.25580042600632
211,1260069729,114.97030639648438,-85.54878234863281,59.16134262084961,9.72225189208984,0.77560418844223,-0.31932520866394,1.12650418281555,0.44600036740303,0.13942913711071
212,1260086396,114.99269866943359,-85.54592132568359,59.14598464965820,9.74867725372314,0.72006452083588,-0.38240101933479,0.92997789382935,0.25792628526688,0.15030170977116
213,1260103063,115.03616333007812,-85.54376983642578,59.11925506591797,9.77572727203369,0.72250837087631,-0.36133065819740,1.36018168926239,0.21339863538742,0.21304003894329
214,1260119730,115.06513977050781,-85.54275512695312,59.09720230102539,9.75685977935791,0.73684698343277,-0.38422307372093,1.07077074050903,0.28228393197060,0.25212499499321
215,1260136397,115.05255889892578,-85.54297637939453,59.10605239868164,9.75486373901367,0.73992979526520,-0.41090396046638,0.99194782972336,0.48739051818848,0.24591395258904
216,1260153064,115.01552581787109,-85.54350280761719,59.13468551635742,9.73428630828857,0.74699944257736,-0.43482586741447,1.30059361457825,0.61535149812698,0.19398418068886
217,1260169731,114.97156524658203,-85.54499816894531,59.19382095336914,9.72185802459717,0.74152946472168,-0.41818135976791,1.42829859256744,0.68364775180817,0.23821730911732
218,1260186398,114.94216918945312,-85.54614257812500,59.23421478271484,9.71757316589355,0.72594285011292,-0.38292822241783,1.68699979782104,0.63132113218307,0.24088105559349
219,1260203065,114.89154052734375,-85.54631805419922,59.29691696166992,9.73431205749512,0.74599587917328,-0.40293371677399,1.38442397117615,0.67333865165710,0.15320876240730
220,1260219732,114.80210876464844,-85.54745483398438,59.40097427368164,9.72847938537598,0.73828142881393,-0.39364552497864,1.06164002418518,0.83959066867828,0.13750818371773
221,1260236399,114.73033905029297,-85.54974365234375,59.48643493652344,9.73910140991211,0.72961670160294,-0.37428382039070,1.48677253723145,0.82455605268478,0.22543658316135
222,1260253066,114.71898651123047,-85.54953002929688,59.49396133422852,9.73827171325684,0.74265688657761,-0.35837346315384,1.56791341304779,0.50880271196365,0.19887618720531
223,1260269733,114.75714111328125,-85.54658508300781,59.46411132812500,9.74231052398682,0.77111780643463,-0.34792724251747,1.25136601924896,0.20910847187042,0.16204513609409
224,1260286400,114.81068420410156,-85.54214477539062,59.40247726440430,9.74972438812256,0.76830881834030,-0.36716204881668,0.64330780506134,0.06324416399002,0.13064396381378
225,1260303067,114.88148498535156,-85.53862762451172,59.33644104003906,9.74879837036133,0.72673237323761,-0.37889733910561,0.95046800374985,0.03596663102508,0.21087574958801
226,1260319734,114.99819946289062,-85.53310394287109,59.23022460937500,9.75391483306885,0.73264086246490,-0.35385724902153,1.14650762081146,-0.19817824661732,0.18102414906025
227,1260336401,115.14855957031250,-85.52560424804688,59.09049606323242,9.71542453765869,0.76599729061127,-0.33173057436943,1.07766067981720,-0.40042889118195,0.13995419442654
228,1260353068,115.31748962402344,-85.51576232910156,58.92285537719727,9.73404312133789,0.75387161970139,-0.40572786331177,0.08793481439352,-0.60937744379044,0.09162303060293
229,1260369735,115.44522094726562,-85.50761413574219,58.79706192016602,9.77482891082764,0.73984020948410,-0.40738365054131,0.77863252162933,-0.34063607454300,0.08150600641966
230,1260386402,115.51403045654297,-85.50212097167969,58.71522140502930,9.74390983581543,0.71910017728806,-0.47093287110329,0.57014507055283,-0.03789398819208,0.11385485529900
231,1260403069,115.53826904296875,-85.49855041503906,58.70491027832031,9.73257541656494,0.73339200019836,-0.39285844564438,1.30921232700348,0.25472471117973,0.10327681154013
232,1260419736,115.53591918945312,-85.49389648437500,58.72690963745117,9.70080947875977,0.74399286508560,-0.42380616068840,1.16060745716095,0.32663238048553,-0.00786309968680
233,1260436403,115.51798248291016,-85.48759460449219,58.74171066284180,9.72987651824951,0.76555114984512,-0.41129952669144,0.28558799624443,0.28816205263138,-0.10029932856560
234,1260453070,115.47177886962891,-85.48282623291016,58.78593444824219,9.76492691040039,0.72539073228836,-0.39440917968750,0.57000422477722,0.47308576107025,-0.07787541300058
235,1260469737,115.33013916015625,-85.48004913330078,58.95143890380859,9.78453063964844,0.71757125854492,-0.41320252418518,0.48698064684868,0.91831123828888,-0.17803387343884
236,1260486404,115.15209960937500,-85.47736358642578,59.14295578002930,9.75647735595703,0.73408079147339,-0.42090114951134,1.40934514999390,1.15543365478516,-0.26031464338303
237,1260503071,114.99478912353516,-85.47398376464844,59.31399154663086,9.70384216308594,0.75801157951355,-0.41084265708923,1.32534837722778,1.04144442081451,-0.25643435120583
238,1260519738,114.86290740966797,-85.46542358398438,59.44136047363281,9.73164176940918,0.73594272136688,-0.38667789101601,0.92033469676971,0.77531564235687,-0.46980094909668
239,1260536405,114.78721618652344,-85.45580291748047,59.52334976196289,9.73558330535889,0.75588077306747,-0.36199519038200,1.13545584678650,0.52402943372726,-0.41888290643692
240,1260553072,114.73027038574219,-85.44469451904297,59.60543060302734,9.71803092956543,0.78620797395706,-0.33762380480766,0.94287389516830,0.39273869991302,-0.45846727490425
241,1260569739,114.66278839111328,-85.43331146240234,59.67325210571289,9.76292800903320,0.75277376174927,-0.41582348942757,0.45346641540527,0.39722090959549,-0.47938010096550
242,1260586406,114.60104370117188,-85.42423248291016,59.74177169799805,9.76291084289551,0.73174834251404,-0.41656216979027,1.29991483688354,0.49141162633896,-0.37280562520027
243,1260603073,114.50218963623047,-85.41499328613281,59.86022186279297,9.72044181823730,0.74860394001007,-0.42470839619637,1.35618591308594,0.65079945325851,-0.46420457959175
244,1260619740,114.37682342529297,-85.40441131591797,60.03042221069336,9.70253181457520,0.75899779796600,-0.42108988761902,1.34978282451630,0.74183982610703,-0.57798898220062
245,1260636407,114.24424743652344,-85.39393615722656,60.20154190063477,9.71502971649170,0.78356963396072,-0.38775902986526,1.36018168926239,0.77686524391174,-0.59475249052048
246,1260653074,114.15858459472656,-85.38339996337891,60.29911041259766,9.72150707244873,0.75993871688843,-0.40927064418793,1.62030410766602,0.59259450435638,-0.51181858778000
247,1260669741,114.11974334716797,-85.37238311767578,60.36543655395508,9.72067356109619,0.80109494924545,-0.37721461057663,1.91632294654846,0.39469808340073,-0.45840322971344
248,1260686408,114.14205932617188,-85.35801696777344,60.34436798095703,9.73140430450439,0.81631207466125,-0.30364003777504,0.85613650083542,-0.03263057768345,-0.47648584842682
249,1260703075,114.21498870849609,-85.34272003173828,60.25509643554688,9.75076866149902,0.79384291172028,-0.31030750274658,0.22299055755138,-0.33123621344566,-0.40932935476303
250,1260719742,114.32041168212891,-85.32639312744141,60.16422653198242,9.77496051788330,0.78226113319397,-0.36422139406204,0.73428398370743,-0.46531870961189,-0.41381153464317
251,1260736409,114.46346282958984,-85.31024169921875,60.00953674316406,9.73709011077881,0.84152716398239,-0.37372273206711,0.88976591825485,-0.62109512090683,-0.33119782805443
252,1260753076,114.61975860595703,-85.29518127441406,59.85203170776367,9.73977661132812,0.78965699672699,-0.40987965464592,1.21353614330292,-0.63533580303192,-0.25450062751770
253,1260769743,114.78398132324219,-85.27992248535156,59.71537399291992,9.73457813262939,0.78234225511551,-0.43776378035545,1.08586978912354,-0.68534463644028,-0.23239684104919
254,1260786410,114.94529724121094,-85.26381683349609,59.55498886108398,9.73585319519043,0.79230797290802,-0.39630377292633,1.17269659042358,-0.69339978694916,-0.29046082496643
255,1260803077,115.03202819824219,-85.24939727783203,59.46814346313477,9.74868774414062,0.76371729373932,-0.45064839720726,0.58580720424652,-0.35912841558456,-0.32583194971085
256,1260819744,115.05632781982422,-85.23646545410156,59.42206573486328,9.74402046203613,0.78680133819580,-0.47328600287437,0.68905198574066,-0.03693351149559,-0.38977402448654
257,1260836411,115.03172302246094,-85.22451019287109,59.49417114257812,9.74353122711182,0.76846045255661,-0.47566726803780,1.02268302440643,0.23691105842590,-0.44417542219162
258,1260853078,114.98836517333984,-85.21202087402344,59.54498291015625,9.71780395507812,0.77774423360825,-0.45856171846390,1.40852558612823,0.34386971592903,-0.52404862642288
259,1260869745,114.93521118164062,-85.19886779785156,59.60318756103516,9.69471645355225,0.80246764421463,-0.38009250164032,1.09181177616119,0.34010466933250,-0.58098572492599
260,1260886412,114.88301849365234,-85.18399810791016,59.65692138671875,9.73536205291748,0.73783063888550,-0.42484092712402,1.03822994232178,0.29356637597084,-0.66695463657379
261,1260903079,114.84555816650391,-85.17136383056641,59.72994232177734,9.77245521545410,0.76646369695663,-0.42406862974167,2.65562081336975,0.41147440671921,-0.56523388624191
262,1260919746,114.80747985839844,-85.15867614746094,59.86624526977539,9.73181915283203,0.87416845560074,-0.39292156696320,2.47190070152283,0.39437791705132,-0.56801277399063
263,1260936413,114.79523468017578,-85.14421081542969,59.85613632202148,9.73934650421143,0.81280022859573,-0.41318783164024,1.35754358768463,0.14859849214554,-0.56951123476028
264,1260953080,114.80836486816406,-85.12878417968750,59.85806274414062,9.74285125732422,0.78225201368332,-0.39720809459686,1.67038977146149,0.03157405555248,-0.57707977294922
265,1260969747,114.80012512207031,-85.11272430419922,59.90418243408203,9.73731231689453,0.78078073263168,-0.42412796616554,1.41988468170166,0.09137970209122,-0.65405857563019
266,1260986414,114.82384490966797,-85.09767913818359,59.90676498413086,9.70261287689209,0.88074427843094,-0.41020017862320,1.87165439128876,0.00428372342139,-0.54603713750839
267,1261003081,114.86245727539062,-85.08059692382812,59.88158798217773,9.69632244110107,0.81762218475342,-0.40298303961754,1.23140108585358,-0.16422863304615,-0.59531599283218
268,1261019748,114.88512420654297,-85.06703948974609,59.88854217529297,9.75107383728027,0.80947321653366,-0.48577919602394,1.84217417240143,0.04432917758822,-0.46361547708511
269,1261036415,114.88035583496094,-85.05557250976562,59.95048522949219,9.76200866699219,0.84960114955902,-0.45079660415649,2.30932426452637,0.26235729455948,-0.42721986770630
270,1261053082,114.82355499267578,-85.04544830322266,60.02229690551758,9.74263572692871,0.80438965559006,-0.42760744690895,1.83541202545166,0.50986558198929,-0.44430342316628
271,1261069749,114.74444580078125,-85.03433990478516,60.11035156250000,9.74698257446289,0.82200407981873,-0.43193626403809,1.65484273433685,0.57494741678238,-0.54528146982193
272,1261086416,114.68475341796875,-85.02299499511719,60.16101837158203,9.72205543518066,0.80854058265686,-0.41884917020798,1.58867263793945,0.47793939709663,-0.50856578350067
273,1261103083,114.65800476074219,-85.01300048828125,60.16854476928711,9.70552349090576,0.83825951814651,-0.37974259257317,1.91339027881622,0.37615448236465,-0.38278177380562
274,1261119750,114.67602539062500,-85.00151062011719,60.16615295410156,9.70653057098389,0.84698772430420,-0.36789041757584,1.58425426483154,0.10331522673368,-0.34652704000473
275,1261136417,114.73457336425781,-84.99144744873047,60.13322448730469,9.73371315002441,0.81332600116730,-0.39339587092400,2.40129971504211,0.00879156030715,-0.21157371997833
276,1261153084,114.84515380859375,-84.98081970214844,60.05255508422852,9.73166275024414,0.89730775356293,-0.39286908507347,2.28112483024597,-0.26739659905434,-0.12863978743553
277,1261169751,114.95751190185547,-84.96728515625000,59.93839263916016,9.72711753845215,0.87688916921616,-0.43488195538521,0.77217799425125,-0.46823850274086,-0.21854035556316
278,1261186418,115.08098602294922,-84.95329284667969,59.78515243530273,9.72479724884033,0.82433760166168,-0.43676254153252,0.67826914787292,-0.54288679361343,-0.21295680105686
279,1261203085,115.24140930175781,-84.94057464599609,59.61975860595703,9.73135185241699,0.85394430160522,-0.45078322291374,0.67090547084808,-0.69526952505112,-0.06116312369704
280,1261219752,115.41088104248047,-84.92858886718750,59.46146774291992,9.69146156311035,0.83860319852829,-0.45633727312088,0.91112697124481,-0.70145499706268,-0.00271494593471
281,1261236419,115.53853607177734,-84.91809082031250,59.32761764526367,9.73628044128418,0.86586737632751,-0.42819058895111,1.03871667385101,-0.45420283079147,-0.02038770914078
282,1261253086,115.64761352539062,-84.90933990478516,59.21885299682617,9.74531841278076,0.86640739440918,-0.43093401193619,0.93475461006165,-0.32528129220009,0.04484143480659
283,1261269753,115.77532958984375,-84.90057373046875,59.09633255004883,9.73767757415771,0.77758091688156,-0.48860535025597,0.82330095767975,-0.43195816874504,0.08418253809214
284,1261286420,115.88411712646484,-84.89048004150391,58.97742843627930,9.71694469451904,0.89332228899002,-0.40914672613144,0.29880413413048,-0.41422137618065,-0.00176727620419
285,1261303087,115.98038482666016,-84.88071441650391,58.92110443115234,9.73600101470947,0.82991248369217,-0.46159890294075,0.02577277645469,-0.37908074259758,-0.01502184756100
286,1261319754,116.02678680419922,-84.87383270263672,58.86016845703125,9.75161266326904,0.81201004981995,-0.47448760271072,0.44628205895424,-0.02137379720807,0.01792248524725
287,1261336421,116.07731628417969,-84.86985778808594,58.83728027343750,9.71769905090332,0.80672836303711,-0.43013155460358,1.67552530765533,0.13160446286201,0.13229601085186
288,1261353088,116.08989715576172,-84.86416625976562,58.83152008056641,9.73440837860107,0.86616200208664,-0.47619375586510,1.23666441440582,0.23782032728195,-0.02714946307242
289,1261369755,116.07586669921875,-84.86054229736328,58.86122512817383,9.73731803894043,0.85302597284317,-0.45647788047791,0.97714364528656,0.40216422080994,0.03614592179656
290,1261386422,116.09123992919922,-84.85703277587891,58.86651229858398,9.73332786560059,0.80770999193192,-0.49371629953384,1.99821949005127,0.34080898761749,0.06183545663953
291,1261403089,116.11961364746094,-84.85246276855469,58.85175704956055,9.70002555847168,0.88342738151550,-0.47490730881691,1.69368445873260,0.22153063118458,0.04279241710901
292,1261419756,116.17541503906250,-84.84698486328125,58.79782867431641,9.68594932556152,0.87193179130554,-0.45488029718399,0.85637986660004,0.00169684144203,0.10232914984226
293,1261436423,116.27619934082031,-84.84208679199219,58.68745803833008,9.72048568725586,0.86846405267715,-0.44003084301949,0.67506754398346,-0.21225242316723,0.25619742274284
294,1261453090,116.36751556396484,-84.83647155761719,58.64587783813477,9.71358394622803,0.83155035972595,-0.44413143396378,0.84464913606644,-0.18142753839493,0.17656753957272
295,1261469757,116.49191284179688,-84.83134460449219,58.52437591552734,9.71057891845703,0.89811831712723,-0.41369593143463,0.63484269380569,-0.34107151627541,0.30005913972855
296,1261486424,116.61022186279297,-84.82479858398438,58.37213516235352,9.74154949188232,0.84513288736343,-0.46478536725044,0.13476760685444,-0.39455083012581,0.22414311766624
297,1261503091,116.70968627929688,-84.81896209716797,58.27279663085938,9.75961971282959,0.86248856782913,-0.42404907941818,0.45333838462830,-0.25236195325851,0.21740701794624
298,1261519758,116.80504608154297,-84.81477355957031,58.18475723266602,9.73496913909912,0.80981266498566,-0.42049056291580,1.17427182197571,-0.13593941926956,0.25749087333679
299,1261536425,116.87290954589844,-84.80612182617188,58.11861419677734,9.74326133728027,0.83141672611237,-0.43680950999260,1.29938983917236,-0.11263183504343,-0.05396595597267
300,1261553092,116.99720764160156,-84.79617309570312,57.99771118164062,9.71563720703125,0.92267912626266,-0.41119942069054,0.45926773548126,-0.49550333619118,0.04906753078103
301,1261569759,117.15570831298828,-84.78297424316406,57.81714248657227,9.69304847717285,0.81517499685287,-0.51140481233597,0.09771884977818,-0.77474570274353,-0.00931021664292
302,1261586426,117.30426788330078,-84.77127075195312,57.65999221801758,9.69078159332275,0.87207603454590,-0.49187514185905,0.48655802011490,-0.65863060951233,0.02884630113840
303,1261603093,117.35317993164062,-84.76340484619141,57.59690856933594,9.77135658264160,0.83585619926453,-0.57460355758667,0.41732695698738,-0.07373896241188,-0.01257583685219
304,1261619760,117.27112579345703,-84.76385498046875,57.68158340454102,9.81769180297852,0.77427655458450,-0.59989267587662,1.34519815444946,0.87042844295502,0.05781426280737
305,1261636427,117.11793518066406,-84.77246856689453,57.85882568359375,9.73885536193848,0.82890665531158,-0.50986218452454,3.03608465194702,1.58648276329041,0.25653040409088
306,1261653094,116.87829589843750,-84.78086853027344,58.16007232666016,9.71845722198486,0.78707647323608,-0.55600219964981,2.77856159210205,1.96626758575439,0.02335237525403
307,1261669761,116.70957183837891,-84.78699493408203,58.37422561645508,9.63901042938232,0.88257139921188,-0.49355387687683,2.97536969184875,1.58381891250610,0.09237860143185
308,1261686428,116.61161804199219,-84.79113006591797,58.52038574218750,9.68074226379395,0.82740962505341,-0.45120412111282,2.49520826339722,1.13818347454071,0.17167551815510
309,1261703095,116.57250976562500,-84.79447937011719,58.57744979858398,9.71356964111328,0.86654752492905,-0.43996149301529,3.39423966407776,0.90272593498230,0.23928025364876
310,1261719762,116.59102630615234,-84.79383850097656,58.58100891113281,9.68548774719238,0.92016363143921,-0.40807181596756,2.40774106979370,0.43411606550217,0.20942865312099
311,1261736429,116.68826293945312,-84.78951263427734,58.48033905029297,9.68447971343994,0.85486418008804,-0.34263160824776,1.56184327602386,-0.11265746504068,0.24805256724358
312,1261753096,116.76854705810547,-84.78177642822266,58.39867019653320,9.75900459289551,0.82903540134430,-0.42030140757561,0.89588731527328,-0.18174771964550,0.04422672837973
313,1261769763,116.92336273193359,-84.77434539794922,58.26898574829102,9.75462627410889,0.90591722726822,-0.38216608762741,2.11589717864990,-0.43974447250366,0.19833835959435
314,1261786430,117.17715454101562,-84.76213836669922,58.01899337768555,9.66199588775635,0.86037784814835,-0.40327617526054,0.88863897323608,-1.15624690055847,0.24563220143318
315,1261803097,117.48770904541016,-84.74610900878906,57.71263504028320,9.71698188781738,0.90617239475250,-0.36290878057480,0.72104227542877,-1.55909609794617,0.19800537824631
316,1261819764,117.88760375976562,-84.72663879394531,57.32228851318359,9.71805953979492,0.86939626932144,-0.42958167195320,0.96636080741882,-2.07142710685730,0.26011618971825
317,1261836431,118.35742950439453,-84.70536041259766,56.85747146606445,9.71854496002197,0.87200230360031,-0.45555722713470,0.82547807693481,-2.48842740058899,0.37118566036224
318,1261853098,118.86564636230469,-84.68197631835938,56.35584640502930,9.70109367370605,0.88925361633301,-0.48888069391251,0.38455548882484,-2.78360104560852,0.41038590669632
319,1261869765,119.40560150146484,-84.65789794921875,55.79729461669922,9.67895221710205,0.85853004455566,-0.47828111052513,0.05895403027534,-2.99856853485107,0.50416678190231
320,1261886432,119.85233306884766,-84.63195037841797,55.31398391723633,9.73717594146729,0.90205317735672,-0.52967637777328,-1.27072286605835,-2.71292257308960,0.25125420093536
321,1261903099,120.22958374023438,-84.60926055908203,54.93432998657227,9.78385066986084,0.76586478948593,-0.57886105775833,0.41238370537758,-2.14437198638916,0.17966669797897
322,1261919766,120.51254272460938,-84.59368896484375,54.65852355957031,9.77177143096924,0.86230105161667,-0.54180556535721,0.85609805583954,-1.44491481781006,0.26550763845444
323,1261936433,120.74436187744141,-84.57642364501953,54.40460968017578,9.70826339721680,0.84092259407043,-0.51858991384506,-0.06838589906693,-1.32103896141052,0.08991978317499
324,1261953100,120.98336029052734,-84.55425262451172,54.14067459106445,9.68583774566650,0.84356129169464,-0.54240578413010,-0.58128023147583,-1.55718827247620,-0.10900765657425
325,1261969767,121.27483367919922,-84.52839660644531,53.84147262573242,9.70473480224609,0.84092730283737,-0.61158919334412,-0.29569861292839,-1.90593063831329,-0.13387756049633
326,1261986434,121.60169982910156,-84.50213623046875,53.50480651855469,9.68218135833740,0.86371761560440,-0.60776352882385,0.50844407081604,-2.03927040100098,-0.07641548663378
327,1262003101,121.83728790283203,-84.47856140136719,53.29107284545898,9.78934288024902,0.87407773733139,-0.52898895740509,-0.13406968116760,-1.57689714431763,-0.17991641163826
328,1262019768,121.93111419677734,-84.46296691894531,53.17919540405273,9.79183101654053,0.78098642826080,-0.70298582315445,-0.01353631075472,-0.61169528961182,-0.19673113524914
329,1262036435,121.92366027832031,-84.45309448242188,53.18898010253906,9.74104976654053,0.83606314659119,-0.67579591274261,0.85242259502411,0.13892967998981,-0.26174896955490
330,1262053102,121.87805938720703,-84.44546508789062,53.23173141479492,9.74694061279297,0.90542566776276,-0.61666560173035,1.12499296665192,0.42426794767380,-0.27696290612221
331,1262069769,121.86675262451172,-84.43750762939453,53.25788116455078,9.68425846099854,0.83047366142273,-0.61322259902954,1.48535084724426,0.27424156665802,-0.20693778991699
332,1262086436,121.92326354980469,-84.42884063720703,53.21824264526367,9.66380023956299,0.88759392499924,-0.57269841432571,1.74798357486725,-0.06706686317921,-0.05172485113144
333,1262103103,121.97108459472656,-84.42044067382812,53.17488479614258,9.72283458709717,0.91500926017761,-0.55722635984421,1.78437924385071,-0.00916934665293,-0.06285356730223
334,1262119770,122.01699066162109,-84.41654205322266,53.12822341918945,9.72101688385010,0.81571316719055,-0.58392566442490,1.96379590034485,0.15852338075638,0.15439975261688
335,1262136437,122.09344482421875,-84.41246795654297,53.11831665039062,9.69641017913818,0.85563039779663,-0.56103432178497,2.87158703804016,0.06782883405685,0.18332929909229
336,1262153104,122.19255065917969,-84.40322113037109,53.03632736206055,9.69599437713623,0.90513241291046,-0.54290574789047,2.02618837356567,-0.27114883065224,0.04869614541531
337,1262169771,122.31617736816406,-84.39076995849609,52.92623901367188,9.71877193450928,0.87071347236633,-0.51954793930054,0.96764135360718,-0.58824688196182,0.01505386363715
338,1262186438,122.45391082763672,-84.37663269042969,52.78831863403320,9.69881725311279,0.87159055471420,-0.56645941734314,1.18012440204620,-0.69914984703064,-0.03560165315866
339,1262203105,122.65140533447266,-84.36219787597656,52.57487487792969,9.68514919281006,0.91011744737625,-0.54682189226151,0.85143661499023,-1.03339564800262,0.16388928890228
340,1262219772,122.89190673828125,-84.34449005126953,52.33054351806641,9.71959018707275,0.92801153659821,-0.54735291004181,0.66641044616699,-1.37690043449402,0.15142869949341
341,1262236439,123.15742492675781,-84.32387542724609,52.06806945800781,9.73770713806152,0.89718633890152,-0.56010109186172,0.25485277175903,-1.63041484355927,0.12658436596394
342,1262253106,123.47779846191406,-84.30095672607422,51.74082183837891,9.72606468200684,0.89546716213226,-0.56044596433640,0.34000217914581,-1.97590434551239,0.20460064709187
343,1262269773,123.85896301269531,-84.27498626708984,51.34179687500000,9.71305751800537,0.91763764619827,-0.55586332082748,0.08301716297865,-2.41754436492920,0.27702054381371
344,1262286440,124.34284210205078,-84.24002838134766,50.82904434204102,9.65483093261719,0.90140366554260,-0.51388210058212,-0.82494670152664,-3.32236433029175,0.25729876756668
345,1262303107,124.78936004638672,-84.19789123535156,50.32587051391602,9.70596313476562,0.96359980106354,-0.53340518474579,-2.27751946449280,-3.51247406005859,-0.09508713334799
346,1262319774,125.22267913818359,-84.15749359130859,49.82984542846680,9.76150989532471,0.82754588127136,-0.65268242359161,-2.07916212081909,-3.39196705818176,-0.02680369280279
347,1262336441,125.67961883544922,-84.11900329589844,49.30539321899414,9.72412776947021,0.82902485132217,-0.70295804738998,-1.09266340732574,-3.37677812576294,0.13700874149799
348,1262353108,126.13582611083984,-84.07868194580078,48.83440399169922,9.66494560241699,0.88201493024826,-0.64445173740387,-0.65075463056564,-3.42336773872375,0.05504808947444
349,1262369775,126.60818481445312,-84.03119659423828,48.31568527221680,9.63993740081787,0.88836890459061,-0.68826693296432,-1.99297559261322,-3.88662481307983,-0.09769964963198
350,1262386442,127.09586334228516,-83.97819519042969,47.78843688964844,9.68369293212891,0.86786329746246,-0.63860577344894,-1.28276097774506,-4.13126468658447,-0.30170479416847
351,1262403109,127.49056243896484,-83.92446136474609,47.34597778320312,9.69820117950439,0.86440861225128,-0.65250754356384,-1.97715938091278,-3.77118825912476,-0.59434270858765
352,1262419776,127.75647735595703,-83.87403869628906,47.02445220947266,9.78311824798584,0.85131853818893,-0.64512103796005,-2.56421518325806,-3.07087302207947,-0.86401879787445
353,1262436443,127.93894195556641,-83.82711791992188,46.80355834960938,9.76705741882324,0.78775835037231,-0.76989871263504,-2.09814095497131,-2.49335765838623,-1.03799307346344
354,1262453110,128.11552429199219,-83.77625274658203,46.55892944335938,9.66900444030762,0.85884290933609,-0.78390759229660,-2.18700432777405,-2.63151288032532,-1.22665619850159
355,1262469777,128.30903625488281,-83.71939849853516,46.31687545776367,9.63643932342529,0.87585258483887,-0.80286067724228,-2.45358133316040,-2.97920513153076,-1.40497171878815
356,1262486444,128.51898193359375,-83.65588378906250,46.03811645507812,9.60528087615967,0.89376980066299,-0.77804285287857,-3.22401165962219,-3.39265799522400,-1.56847059726715
357,1262503111,128.72251892089844,-83.58454895019531,45.75346374511719,9.63738250732422,0.91216254234314,-0.69316941499710,-3.81562638282776,-3.72910666465759,-1.89878475666046
358,1262519778,128.99752807617188,-83.50704956054688,45.41255187988281,9.64077758789062,0.88693988323212,-0.73498433828354,-4.05616903305054,-4.38661146163940,-1.83474040031433
359,1262536445,129.35351562500000,-83.41697692871094,44.98762130737305,9.61873054504395,0.91257214546204,-0.67633801698685,-4.12554121017456,-5.34005689620972,-2.01796102523804
360,1262553112,129.69898986816406,-83.31135559082031,44.52398300170898,9.68573093414307,1.09079301357269,-0.60744267702103,-7.08836889266968,-6.19202613830566,-2.49907040596008
361,1262569779,130.00030517578125,-83.20147705078125,44.05236816406250,9.76780509948730,0.85097420215607,-0.87618792057037,-8.92938518524170,-6.33979892730713,-2.68526196479797
362,1262586446,130.27366638183594,-83.10070800781250,43.68212890625000,9.81466865539551,0.86048918962479,-0.86746549606323,-6.58670473098755,-5.67891263961792,-2.51731896400452
363,1262603113,130.51129150390625,-83.01228332519531,43.39964675903320,9.73656463623047,0.88249790668488,-0.91212844848633,-2.77280569076538,-4.67666196823120,-2.35814857482910
364,1262619780,130.72846984863281,-82.92693328857422,43.12820434570312,9.64143753051758,0.97084170579910,-0.92780172824860,-2.36094021797180,-4.43942403793335,-2.31700181961060
365,1262636447,130.98271179199219,-82.83596038818359,42.79799652099609,9.57183933258057,0.99190664291382,-0.90852326154709,-2.15830540657043,-4.88176822662354,-2.37162089347839
366,1262653114,131.29083251953125,-82.72972106933594,42.41023254394531,9.58604335784912,1.03183186054230,-0.82876086235046,-3.80913424491882,-5.97671127319336,-2.59794759750366
367,1262669781,131.67375183105469,-82.60628509521484,41.93669128417969,9.56529045104980,0.98496025800705,-0.73554885387421,-3.96745920181274,-7.17309474945068,-2.91586589813232
368,1262686448,132.04507446289062,-82.46295166015625,41.44322967529297,9.61941814422607,1.08699095249176,-0.61000055074692,-6.42854642868042,-8.20250797271729,-3.54951190948486
369,1262703115,132.38966369628906,-82.29946136474609,40.92454528808594,9.69359588623047,0.99138468503952,-0.63101536035538,-9.57473850250244,-9.25684642791748,-4.20249700546265
370,1262719782,132.64038085937500,-82.12550354003906,40.42590332031250,9.90912723541260,1.10189676284790,-0.55373960733414,-13.19265365600586,-9.56822299957275,-4.73588275909424
371,1262736449,132.87448120117188,-81.94702148437500,39.95770645141602,9.76739311218262,0.86983686685562,-0.90751743316650,-12.58149337768555,-9.67690753936768,-4.98510599136353
372,1262753116,133.16067504882812,-81.75902557373047,39.47743988037109,9.63668632507324,0.99394100904465,-0.99028241634369,-10.49385261535645,-10.26404190063477,-5.19396543502808
373,1262769783,133.53012084960938,-81.55138397216797,38.92040634155273,9.50992393493652,1.07989931106567,-0.92970383167267,-10.15394592285156,-11.67141151428223,-5.44987535476685
374,1262786450,133.93075561523438,-81.32017517089844,38.28766250610352,9.53065109252930,1.22489118576050,-0.78061485290527,-12.89494705200195,-13.28462028503418,-5.82159471511841
375,1262803117,134.38055419921875,-81.06121063232422,37.53504943847656,9.47948265075684,1.17741036415100,-0.83041357994080,-15.83880424499512,-15.26294040679932,-6.16238784790039
376,1262819784,134.85893249511719,-80.77883148193359,36.76700592041016,9.57948875427246,1.14934432506561,-0.81527954339981,-16.00297546386719,-16.66539955139160,-6.67555379867554
377,1262836451,135.27824401855469,-80.48093414306641,36.02487182617188,9.64254379272461,1.19501864910126,-0.94799584150314,-17.96503257751465,-17.36715316772461,-7.22021102905273
378,1262853118,135.61628723144531,-80.17530822753906,35.35566329956055,9.57584285736084,0.96198612451553,-1.37336254119873,-18.49200248718262,-17.39192199707031,-7.78494739532471
379,1262869785,135.95722961425781,-79.86827850341797,34.74382400512695,9.57901859283447,1.05500400066376,-1.43260109424591,-14.89661884307861,-17.22775077819824,-8.01046466827393
380,1262886452,136.25939941406250,-79.54933166503906,34.18539047241211,9.50641918182373,1.13076949119568,-1.48972475528717,-14.04152393341064,-17.52658653259277,-8.67537212371826
381,1262903119,136.53573608398438,-79.22148895263672,33.68360519409180,9.50593757629395,1.17845058441162,-1.38277757167816,-12.20749664306641,-17.65808105468750,-9.27540016174316
382,1262919786,136.69612121582031,-78.88069915771484,33.22393798828125,9.61463260650635,1.51132214069366,-1.29643940925598,-16.65117645263672,-18.04738044738770,-9.96483707427979
383,1262936453,136.75267028808594,-78.55369567871094,32.83427429199219,9.69947528839111,1.33133530616760,-1.36965870857239,-18.71487808227539,-17.01781272888184,-9.85398674011230
384,1262953120,136.79963684082031,-78.25520324707031,32.53964614868164,9.50628566741943,1.48282158374786,-1.45257699489594,-13.45788288116455,-15.04068756103516,-9.43825817108154
385,1262969787,136.78096008300781,-77.96427154541016,32.28475570678711,9.56762313842773,1.84297835826874,-1.54685270786285,-15.28481578826904,-14.46999835968018,-9.38020610809326
386,1262986454,136.76524353027344,-77.67811584472656,32.01468276977539,9.64295101165771,1.42957293987274,-1.75607800483704,-16.00272941589355,-14.44581985473633,-8.99089336395264
387,1263003121,136.83407592773438,-77.38983154296875,31.80591964721680,9.54390335083008,0.96253067255020,-1.74993228912354,-7.29686117172241,-14.05173110961914,-9.59747409820557
388,1263019788,136.88269042968750,-77.09337615966797,31.66215515136719,9.46754646301270,1.34050011634827,-1.69764745235443,-4.65695714950562,-13.86423397064209,-10.50415039062500
389,1263036455,136.83691406250000,-76.79945373535156,31.57592010498047,9.66902160644531,1.27008581161499,-1.95587372779846,-6.98106813430786,-13.25827407836914,-10.93416213989258
390,1263053122,136.77787780761719,-76.52947235107422,31.54396820068359,9.86725044250488,1.48486840724945,-2.01018285751343,-4.60432243347168,-11.70377159118652,-10.49448108673096
391,1263069789,136.66127014160156,-76.27947998046875,31.56313133239746,9.55368328094482,2.09823012351990,-1.80474638938904,-5.07213830947876,-10.32434749603271,-10.20819377899170
392,1263086456,136.49176025390625,-76.05900573730469,31.64686965942383,9.44746208190918,1.49420392513275,-2.04356694221497,-4.48125171661377,-8.37448692321777,-9.69662857055664
393,1263103123,136.44966125488281,-75.85900878906250,31.74329376220703,9.24248600006104,1.97635710239410,-1.60292160511017,3.89852976799011,-7.32517147064209,-9.01439380645752
394,1263119790,136.31135559082031,-75.65563964843750,31.77219963073730,9.22537422180176,2.31249308586121,-1.72751247882843,-5.81260061264038,-8.12688922882080,-8.45338726043701
395,1263136457,136.18681335449219,-75.47563171386719,31.76886367797852,9.73827552795410,1.83238804340363,-2.01890945434570,-6.85543489456177,-7.42677736282349,-7.16164827346802
396,1263153124,136.20550537109375,-75.32375335693359,31.77023887634277,9.84388542175293,1.92554795742035,-1.76626849174500,2.01219177246094,-6.15242767333984,-6.05118083953857
397,1263169791,136.12916564941406,-75.17613983154297,31.73325729370117,9.48478317260742,2.52557563781738,-1.33373785018921,-5.91490936279297,-6.37052154541016,-5.45546865463257
398,1263186458,136.06059265136719,-75.03366088867188,31.62333488464355,9.53866958618164,1.87839972972870,-1.65851402282715,-9.68064498901367,-6.92635631561279,-4.43295907974243
399,1263203125,136.14691162109375,-74.89201354980469,31.45150184631348,9.63410568237305,1.80798912048340,-1.66467368602753,-3.97012305259705,-7.56845235824585,-3.69038105010986
400,1263219792,136.26916503906250,-74.73089599609375,31.20130538940430,9.58259868621826,2.19885516166687,-1.45358526706696,-6.33923578262329,-9.29362297058105,-3.58045220375061
401,1263236459,136.39936828613281,-74.56794738769531,30.94120216369629,9.86419010162354,1.40075361728668,-1.85739958286285,-6.42524242401123,-9.51701641082764,-3.48875808715820
402,1263253126,136.74729919433594,-74.41398620605469,30.67072868347168,9.73698425292969,1.68795108795166,-1.73165881633759,6.05077838897705,-9.28674602508545,-2.92794251441956
403,1263269793,137.05355834960938,-74.24484252929688,30.33836555480957,9.51718616485596,2.19753265380859,-1.61027646064758,-0.01710928976536,-10.68371391296387,-2.72912383079529
404,1263286460,137.41082763671875,-74.06352996826172,29.92493438720703,9.35704994201660,1.70463752746582,-1.94451642036438,-1.62023460865021,-12.17723274230957,-2.13964772224426
405,1263303127,137.85464477539062,-73.86946105957031,29.43068504333496,9.12137603759766,2.23103165626526,-1.86944079399109,-1.05852234363556,-13.71709537506104,-1.52322649955750
406,1263319794,138.28834533691406,-73.65914916992188,28.88695335388184,9.01392745971680,2.09650397300720,-2.14254736900330,-4.48569631576538,-15.07751655578613,-1.37409675121307
407,1263336461,138.83856201171875,-73.43204498291016,28.29544830322266,8.91446495056152,2.00005722045898,-2.21326351165771,-0.21474988758564,-16.46088981628418,-1.20609045028687
408,1263353128,139.41833496093750,-73.17893218994141,27.64000701904297,8.89593887329102,1.98479557037354,-2.09763884544373,-2.07144236564636,-18.46959686279297,-1.12127423286438
409,1263369795,140.04417419433594,-72.89049530029297,26.91129875183105,8.94337844848633,1.96184432506561,-1.97782611846924,-3.45424842834473,-21.04376983642578,-1.17726385593414
410,1263386462,140.50382995605469,-72.58998107910156,26.23034095764160,9.21435451507568,1.67373073101044,-2.41195201873779,-10.63217353820801,-21.20682144165039,-1.92394030094147
411,1263403129,140.98773193359375,-72.30778503417969,25.62584304809570,9.22379016876221,1.46720397472382,-2.79812669754028,-4.73215818405151,-19.62860107421875,-1.97297489643097
412,1263419796,141.46179199218750,-72.04848480224609,25.07008934020996,9.24868679046631,1.95416092872620,-2.75364995002747,-2.49311709403992,-18.11171913146973,-1.51140689849854
413,1263436463,141.92417907714844,-71.80967712402344,24.57167434692383,9.05246162414551,2.13613462448120,-2.65740633010864,0.12366463243961,-16.58629989624023,-1.32939004898071
414,1263453130,142.40898132324219,-71.57730865478516,24.07757759094238,8.97724151611328,2.05366444587708,-2.53899192810059,1.75719273090363,-16.31696891784668,-0.92493933439255
415,1263469797,142.91033935546875,-71.33093261718750,23.50821304321289,9.15892028808594,2.15420126914978,-2.39079475402832,-1.49583446979523,-17.93496704101562,-0.05300553515553
416,1263486464,143.42176818847656,-71.07032012939453,22.92642021179199,9.30967521667480,1.92884755134583,-2.46134138107300,-1.54501116275787,-18.85255813598633,-0.09790466725826
417,1263503131,143.96203613281250,-70.80003356933594,22.36007118225098,9.39798355102539,1.82442998886108,-2.49666666984558,1.11004936695099,-19.23151206970215,-0.38342261314392
418,1263519798,144.51084899902344,-70.53962707519531,21.81721878051758,9.63294601440430,1.88973975181580,-2.56104469299316,3.00563478469849,-18.57114982604980,-0.10902057588100
419,1263536465,145.03401184082031,-70.29246520996094,21.30317306518555,9.70518016815186,1.94466745853424,-2.76475191116333,3.14413547515869,-17.67057991027832,0.16397909820080
420,1263553132,145.59609985351562,-70.04548645019531,20.80000305175781,9.49827671051025,1.81227624416351,-2.80853176116943,6.13638162612915,-17.60619163513184,0.26293390989304
421,1263569799,146.16413879394531,-69.78974914550781,20.25187873840332,9.51545333862305,2.19436740875244,-2.58909630775452,4.00737428665161,-18.63155937194824,1.01402723789215
422,1263586466,146.73440551757812,-69.51482391357422,19.69077682495117,9.54907417297363,2.08606386184692,-2.63963007926941,3.46010780334473,-19.81024932861328,0.91388165950775
423,1263603133,147.35247802734375,-69.20736694335938,19.12323379516602,9.35473632812500,1.93865859508514,-2.67201709747314,6.02991199493408,-21.60117149353027,0.31008708477020
424,1263619800,148.04714965820312,-68.86322021484375,18.52249145507812,9.33578968048096,1.94041991233826,-2.61296319961548,8.83291053771973,-23.93985939025879,0.14113268256187
425,1263636467,148.76268005371094,-68.47753143310547,17.90095138549805,9.39127349853516,1.96457779407501,-2.50472426414490,9.00545597076416,-26.41064453125000,-0.29546889662743
426,1263653134,149.47572326660156,-68.05108642578125,17.26070022583008,9.48705101013184,1.85898625850677,-2.63964343070984,7.91162824630737,-28.85510444641113,-0.65065431594849
427,1263669801,150.22909545898438,-67.58275604248047,16.58100128173828,9.47220706939697,1.87032568454742,-2.79797768592834,8.24947738647461,-31.62565803527832,-0.52239859104156
428,1263686468,150.98143005371094,-67.07429504394531,15.90497684478760,9.42144584655762,1.68071758747101,-2.91509890556335,8.52481937408447,-33.85248565673828,-1.08101415634155
429,1263703135,151.73388671875000,-66.54208374023438,15.22897434234619,9.34739208221436,1.73434400558472,-3.16098546981812,8.67677021026611,-35.27980041503906,-1.01504874229431
430,1263719802,152.48350524902344,-65.98097229003906,14.53290748596191,9.23338031768799,1.81172907352448,-3.31151390075684,7.55871009826660,-37.21573257446289,-0.61619341373444
431,1263736469,153.32083129882812,-65.38463592529297,13.86033821105957,9.32622623443604,1.88195848464966,-3.22044062614441,14.27931308746338,-39.01987838745117,-1.23228561878204
432,1263753136,154.21174621582031,-64.73036193847656,13.18376541137695,9.57924938201904,2.31198954582214,-2.87676596641541,17.45839118957520,-42.37804412841797,-1.72449016571045
433,1263769803,155.19906616210938,-63.96189498901367,12.49453926086426,9.97282314300537,2.15447878837585,-2.49372792243958,22.77391624450684,-48.93665313720703,-3.24151277542114
434,1263786470,156.32589721679688,-63.03368377685547,11.79579162597656,10.36571407318115,2.05324149131775,-1.86874246597290,30.90068817138672,-58.06103515625000,-5.52991771697998
435,1263803137,157.55012512207031,-61.92295455932617,11.11115932464600,11.17307662963867,1.72073936462402,-1.89605629444122,37.83381271362305,-68.35887145996094,-8.36915683746338
436,1263819804,158.94784545898438,-60.58940505981445,10.48925113677979,11.82844448089600,1.67163133621216,-1.23354768753052,51.95547866821289,-80.57328796386719,-12.71064472198486
437,1263836471,160.54402160644531,-58.93524932861328,9.99844169616699,13.34130954742432,1.89165306091309,0.06295834481716,71.13571929931641,-97.86012268066406,-20.17520523071289
438,1263853138,162.34027099609375,-56.93845367431641,9.85676765441895,16.34191513061523,2.01055622100830,2.62779784202576,101.37289428710938,-114.63455200195312,-33.58226013183594
439,1263869805,164.45819091796875,-55.16524887084961,10.44634151458740,19.67699050903320,1.44812536239624,6.19132804870605,157.22799682617188,-95.95429992675781,-49.06345748901367
440,1263886472,168.06845092773438,-53.02592086791992,10.75427913665771,17.43556594848633,2.03868341445923,0.06807383894920,232.37164306640625,-121.78951263427734,-40.74482345581055
441,1263903139,171.86305236816406,-49.88259887695312,10.99682331085205,15.40701675415039,8.27609729766846,-2.45473194122314,239.82220458984375,-183.83320617675781,-41.52858352661133
442,1263919806,173.60510253906250,-46.73240280151367,11.79744529724121,10.52478599548340,3.78675746917725,-1.21661496162415,141.20027160644531,-183.13168334960938,-55.32692337036133
443,1263936473,175.79835510253906,-44.95839691162109,12.94136619567871,-1.47209858894348,-3.13346385955811,8.27201080322266,181.66046142578125,-101.25759887695312,-57.15868759155273
444,1263953140,179.72544860839844,-45.14478302001953,14.27334308624268,-9.59362125396729,-7.33170747756958,12.89722824096680,293.01351928710938,13.69611644744873,-55.70984649658203
445,1263969807,-178.47715759277344,-46.42643737792969,16.03590774536133,-9.88529300689697,7.14862203598022,16.51922225952148,184.46218872070312,76.40355682373047,-74.30283355712891
446,1263986474,178.65274047851562,-48.51333999633789,18.30506706237793,-9.03640460968018,2.72185254096985,15.10168457031250,-71.00144958496094,125.35807037353516,-91.93287658691406
447,1264003141,175.15370178222656,-51.52568817138672,20.85679244995117,-7.08179426193237,-2.64462780952454,7.86970186233521,-91.69893646240234,186.05273437500000,-88.18151855468750
448,1264019808,171.27751159667969,-55.11595916748047,23.71599960327148,-4.50870275497437,-2.70510745048523,1.66916847229004,-94.02863311767578,226.25476074218750,-76.03594970703125
449,1264036475,166.51823425292969,-58.75965881347656,26.69164848327637,-1.53671169281006,-4.53479385375977,-5.83252716064453,-134.94171142578125,233.52955627441406,-53.21866226196289
450,1264053142,162.31994628906250,-62.11039352416992,29.20313644409180,1.91111862659454,-6.05027818679810,-13.32504940032959,-119.88592529296875,213.89485168457031,-17.36028480529785
451,1264069809,159.56239318847656,-64.64781951904297,30.65622520446777,4.44175195693970,-2.49056911468506,-16.10412979125977,-86.64544677734375,156.96653747558594,13.05555725097656
452,1264086476,158.01817321777344,-65.99799346923828,30.23554420471191,4.71187877655029,3.34194946289062,-15.96158599853516,-114.75806427001953,72.04624938964844,39.40014648437500
453,1264103143,156.97526550292969,-66.10755920410156,27.65256690979004,3.61804747581482,8.78444385528564,-14.51182746887207,-203.38774108886719,-17.65220069885254,60.90771484375000
454,1264119810,156.03765869140625,-65.45933532714844,23.83672142028809,1.60563218593597,3.84820389747620,-12.11291885375977,-264.23077392578125,-72.73212432861328,70.91664123535156
455,1264136477,157.71704101562500,-63.75664138793945,18.24726104736328,-2.86436367034912,17.38121604919434,-82.40188598632812,-201.41856384277344,-149.94470214843750,92.44492340087891
456,1264153144,165.12020874023438,-56.72012329101562,12.23966407775879,40.20112609863281,22.34382820129395,4.94733142852783,131.23512268066406,-456.23904418945312,35.59948348999023
457,1264169811,164.05345153808594,-54.54776382446289,10.52309989929199,27.61901473999023,2.50303578376770,-2.67393589019775,-148.16632080078125,-140.64913940429688,21.72693061828613
458,1264186478,166.87518310546875,-52.28084564208984,8.93148517608643,41.91884613037109,-3.01942610740662,-17.55307388305664,93.43754577636719,-145.50590515136719,21.27511405944824
459,1264203145,169.97845458984375,-50.43262100219727,7.30091714859009,34.82342910766602,-12.68548870086670,-9.07624340057373,110.60113525390625,-120.46887207031250,37.90594482421875
460,1264219812,172.04098510742188,-48.77082061767578,5.47593545913696,17.52459526062012,-11.10658359527588,-12.40580463409424,41.17639923095703,-109.16013336181641,54.79389953613281
461,1264236479,172.82518005371094,-47.57872772216797,3.99017262458801,5.11598825454712,0.43855985999107,-11.01220035552979,-18.56177520751953,-78.32630157470703,49.77616500854492
462,1264253146,172.88044738769531,-47.11886978149414,3.21584963798523,3.04596376419067,2.03520846366882,-11.68951511383057,-30.03298759460449,-30.88929557800293,28.06546211242676
463,1264269813,172.72248840332031,-47.52063751220703,2.66953134536743,8.19000625610352,-0.10528482496738,-12.99736213684082,-32.75208282470703,21.54162979125977,25.33148193359375
464,1264286480,172.69920349121094,-48.86721038818359,2.13626837730408,12.80214691162109,1.22580587863922,-13.19298839569092,-24.42612075805664,77.84796905517578,31.67161750793457
465,1264303147,172.25662231445312,-51.14723968505859,1.74075031280518,14.38141155242920,0.90421789884567,-14.29138469696045,-43.91464996337891,134.04045104980469,33.29361343383789
466,1264319814,171.54313659667969,-54.51746368408203,1.83367502689362,16.42661094665527,1.16237151622772,-14.77331066131592,-37.53233718872070,201.08505249023438,25.42094421386719
467,1264336481,170.05874633789062,-59.57360839843750,3.03325104713440,23.95974349975586,-2.84274244308472,-13.90369319915771,-27.77183914184570,306.12393188476562,10.09920787811279
468,1264353148,168.64382934570312,-66.56195831298828,5.04672479629517,35.67689132690430,-1.55847537517548,-12.23945331573486,23.80385208129883,422.53601074218750,23.91647720336914
469,1264369815,165.12806701660156,-75.33236694335938,8.76832866668701,47.66475296020508,0.13896603882313,-7.29978942871094,1.57052648067474,529.16308593750000,48.52054595947266
470,1264386482,165.66401672363281,-84.79083251953125,11.67364025115967,45.78102111816406,-7.79756736755371,-0.69724440574646,204.86054992675781,556.91363525390625,114.10275268554688
471,1264403149,37.88501358032227,-88.59236145019531,142.27069091796875,7.05927896499634,34.47875595092773,-36.74429702758789,167.77593994140625,373.94097900390625,19.44203186035156
472,1264419816,33.76587677001953,-87.60861968994141,148.10282897949219,-27.90520858764648,-9.36633014678955,-3.08184671401978,102.92037200927734,54.78873825073242,-24.57692527770996
473,1264436483,126.80292510986328,-88.30904388427734,57.33313369750977,-9.42793941497803,11.38876628875732,-15.50158786773682,139.61880493164062,-177.31021118164062,-0.33425444364548
474,1264453150,166.63110351562500,-83.98829650878906,16.70184135437012,2.70856189727783,2.01801848411560,-2.70225310325623,-45.01480484008789,-290.56271362304688,1.57720482349396
475,1264469817,169.93530273437500,-78.88711547851562,12.13011074066162,9.57810497283936,1.73506093025208,5.01619958877563,-72.46118927001953,-307.18295288085938,-21.78684616088867
476,1264486484,168.81854248046875,-75.20751953125000,10.61160182952881,7.09297180175781,-1.16690957546234,18.72946166992188,-154.97436523437500,-220.26895141601562,-20.32417488098145
477,1264503151,166.84040832519531,-74.23434448242188,9.39527988433838,3.06251907348633,-5.18013858795166,9.72416114807129,-188.26043701171875,-60.69577407836914,6.78300619125366
478,1264519818,165.70309448242188,-75.87037658691406,9.07045555114746,1.50729799270630,-9.40656375885010,9.09164905548096,-86.23860931396484,94.57615661621094,28.46052169799805
479,1264536485,165.46675109863281,-79.11584472656250,10.36313438415527,1.73605942726135,-7.08196258544922,4.94328689575195,62.38275527954102,193.13661193847656,32.46078109741211
480,1264553152,163.98214721679688,-82.72965240478516,14.78466987609863,1.03215754032135,-4.20445203781128,2.37312626838684,173.82064819335938,220.39753723144531,16.93931961059570
481,1264569819,155.70645141601562,-85.65904998779297,26.98283004760742,-1.14519143104553,2.36429977416992,-0.06585691124201,232.77493286132812,189.86195373535156,-9.01005935668945
482,1264586486,132.75177001953125,-87.34915161132812,52.39684677124023,-0.13825103640556,5.39238023757935,-1.94560241699219,146.22416687011719,134.54655456542969,-17.01129150390625
483,1264603153,99.66758728027344,-87.92802429199219,85.94142150878906,-0.11728396266699,3.07101917266846,-1.66589391231537,27.35860061645508,88.66621398925781,-6.29991769790649
484,1264619820,73.82890319824219,-87.86494445800781,111.09677886962891,0.43158209323883,-0.82732743024826,-2.66891813278198,-41.31435394287109,55.74168395996094,-0.25004819035530
485,1264636487,59.09791183471680,-87.58313751220703,125.10160827636719,0.68483418226242,-1.94359946250916,-1.43322765827179,-43.64838027954102,37.72284317016602,-1.72538137435913
486,1264653154,48.79743957519531,-87.29824829101562,134.68611145019531,1.28606152534485,-1.11359965801239,-0.53626394271851,-42.91410827636719,31.19636344909668,1.68244457244873
487,1264669821,40.01074218750000,-87.02552795410156,142.95439147949219,0.89741492271423,-1.17131161689758,-0.75296854972839,-31.05671691894531,29.25858497619629,6.44606065750122
488,1264686488,33.88052368164062,-86.66933441162109,149.03890991210938,0.64134752750397,-0.45761477947235,-1.09643113613129,-2.61406564712524,29.51484870910645,3.53097081184387
489,1264703155,30.21324348449707,-86.21244812011719,153.05067443847656,0.25918287038803,0.82146072387695,-0.67270332574844,20.91723251342773,31.52314758300781,-1.56464910507202
490,1264719822,27.56486320495605,-85.66744995117188,155.95306396484375,0.12901194393635,1.54802572727203,0.06468566507101,15.54686832427979,34.95700073242188,-4.70434761047363
491,1264736489,24.81169700622559,-84.96492004394531,158.78381347656250,0.07896878570318,0.33878165483475,0.10765393823385,4.83749866485596,44.30082702636719,-5.85546302795410
492,1264753156,22.44923973083496,-84.10269165039062,161.52604675292969,-0.20179878175259,-1.01432836055756,-0.50535809993744,22.80031776428223,54.03765106201172,-6.08239984512329
493,1264769823,21.02424430847168,-83.24916076660156,163.67675781250000,0.04153160750866,-0.84768140316010,-1.56386864185333,43.53943252563477,53.21331024169922,-5.48135089874268
494,1264786490,20.08210372924805,-82.60638427734375,165.33892822265625,0.00388796301559,-1.14599895477295,-1.68785095214844,43.23277282714844,40.81487655639648,-1.76806676387787
495,1264803157,19.61520767211914,-82.23820495605469,166.24327087402344,-0.52954846620560,0.41500782966614,-1.44704461097717,26.57336616516113,23.61089897155762,-0.50361198186874
496,1264819824,19.40068817138672,-82.18625640869141,166.18283081054688,-1.07943451404572,0.73320311307907,-2.13397479057312,-15.65918064117432,3.18490958213806,-1.24115395545959
497,1264836491,19.21941184997559,-82.43908691406250,165.74961853027344,-1.24897134304047,-1.09412097930908,-3.02011418342590,-35.82363128662109,-15.04474830627441,1.99732089042664
498,1264853158,19.58466529846191,-83.07933044433594,164.61546325683594,-1.60493075847626,-2.02976369857788,-4.32000350952148,-44.76819992065430,-38.64629364013672,4.92669582366943
499,1264869825,21.04747009277344,-84.27409362792969,162.18357849121094,-1.51686620712280,-2.15929412841797,-5.67575836181641,-56.40473556518555,-72.31818389892578,10.05205059051514
500,1264886492,27.56876373291016,-86.25968933105469,154.08531188964844,-2.07693791389465,0.08966774493456,-7.78249788284302,-92.04950714111328,-124.26371002197266,12.59028053283691
501,1264903159,112.57130432128906,-88.25370025634766,66.50666809082031,10.20971870422363,-0.85103356838226,-50.26952362060547,-149.16926574707031,-243.74705505371094,3.33608627319336
502,1264919826,166.24867248535156,-79.43431854248047,12.97601413726807,14.71929550170898,29.97857475280762,-13.66283226013184,16.10069084167480,-574.47546386718750,-53.97507858276367
503,1264936493,159.25886535644531,-74.54288482666016,14.12840938568115,60.96441650390625,8.70638942718506,47.47109222412109,-350.91546630859375,-275.20355224609375,-101.60098266601562
504,1264953160,164.39338684082031,-69.51306915283203,10.29636669158936,112.69667816162109,-5.15475940704346,16.35959625244141,89.89947509765625,-308.24462890625000,-26.33300971984863
505,1264969827,167.67100524902344,-66.00931549072266,6.01308012008667,36.85668945312500,-0.17850205302238,1.62033581733704,-40.51009750366211,-226.96395874023438,43.97570037841797
506,1264986494,168.84849548339844,-62.54359817504883,2.65511608123779,21.15377998352051,1.80150091648102,-15.53709125518799,-110.08879089355469,-220.95083618164062,43.62040328979492
507,1265003161,171.66758728027344,-61.51462554931641,0.77159428596497,-9.76919364929199,-7.39300966262817,-13.05032253265381,70.14760589599609,-69.44572448730469,42.08358764648438
508,1265019828,173.14224243164062,-61.54007339477539,0.80617660284042,-21.47364234924316,0.60935324430466,-15.36097812652588,91.12378692626953,2.02865552902222,-0.50198519229889
509,1265036495,172.87557983398438,-61.85496520996094,1.92826461791992,-6.25055122375488,-6.81882715225220,-16.01011276245117,44.10158157348633,23.05361557006836,-29.10692405700684
510,1265053162,173.24369812011719,-62.63323211669922,2.80521178245544,3.77375888824463,-2.83997416496277,-11.59155178070068,69.46797943115234,49.76001358032227,-18.41517066955566
511,1265069829,172.89923095703125,-63.80395507812500,3.29539012908936,4.68256044387817,2.31819891929626,-8.25388622283936,6.40816497802734,71.77822113037109,-4.41939878463745
512,1265086496,171.87548828125000,-65.21472930908203,3.83395648002625,6.56567335128784,3.78008246421814,-5.57652139663696,-31.43232536315918,86.20031738281250,-2.30614638328552
513,1265103163,170.04689025878906,-66.80214691162109,5.26964044570923,12.93088150024414,6.37577390670776,-2.91997385025024,-30.18280792236328,100.01916503906250,-19.35877037048340
514,1265119830,167.91363525390625,-68.36691284179688,7.19484519958496,17.86165237426758,1.99519658088684,-2.20938205718994,-20.36986160278320,101.02064514160156,-25.01475143432617
515,1265136497,166.85769653320312,-69.80284118652344,8.50894451141357,15.00276660919189,-1.91287624835968,-2.97554302215576,11.12400817871094,90.66622161865234,-8.37631797790527
516,1265153164,166.38479614257812,-71.02232360839844,9.30162715911865,9.91222667694092,-1.38397157192230,-2.33824205398560,17.25871849060059,75.31729125976562,1.69128692150116
517,1265169831,165.53515625000000,-72.17046356201172,10.24733066558838,6.78952980041504,-1.03179037570953,-3.34609866142273,3.68287181854248,71.62084197998047,-0.39622285962105
518,1265186498,164.53604125976562,-73.37518310546875,11.47491168975830,6.09726715087891,-1.27877438068390,-3.46547555923462,11.22757911682129,75.90184783935547,-2.14291810989380
519,1265203165,163.90560913085938,-74.69864654541016,12.82834720611572,6.72241401672363,0.83831012248993,-2.88088130950928,41.07372283935547,82.92749023437500,0.36237299442291
520,1265219832,163.10076904296875,-75.97721862792969,14.29661655426025,7.59547710418701,4.37599992752075,-1.66633665561676,37.75695037841797,80.33496093750000,0.66591668128967
521,1265236499,161.69537353515625,-77.17745208740234,15.80483913421631,8.19378852844238,4.81313943862915,-1.15669989585876,4.52837181091309,75.43663787841797,2.01901936531067
522,1265253166,160.29081726074219,-78.32725524902344,17.23236274719238,8.82076072692871,3.33299660682678,-1.39927351474762,0.26191386580467,71.58367156982422,5.55894708633423
523,1265269833,159.04853820800781,-79.41792297363281,18.59544563293457,10.02757835388184,2.59197902679443,-0.51816618442535,6.54515647888184,67.28354644775391,8.20766544342041
524,1265286500,157.44822692871094,-80.39774322509766,20.13264274597168,10.53010559082031,0.89419984817505,-0.28961271047592,-4.37714004516602,61.02640914916992,7.04821538925171
525,1265303167,155.68959045410156,-81.26181030273438,21.79649734497070,11.34054470062256,-1.29919505119324,-0.15133970975876,-6.12337112426758,54.33092498779297,6.29188489913940
526,1265319834,154.08197021484375,-82.02792358398438,23.39233207702637,12.06925487518311,-1.93252849578857,0.56221675872803,-0.88426011800766,47.95677566528320,7.18100929260254
527,1265336501,152.29412841796875,-82.69228363037109,25.30021095275879,10.99550914764404,-0.71407008171082,-0.21194401383400,7.02520704269409,42.86887359619141,4.66181802749634
528,1265353168,150.41162109375000,-83.25975036621094,27.38544654846191,9.88459777832031,0.44578415155411,-0.35523170232773,12.06422996520996,37.64678573608398,3.15972161293030
529,1265369835,148.57261657714844,-83.75555419921875,29.38895606994629,9.06460380554199,1.22902119159698,-0.33277153968811,9.94443511962891,32.95626068115234,3.64993405342102
530,1265386502,146.93080139160156,-84.19120788574219,31.24057960510254,9.02202129364014,1.25457561016083,-0.45553910732269,12.81737613677979,28.75685501098633,4.34095144271851
531,1265403169,145.29660034179688,-84.56206512451172,32.96935272216797,8.96646022796631,1.30824947357178,-0.35067963600159,6.02830219268799,24.56037712097168,4.22474145889282
532,1265419836,143.49093627929688,-84.88530731201172,34.72851562500000,9.34891510009766,0.47494766116142,-0.82127475738525,-2.40539503097534,21.86132431030273,3.67052960395813
533,1265436503,141.62673950195312,-85.18415069580078,36.66364669799805,9.47892570495605,-0.06721556186676,-0.69431251287460,4.67603445053101,20.77266883850098,3.17929005622864
534,1265453170,139.32933044433594,-85.46940612792969,39.12249755859375,9.70156764984131,0.25946107506752,-0.56893038749695,10.05078220367432,21.28199768066406,1.87462913990021
535,1265469837,136.52804565429688,-85.74071502685547,42.04722595214844,9.66212654113770,0.56920218467712,-0.56238341331482,7.75576353073120,21.52864646911621,1.17642533779144
536,1265486504,133.59875488281250,-85.98190307617188,45.10730743408203,9.62710475921631,0.36761042475700,-0.58995729684830,8.21401214599609,20.04615020751953,1.09940755367279
537,1265503171,130.50808715820312,-86.19409179687500,48.32459259033203,9.60465717315674,0.72872489690781,-0.25186359882355,8.02617931365967,18.73988533020020,0.87354153394699
538,1265519838,126.78089141845703,-86.37923431396484,52.02825927734375,9.65591716766357,0.93820643424988,-0.11358208209276,-0.99347943067551,18.61560821533203,-0.07243280112743
539,1265536505,121.71331787109375,-86.55827331542969,56.95012664794922,9.87027549743652,0.57883232831955,-0.26201993227005,-8.42777252197266,21.53020858764648,-1.11345005035400
540,1265553172,115.74356842041016,-86.72164916992188,62.89897537231445,10.04966640472412,0.22251904010773,-0.06937578320503,-0.97005718946457,23.50736045837402,-1.23170423507690
541,1265569839,108.64310455322266,-86.84142303466797,69.93756866455078,9.77827739715576,0.81066775321960,-0.06909934431314,-3.46571302413940,25.12587356567383,-2.08453226089478
542,1265586506,101.64391326904297,-86.88869476318359,76.67602539062500,9.70198726654053,0.56836754083633,-0.47397357225418,-15.45092773437500,22.56289291381836,-2.75286006927490
543,1265603173,96.15458679199219,-86.89473724365234,82.02025604248047,9.64870643615723,0.39164608716965,-0.42713341116905,-8.33455085754395,17.70429801940918,-2.06516766548157
544,1265619840,90.86885070800781,-86.86806488037109,87.26737976074219,10.01977348327637,0.50668609142303,0.01384884025902,-1.97547125816345,17.46828460693359,-2.36242842674255
545,1265636507,84.67201995849609,-86.80579376220703,93.49853515625000,9.65870666503906,0.77027148008347,0.07074823230505,2.27898955345154,21.23138046264648,-2.63145303726196
546,1265653174,80.05342102050781,-86.71730041503906,98.16607666015625,9.62905406951904,0.75323283672333,0.30279165506363,3.28193116188049,16.85199928283691,-2.87913918495178
547,1265669841,76.84577941894531,-86.62310028076172,101.41873931884766,9.56900978088379,0.76921010017395,0.40912324190140,3.13459277153015,12.68917274475098,-2.95386314392090
548,1265686508,75.17477416992188,-86.54344940185547,103.06764221191406,9.58238410949707,0.82646125555038,0.51497459411621,-0.70144224166870,7.32317781448364,-2.92421483993530
549,1265703175,74.65058135986328,-86.49016571044922,103.54619598388672,9.75003623962402,0.67695617675781,0.49988529086113,-1.99230945110321,2.95487952232361,-2.34589266777039
550,1265719842,75.01092529296875,-86.46111297607422,103.16399383544922,9.68643093109131,0.81587862968445,0.46028026938438,-0.50495433807373,-0.47815066576004,-1.74893748760223
551,1265736509,76.17784118652344,-86.45105743408203,101.95651245117188,9.68382835388184,0.82485300302505,0.27691972255707,-1.47011768817902,-3.75895786285400,-1.41835439205170
552,1265753176,78.17198944091797,-86.46471405029297,99.89486694335938,9.71115112304688,0.80243539810181,0.10080278664827,-2.94184970855713,-7.20353412628174,-0.64321178197861
553,1265769843,79.25601959228516,-86.46476745605469,98.74172973632812,10.00981712341309,0.77463877201080,0.54055291414261,-3.21304917335510,-3.75857424736023,-0.54094028472900
554,1265786510,79.31658935546875,-86.43196105957031,98.54524230957031,9.55431365966797,0.81911098957062,0.00246534682810,-7.34455776214600,0.07975155115128,-1.77631783485413
555,1265803177,79.94722747802734,-86.40860748291016,97.81496429443359,9.73556900024414,0.66657572984695,-0.05605345964432,-5.05197763442993,-2.00639677047729,-1.59766912460327
556,1265819844,81.19800567626953,-86.39919281005859,96.52218627929688,9.67539596557617,0.73452669382095,0.07709318399429,-1.59700334072113,-4.28485155105591,-1.04999268054962
557,1265836511,83.01225280761719,-86.40168762207031,94.66665649414062,9.65863704681396,0.89633959531784,0.24177701771259,-1.40950524806976,-6.51774072647095,-0.54095304012299
558,1265853178,85.21112060546875,-86.40016937255859,92.39624786376953,9.79234504699707,0.79429644346237,0.04010113328695,-3.22498559951782,-8.07686519622803,-0.67828851938248
559,1265869845,88.05485534667969,-86.41100311279297,89.51758575439453,9.72668361663818,0.69377303123474,-0.37460476160049,-0.92432427406311,-10.42961120605469,0.29245233535767
560,1265886512,91.60376739501953,-86.42850494384766,86.00474548339844,9.79496574401855,0.71365004777908,-0.49120268225670,3.41664075851440,-12.75011444091797,1.28449702262878
561,1265903179,95.20547485351562,-86.44642639160156,82.52026367187500,9.83145809173584,0.60089898109436,-0.45267692208290,8.23564815521240,-12.48942756652832,2.14128088951111
562,1265919846,98.43218994140625,-86.45696258544922,79.52844238281250,9.80526924133301,0.59847289323807,-0.28955799341202,15.25844287872314,-10.53876686096191,2.22378015518188
563,1265936513,101.11925506591797,-86.45757293701172,77.06101226806641,9.73375415802002,0.87352555990219,-0.12480726093054,14.24119472503662,-8.58597469329834,1.89237689971924
564,1265953180,103.25022888183594,-86.44918060302734,75.06879425048828,9.77874469757080,0.93671607971191,0.10275951027870,9.35673904418945,-6.90923309326172,1.35931134223938
565,1265969847,104.66718292236328,-86.43273162841797,73.65528869628906,9.82162189483643,0.86573576927185,-0.13541315495968,1.17675650119781,-4.91863775253296,0.60392832756042
566,1265986514,105.60675811767578,-86.42488861083984,72.72198486328125,9.82943916320801,0.49237167835236,-0.40027761459351,1.30261695384979,-3.05965447425842,0.74108421802521
567,1266003181,105.90994262695312,-86.43179321289062,72.48409271240234,9.80637836456299,0.62410157918930,-0.39605063199997,4.75565719604492,-0.30867147445679,0.92342096567154
568,1266019848,105.92270660400391,-86.44885253906250,72.56024169921875,9.73503303527832,0.76460194587708,-0.27254396677017,6.12552738189697,0.99261391162872,1.20069146156311
569,1266036515,105.79866027832031,-86.46177673339844,72.71937561035156,9.77465057373047,0.80902832746506,-0.11115965247154,2.91402697563171,1.21769809722900,0.86616384983063
570,1266053182,105.83428955078125,-86.47808074951172,72.73489379882812,9.68192005157471,0.55837696790695,-0.21194049715996,3.90357351303101,0.75709217786789,1.20065283775330
571,1266069849,106.12960052490234,-86.49530029296875,72.50727081298828,9.67457485198975,0.90102452039719,-0.04045748338103,4.89355659484863,-0.08418896049261,1.51282083988190
572,1266086516,106.54592132568359,-86.50351715087891,72.06031036376953,9.76579952239990,0.84953218698502,-0.02440683171153,-0.97814893722534,-0.99877995252609,1.22074604034424
573,1266103183,107.02119445800781,-86.50833892822266,71.50948333740234,9.69043254852295,0.72267407178879,-0.15466003119946,-3.66285920143127,-1.41070902347565,1.14938902854919
574,1266119850,107.58202362060547,-86.51395416259766,70.89736175537109,9.77823162078857,0.52630633115768,-0.33925113081932,-2.17920517921448,-1.60288107395172,1.26774549484253
575,1266136517,108.11949157714844,-86.52576446533203,70.39570617675781,9.84197902679443,0.56797045469284,-0.24721200764179,3.01641440391541,-1.08768177032471,1.52724051475525
576,1266153184,108.57526397705078,-86.53881072998047,69.99626159667969,9.72763538360596,0.65717566013336,-0.23870185017586,4.24900007247925,-0.69920116662979,1.47354364395142
577,1266169851,109.16471099853516,-86.54798126220703,69.43771362304688,9.70653247833252,0.81397712230682,-0.16352784633636,2.69388628005981,-1.29647636413574,1.48083019256592
578,1266186518,109.87847137451172,-86.54952239990234,68.68076324462891,9.66561126708984,0.66148006916046,-0.25840559601784,-1.67371296882629,-2.11686420440674,1.27947592735291
579,1266203185,110.52010345458984,-86.54645538330078,67.99861907958984,9.78946495056152,0.67977470159531,-0.18217124044895,-1.54388225078583,-1.94515657424927,0.96662962436676
580,1266219852,110.90985870361328,-86.53779602050781,67.55142974853516,9.84746551513672,0.61869513988495,-0.32273977994919,-2.58377099037170,-1.26420450210571,0.37241509556770
581,1266236519,111.16850280761719,-86.53305053710938,67.26785278320312,9.77837085723877,0.59399676322937,-0.43374207615852,-0.65669673681259,-0.62614083290100,0.39460840821266
582,1266253186,111.38407135009766,-86.53592681884766,67.06695556640625,9.69774532318115,0.58886331319809,-0.42678445577621,1.70985865592957,-0.18031337857246,0.71641910076141
583,1266269853,111.55756378173828,-86.53983306884766,66.92558288574219,9.71715545654297,0.70084547996521,-0.34440726041794,2.77083969116211,0.04363763704896,0.68626028299332
584,1266286520,111.73884582519531,-86.54595184326172,66.77049255371094,9.73513984680176,0.67444878816605,-0.30604949593544,2.40275907516479,0.04981029406190,0.83622258901596
585,1266303187,112.05421447753906,-86.55088043212891,66.49994659423828,9.69923496246338,0.62382155656815,-0.26803365349770,3.52728509902954,-0.35865464806557,0.93403756618500
586,1266319854,112.49577331542969,-86.55281066894531,66.10533905029297,9.71546936035156,0.73914068937302,-0.09604381024837,3.68955469131470,-0.84293967485428,0.92626428604126
587,1266336521,112.74079895019531,-86.54901123046875,65.84475708007812,9.80747985839844,0.80822640657425,-0.19450633227825,-0.11505223065615,-0.51630079746246,0.45323589444160
588,1266353188,112.84653472900391,-86.55026245117188,65.72172546386719,9.81295776367188,0.56192225217819,-0.45915666222572,-0.19404178857803,0.05175685882568,0.51972651481628
589,1266369855,112.88609313964844,-86.56020355224609,65.73139190673828,9.78864002227783,0.48586633801460,-0.47600093483925,3.78067207336426,0.69838804006577,0.81835788488388
590,1266386522,112.97797393798828,-86.57315063476562,65.73814392089844,9.66777133941650,0.62663257122040,-0.40521538257599,6.72563362121582,0.76563417911530,1.00201380252838
591,1266403189,113.13442230224609,-86.58775329589844,65.68634796142578,9.73465061187744,0.68988549709320,-0.22991411387920,7.08559370040894,0.61143285036087,1.17235100269318
592,1266419856,113.42021179199219,-86.59728240966797,65.48567962646484,9.70760726928711,0.72246944904327,-0.14366868138313,5.95881366729736,0.00396356545389,1.09179913997650
593,1266436523,113.92672729492188,-86.59722900390625,65.02993774414062,9.73528957366943,0.66036593914032,-0.13640993833542,3.92394852638245,-1.05663907527924,0.92851781845093
594,1266453190,114.50498199462891,-86.58396148681641,64.45909881591797,9.74853134155273,0.69446450471878,-0.13719062507153,1.27412295341492,-1.74341797828674,0.42077180743217
595,1266469857,114.94007873535156,-86.57028961181641,63.98545074462891,9.83812332153320,0.74381202459335,-0.24776363372803,-1.41691982746124,-1.45583856105804,0.23797395825386
596,1266486524,115.33171844482422,-86.56015014648438,63.57775878906250,9.72616863250732,0.57353013753891,-0.47088199853897,-0.11948324739933,-1.14807653427124,0.37003308534622
597,1266503191,115.77339172363281,-86.55541992187500,63.16830825805664,9.75448131561279,0.60447150468826,-0.40331569314003,2.77783179283142,-1.01700353622437,0.67403024435043
598,1266519858,116.29788970947266,-86.55162048339844,62.70693588256836,9.70340156555176,0.64961624145508,-0.34111273288727,4.64232110977173,-1.15757882595062,0.82350593805313
599,1266536525,116.80881500244141,-86.54090118408203,62.21154785156250,9.73496818542480,0.74740099906921,-0.18672549724579,1.81105494499207,-1.45868170261383,0.50702261924744
600,1266553192,117.32794952392578,-86.52948760986328,61.69261932373047,9.76518917083740,0.56577533483505,-0.38967546820641,0.86850738525391,-1.54864621162415,0.54711925983429
601,1266569859,117.93097686767578,-86.51636505126953,61.11511230468750,9.68800640106201,0.66999799013138,-0.36925166845322,2.41981768608093,-1.79778110980988,0.55972075462341
602,1266586526,118.61582946777344,-86.50241088867188,60.44207763671875,9.72123050689697,0.67089217901230,-0.33433791995049,1.58288395404816,-2.12599468231201,0.72444880008698
603,1266603193,119.31031799316406,-86.48810577392578,59.73926544189453,9.77451133728027,0.69075828790665,-0.32370138168335,0.38701429963112,-2.23516917228699,0.79479414224625
604,1266619860,119.99676513671875,-86.47991180419922,59.07143020629883,9.80401039123535,0.58489853143692,-0.41851550340652,1.99736166000366,-1.94372224807739,1.08343636989594
605,1266636527,120.63286590576172,-86.47103118896484,58.45476913452148,9.75118541717529,0.68315243721008,-0.37004381418228,2.05701351165771,-1.79820358753204,0.98048603534698
606,1266653194,121.25653076171875,-86.46211242675781,57.84996032714844,9.71264171600342,0.66124641895294,-0.38070431351662,1.98294162750244,-1.75417530536652,0.99447065591812
607,1266669861,121.86852264404297,-86.44934082031250,57.24523925781250,9.72461128234863,0.68184989690781,-0.38380068540573,1.33080387115479,-1.87817931175232,0.81200581789017
608,1266686528,122.43589782714844,-86.43883514404297,56.67409133911133,9.79204654693604,0.66024321317673,-0.37500992417336,0.64630442857742,-1.69968426227570,0.89137953519821
609,1266703195,122.97100067138672,-86.42587280273438,56.12190246582031,9.70764636993408,0.64466845989227,-0.42471396923065,-0.14597958326340,-1.71976459026337,0.75218737125397
610,1266719862,123.49924468994141,-86.41379547119141,55.57092666625977,9.77161693572998,0.63746100664139,-0.41869407892227,-0.48529657721519,-1.68929827213287,0.81822967529297
611,1266736529,124.04023742675781,-86.40147399902344,55.01416397094727,9.71914482116699,0.61203676462173,-0.45987534523010,-0.06121435016394,-1.71914982795715,0.83687579631805
612,1266753196,124.55284118652344,-86.38810729980469,54.49269485473633,9.70067882537842,0.64444583654404,-0.39747014641762,0.32888627052307,-1.63588297367096,0.74883204698563
613,1266769863,124.95070648193359,-86.37571716308594,54.06758499145508,9.77147579193115,0.62806808948517,-0.44394624233246,-0.75764924287796,-1.31504571437836,0.59381121397018
614,1266786530,125.24320220947266,-86.36508941650391,53.75286865234375,9.77349185943604,0.59095066785812,-0.48781782388687,-0.49969094991684,-0.90146452188492,0.46901336312294
615,1266803197,125.42740631103516,-86.35987091064453,53.54564666748047,9.78741741180420,0.61775404214859,-0.44378945231438,-0.52873575687408,-0.39247620105743,0.48653241991997
616,1266819864,125.47521972656250,-86.35733795166016,53.46878433227539,9.79635715484619,0.61925882101059,-0.48366585373878,-0.91995704174042,0.11522514373064,0.34369042515755
617,1266836531,125.52730560302734,-86.35761260986328,53.41545104980469,9.76940441131592,0.57504475116730,-0.45790490508080,0.73062151670456,0.28394877910614,0.42868614196777
618,1266853198,125.63478851318359,-86.35787963867188,53.31009674072266,9.67008304595947,0.63695728778839,-0.44963571429253,0.97126549482346,0.11833707243204,0.53409516811371
619,1266869865,125.80431365966797,-86.35341644287109,53.12765884399414,9.68666172027588,0.66854691505432,-0.36683660745621,0.04017991945148,-0.27974191308022,0.48946508765221
620,1266886532,125.94084930419922,-86.34269714355469,52.96369934082031,9.80097103118896,0.63092619180679,-0.38333237171173,-0.79214954376221,-0.45088592171669,0.13334612548351
621,1266903199,126.01644897460938,-86.33419036865234,52.84777069091797,9.78428936004639,0.61781454086304,-0.45794126391411,-1.59620893001556,-0.22270241379738,0.14023593068123
622,1266919866,126.05661773681641,-86.32912445068359,52.79331207275391,9.75994396209717,0.55397939682007,-0.52896052598953,-0.03273303061724,0.09267314523458,0.17433923482895
623,1266936533,126.14130401611328,-86.32667541503906,52.71693801879883,9.69026660919189,0.62187677621841,-0.45695939660072,1.33132886886597,0.11058922857046,0.34201276302338
624,1266953200,126.28012847900391,-86.32416534423828,52.57852172851562,9.70651531219482,0.69451892375946,-0.37285241484642,0.84659570455551,-0.07685089856386,0.49269229173660
625,1266969867,126.41223907470703,-86.31639862060547,52.41477203369141,9.73875808715820,0.62551087141037,-0.41388249397278,-1.05015909671783,-0.34931883215904,0.28841820359230
626,1266986534,126.60353088378906,-86.30530548095703,52.19776153564453,9.71747493743896,0.58013212680817,-0.44922703504562,-0.71000957489014,-0.63240313529968,0.25797751545906
627,1267003201,126.82721710205078,-86.29102325439453,51.96004104614258,9.72616100311279,0.63386130332947,-0.41681054234505,-0.00951511692256,-0.80568587779999,0.16912704706192
628,1267019868,127.01836395263672,-86.27484893798828,51.73454284667969,9.80151271820068,0.65760260820389,-0.42723751068115,-1.20776677131653,-0.85441398620605,0.03574892133474
629,1267036535,127.20905303955078,-86.26089477539062,51.51840972900391,9.74678707122803,0.61875540018082,-0.45169708132744,-0.69562816619873,-0.73523825407028,0.14456450939178
630,1267053202,127.43265533447266,-86.24929046630859,51.28171157836914,9.71811103820801,0.60456150770187,-0.49180006980896,0.05762217193842,-0.72144567966461,0.30574521422386
631,1267069869,127.68896484375000,-86.23750305175781,51.01980972290039,9.74901103973389,0.59993678331375,-0.48341456055641,0.51421976089478,-0.81100052595139,0.36092773079872
632,1267086536,127.94635772705078,-86.22566223144531,50.76856613159180,9.71646308898926,0.62423014640808,-0.41078495979309,1.22583031654358,-0.78536224365234,0.33531507849693
633,1267103203,128.14616394042969,-86.21204376220703,50.55139923095703,9.75600814819336,0.67599260807037,-0.46194943785667,-0.20202016830444,-0.74178212881088,0.18391838669777
634,1267119870,128.30667114257812,-86.20073699951172,50.37483978271484,9.79644012451172,0.58519268035889,-0.53254377841949,-0.12528452277184,-0.53237277269363,0.19548250734806
635,1267136537,128.46649169921875,-86.19440460205078,50.22180557250977,9.71284580230713,0.58797770738602,-0.50367748737335,1.24176132678986,-0.27367168664932,0.37934327125549
636,1267153204,128.53573608398438,-86.18802642822266,50.15167617797852,9.79049301147461,0.66488486528397,-0.50082635879517,0.76457107067108,-0.01381805073470,0.17527410387993
637,1267169871,128.50474548339844,-86.18627929687500,50.18016815185547,9.77824115753174,0.57674926519394,-0.52862066030502,0.65178555250168,0.46413409709930,0.14498709142208
638,1267186538,128.48062133789062,-86.18751525878906,50.21576309204102,9.71182823181152,0.57897168397903,-0.49067690968513,1.50516223907471,0.59479725360870,0.26352265477180
639,1267203205,128.46221923828125,-86.18248748779297,50.22962570190430,9.69342041015625,0.67541354894638,-0.43337187170982,0.54118990898132,0.29429632425308,0.02450495027006
640,1267219872,128.46737670898438,-86.17295074462891,50.21181488037109,9.69795131683350,0.59065711498260,-0.47034636139870,0.07155548036098,0.02230225689709,-0.11541081219912
641,1267236539,128.51484680175781,-86.16135406494141,50.15338134765625,9.73668670654297,0.58766353130341,-0.47096163034439,0.17180359363556,-0.17691972851753,-0.10168242454529
642,1267253206,128.56436157226562,-86.15065765380859,50.09888458251953,9.76767730712891,0.68420356512070,-0.42451012134552,0.51505213975906,-0.12821716070175,-0.06305846571922
643,1267269873,128.65048217773438,-86.13851928710938,49.99537658691406,9.75087642669678,0.64034497737885,-0.47581079602242,-0.21608152985573,-0.34085378050804,-0.01034753024578
644,1267286540,128.75819396972656,-86.12799072265625,49.87372589111328,9.72710895538330,0.61550104618073,-0.48074597120285,-0.00272775231861,-0.34386327862740,0.10825847089291
645,1267303207,128.89842224121094,-86.11773681640625,49.73981475830078,9.72367000579834,0.60450911521912,-0.50193065404892,1.21436846256256,-0.37371486425400,0.15374663472176
646,1267319874,129.00074768066406,-86.11093139648438,49.66116333007812,9.77148723602295,0.63857382535934,-0.53272527456284,2.25018453598022,-0.06865484267473,0.17856535315514
647,1267336541,129.08206176757812,-86.10439300537109,49.58830261230469,9.75403499603271,0.65940165519714,-0.50550794601440,1.33326280117035,-0.03971248865128,0.17798906564713
648,1267353208,129.11647033691406,-86.09896850585938,49.55965805053711,9.77047443389893,0.60859811306000,-0.48815476894379,1.16132462024689,0.14736905694008,0.12326752394438
649,1267369875,129.07406616210938,-86.09445190429688,49.59841918945312,9.75681972503662,0.64800846576691,-0.51285326480865,0.58775377273560,0.39054879546165,-0.01377963181585
650,1267386542,128.99795532226562,-86.09249877929688,49.66014480590820,9.73089599609375,0.66596847772598,-0.51115447282791,-0.04181272909045,0.55746674537659,0.03996221348643
651,1267403209,128.89387512207031,-86.09370422363281,49.75636291503906,9.75618171691895,0.59070819616318,-0.56109356880188,0.32159942388535,0.79361587762833,0.10910368710756
652,1267419876,128.84295654296875,-86.09937286376953,49.82639694213867,9.71816539764404,0.68067985773087,-0.50361537933350,1.95909631252289,0.87332266569138,0.37918964028358
653,1267436543,128.78013610839844,-86.10530090332031,49.89720916748047,9.72759723663330,0.64915990829468,-0.48805385828018,1.28019309043884,0.88954824209213,0.39549210667610
654,1267453210,128.71372985839844,-86.11032867431641,49.98076629638672,9.74705505371094,0.61409652233124,-0.47955214977264,1.82658874988556,0.89849984645844,0.32526206970215
655,1267469877,128.65538024902344,-86.11773681640625,50.06401062011719,9.74879837036133,0.64268511533737,-0.45231094956398,2.30298495292664,0.97830903530121,0.42731586098671
656,1267486544,128.61004638671875,-86.12470245361328,50.11849594116211,9.75552654266357,0.71908372640610,-0.43497675657272,1.36308860778809,0.87172180414200,0.48426574468613
657,1267503211,128.60337829589844,-86.13330078125000,50.13253021240234,9.71019458770752,0.60966920852661,-0.49498277902603,1.25898575782776,0.80373293161392,0.66178727149963
658,1267519878,128.62252807617188,-86.14299011230469,50.11731338500977,9.72980880737305,0.67386919260025,-0.48012509942055,1.06838881969452,0.75108599662781,0.78739202022552
659,1267536545,128.62849426269531,-86.15386962890625,50.10028839111328,9.75617980957031,0.66106092929840,-0.49945050477982,0.14209283888340,0.79784196615219,0.85695606470108
660,1267553212,128.59980773925781,-86.17019653320312,50.13775634765625,9.74477481842041,0.57448983192444,-0.57002997398376,1.35183179378510,1.16351437568665,0.96248036623001
661,1267569879,128.56799316406250,-86.18962097167969,50.18588256835938,9.76147270202637,0.64680546522141,-0.50719100236893,1.79858160018921,1.31194019317627,1.08282172679901
662,1267586546,128.45687866210938,-86.21115875244141,50.30839920043945,9.75440025329590,0.63220721483231,-0.49137151241302,1.47345387935638,1.62803936004639,1.00834000110626
663,1267603213,128.27378845214844,-86.23594665527344,50.51444625854492,9.76650810241699,0.58714020252228,-0.52213561534882,2.17455029487610,2.00093483924866,0.95544975996017
664,1267619880,128.08694458007812,-86.26493072509766,50.74036788940430,9.77009105682373,0.61879867315292,-0.46552634239197,3.16071653366089,2.20317268371582,1.10336315631866
665,1267636547,127.90671539306641,-86.29207611083984,50.94762039184570,9.73514842987061,0.61717939376831,-0.46127566695213,2.40913677215576,2.08388113975525,1.08853328227997
666,1267653214,127.75915527343750,-86.31932067871094,51.11171722412109,9.69963550567627,0.65370154380798,-0.43742340803146,1.77935922145844,1.94563663005829,1.20139563083649
667,1267669881,127.60689544677734,-86.34425354003906,51.27482986450195,9.71627235412598,0.59941345453262,-0.47074207663536,1.46920204162598,1.84668195247650,1.09409129619598
668,1267686548,127.47251892089844,-86.37069702148438,51.42642211914062,9.74174594879150,0.61125987768173,-0.49225243926048,1.82862520217896,1.86557137966156,1.20429003238678
669,1267703215,127.32798004150391,-86.39847564697266,51.59559631347656,9.77153015136719,0.57064974308014,-0.43317729234695,2.26852297782898,1.96184957027435,1.23441040515900
670,1267719882,127.14778137207031,-86.42363739013672,51.79416656494141,9.76731014251709,0.63302379846573,-0.35541856288910,1.92172729969025,1.93872141838074,1.03373503684998
671,1267736549,127.00650787353516,-86.44509887695312,51.94799423217773,9.75219154357910,0.59520053863525,-0.39096260070801,1.55346786975861,1.67872691154480,0.98496836423874
672,1267753216,127.04414367675781,-86.46006011962891,51.92139053344727,9.70924472808838,0.59442859888077,-0.37629282474518,1.47735965251923,0.89980614185333,1.07407486438751
673,1267769883,127.25437927246094,-86.47364044189453,51.73767852783203,9.70289134979248,0.59718137979507,-0.40007582306862,2.43276453018188,0.38844859600067,1.35769724845886
674,1267786550,127.74090576171875,-86.48314666748047,51.25284576416016,9.66367149353027,0.68689090013504,-0.31863906979561,0.97814267873764,-0.63849896192551,1.83454167842865
675,1267803217,128.45417785644531,-86.47958374023438,50.51179885864258,9.65571498870850,0.61711186170578,-0.29887455701828,-0.76698505878448,-1.84374296665192,1.81695842742920
676,1267819884,129.25601196289062,-86.46471405029297,49.67884063720703,9.75886440277100,0.61563485860825,-0.32113248109818,-0.95329195261002,-2.52187776565552,1.53529584407806
677,1267836551,130.02661132812500,-86.44355773925781,48.86613082885742,9.80920410156250,0.64000445604324,-0.35206258296967,-1.62230837345123,-2.69760656356812,1.24990618228912
678,1267853218,130.63781738281250,-86.41986083984375,48.18568801879883,9.81765365600586,0.55151063203812,-0.44805091619492,-3.28429079055786,-2.41304898262024,0.87610155344009
679,1267869885,131.15956115722656,-86.39945983886719,47.64306640625000,9.79290771484375,0.41304978728294,-0.61956918239594,-0.38865989446640,-1.90418887138367,0.71686744689941
680,1267886552,131.63250732421875,-86.38361358642578,47.18892288208008,9.76564502716064,0.56019794940948,-0.52938073873520,2.00029444694519,-1.47908222675323,0.72177231311798
681,1267903219,132.00099182128906,-86.36735534667969,46.83156204223633,9.76074123382568,0.61100983619690,-0.50214600563049,1.53118467330933,-1.22874355316162,0.47309854626656
