sep=,
DeviceTag:,Xsens_DOT_2
FirmwareVersion:,3.0.0
AppVersion:,2023.6.0
StartTime: ,2025-04-09_10:43:22_000 CEST
© Movella Technologies B. V. 2005-2025

PacketCounter,SampleTimeFine,Euler_X,Euler_Y,Euler_Z,Acc_X,Acc_Y,Acc_Z,Gyr_X,Gyr_Y,Gyr_Z
0,1256569659,2.02899765968323,-86.01502990722656,42.35103988647461,0.00000000000000,0.00000000000000,0.00000000000000,0.00000000000000,0.00000000000000,0.00000000000000
1,1256586326,2.59325098991394,-86.02753448486328,41.85307312011719,9.92174625396729,-0.12035921961069,0.90138256549835,4.74030971527100,-1.90620636940002,-1.28313875198364
2,1256602993,3.14088034629822,-86.02798461914062,41.37049484252930,9.87592411041260,-0.01197008136660,0.91741919517517,4.61545944213867,-1.18965220451355,-1.24868929386139
3,1256619660,3.64187574386597,-86.03005218505859,40.91997909545898,9.80258560180664,0.06358030438423,0.87725287675858,3.70249485969543,-1.29698216915131,-1.11056017875671
4,1256636327,3.85771727561951,-86.02877044677734,40.73209381103516,9.79372692108154,0.13303472101688,0.86420309543610,2.34517550468445,-1.04949951171875,-0.03267540037632
5,1256652994,3.86585164070129,-86.03612518310547,40.73522567749023,9.75297355651855,0.08768345415592,0.89674174785614,1.33697021007538,-1.50523912906647,0.79563295841217
6,1256669661,3.84385967254639,-86.04660797119141,40.76628112792969,9.72868633270264,0.00678659649566,0.87399661540985,1.17038524150848,-1.68008434772491,0.91944473981857
7,1256686328,3.88792610168457,-86.05727386474609,40.72571563720703,9.75820732116699,0.02578966878355,0.88946098089218,0.86531221866608,-1.71861851215363,0.62739586830139
8,1256702995,3.91828656196594,-86.07763671875000,40.69046020507812,9.77048110961914,0.03795059397817,0.89172482490540,0.36687633395195,-2.28554296493530,0.69019830226898
9,1256719662,3.81299066543579,-86.10645294189453,40.79095458984375,9.79275894165039,0.07896541804075,0.86414271593094,0.31849393248558,-2.76967406272888,1.27560210227966
10,1256736329,3.54596328735352,-86.13492584228516,41.05755233764648,9.87568855285645,0.02999681420624,0.84012180566788,0.54740738868713,-2.70579600334167,1.93542361259460
11,1256752996,3.33655810356140,-86.15579986572266,41.27426147460938,9.92729759216309,-0.02797696366906,0.82255965471268,1.10611009597778,-2.25859856605530,1.70156705379486
12,1256769663,3.27143716812134,-86.17224121093750,41.36333847045898,9.93689155578613,-0.00813841540366,0.81641024351120,2.07938623428345,-2.02330088615417,1.16366815567017
13,1256786330,3.25800657272339,-86.18299865722656,41.40010452270508,9.88074970245361,0.01935207657516,0.83647531270981,2.05606603622437,-1.69480526447296,0.93411439657211
14,1256802997,3.27545356750488,-86.18988037109375,41.40223312377930,9.80335044860840,0.05046723410487,0.81538271903992,1.82233715057373,-1.48530602455139,0.78302508592606
15,1256819664,3.31285810470581,-86.19718933105469,41.38206481933594,9.77136039733887,0.07102658599615,0.79259705543518,1.68968248367310,-1.50632762908936,0.69621717929840
16,1256836331,3.41130852699280,-86.19718933105469,41.29832839965820,9.80501842498779,0.06891743093729,0.81131654977798,1.54751932621002,-1.07913339138031,0.41828098893166
17,1256852998,3.54737067222595,-86.19219207763672,41.17499542236328,9.85018348693848,0.04138573631644,0.86754727363586,1.44253933429718,-0.78235268592834,0.24308374524117
18,1256869665,3.68677639961243,-86.18125152587891,41.04567337036133,9.83403682708740,0.00180592818651,0.88134348392487,1.28964412212372,-0.44735139608383,0.19664788246155
19,1256886332,3.78217411041260,-86.17039489746094,40.96282577514648,9.83835983276367,0.04312371462584,0.80193769931793,1.42331063747406,-0.43126025795937,0.37827396392822
20,1256902999,3.92510318756104,-86.15605163574219,40.82961273193359,9.81758594512939,0.04091817885637,0.81704753637314,1.23649775981903,-0.23020690679550,0.15780623257160
21,1256919666,4.13083362579346,-86.14913940429688,40.62778091430664,9.77529525756836,0.00205762498081,0.77689135074615,0.80964303016663,-0.70888912677765,-0.09668154269457
22,1256936333,4.33577919006348,-86.13943481445312,40.42010879516602,9.82340145111084,0.05215898156166,0.79479420185089,0.43098488450050,-0.53624665737152,-0.13548476994038
23,1256953000,4.47370100021362,-86.12980651855469,40.27197265625000,9.80727481842041,0.03826176747680,0.80909532308578,0.04354158416390,-0.52706450223923,0.10793191194534
24,1256969667,4.52038049697876,-86.12065887451172,40.21287536621094,9.78989505767822,-0.02146791666746,0.82240962982178,-0.11759430170059,-0.52879333496094,0.46565166115761
25,1256986334,4.56790542602539,-86.11546325683594,40.15152740478516,9.76845550537109,-0.00663084117696,0.85109013319016,-0.18633878231049,-0.75819349288940,0.47502595186234
26,1257003001,4.61410617828369,-86.11698150634766,40.08918762207031,9.78432369232178,0.03137739375234,0.90584182739258,-0.32578712701797,-1.16505134105682,0.50273883342743
27,1257019668,4.62008905410767,-86.12905120849609,40.06303405761719,9.78606033325195,0.04487949609756,0.88997966051102,-0.58424484729767,-1.79527723789215,0.69993096590042
28,1257036335,4.66406631469727,-86.14445495605469,40.00628662109375,9.79697895050049,0.02358820661902,0.87632739543915,-0.13484446704388,-2.00088334083557,0.59340780973434
29,1257053002,4.72944498062134,-86.15565490722656,39.93687438964844,9.83785724639893,0.01130420248955,0.86167222261429,0.40372657775879,-1.76137256622314,0.52565580606461
30,1257069669,4.78227901458740,-86.15876007080078,39.88866043090820,9.86476707458496,0.02204721979797,0.84600049257278,0.93301290273666,-1.24754345417023,0.56994020938873
31,1257086336,4.76662588119507,-86.15727996826172,39.90441513061523,9.90240955352783,0.03150905668736,0.84382563829422,0.61292475461960,-0.96852511167526,0.80144697427750
32,1257103003,4.70923948287964,-86.15142059326172,39.95774459838867,9.86638355255127,0.06956823170185,0.83027195930481,0.33687105774879,-0.68622183799744,0.92719250917435
33,1257119670,4.60294675827026,-86.13994598388672,40.05210876464844,9.87357902526855,0.09030382335186,0.83551448583603,-0.10221387445927,-0.32433998584747,1.06830561161041
34,1257136337,4.45555830001831,-86.11743164062500,40.18304061889648,9.89797401428223,0.13921612501144,0.84098434448242,-0.40340641140938,0.32777857780457,1.16638958454132
35,1257153004,4.31532859802246,-86.08438873291016,40.29811096191406,9.88145732879639,0.11538343131542,0.84691023826599,-0.90398752689362,0.95110845565796,1.06248521804810
36,1257169671,4.21997261047363,-86.04126739501953,40.36107635498047,9.85719490051270,0.08898456394672,0.85251003503799,-1.32421505451202,1.55966615676880,0.81048196554184
37,1257186338,4.12486124038696,-85.99640655517578,40.41869735717773,9.82784366607666,0.07330646365881,0.85500735044479,-1.60640943050385,1.64602577686310,0.79223924875259
38,1257203005,4.01602649688721,-85.95339965820312,40.48703384399414,9.79888725280762,0.03833137825131,0.87648868560791,-1.82535290718079,1.53916943073273,0.84917616844177
39,1257219672,3.88874316215515,-85.91045379638672,40.57643127441406,9.80938529968262,0.02393411472440,0.94206708669662,-1.65878105163574,1.54797387123108,0.94722813367844
40,1257236339,3.76178216934204,-85.87156677246094,40.66144943237305,9.76959800720215,0.04111364856362,0.99715483188629,-1.91495919227600,1.30389785766602,0.95263242721558
41,1257253006,3.62619137763977,-85.84484863281250,40.75248718261719,9.73873901367188,0.04586634039879,1.03855001926422,-2.04270887374878,0.56233966350555,1.03837728500366
42,1257269673,3.49242877960205,-85.83219146728516,40.85194396972656,9.69681453704834,0.02280452288687,0.97247660160065,-1.43776857852936,-0.25637027621269,1.13075578212738
43,1257286340,3.35374236106873,-85.82092285156250,40.96171569824219,9.78343105316162,-0.01720314845443,0.90350788831711,-1.11299991607666,-0.34737223386765,1.18392777442932
44,1257303007,3.18593430519104,-85.79667663574219,41.10588073730469,9.87371444702148,-0.00152793014422,0.89043915271759,-0.80851614475250,0.43053025007248,1.29420328140259
45,1257319674,2.99104285240173,-85.76848602294922,41.28511428833008,9.89520931243896,0.02634703740478,0.87841308116913,-0.34737864136696,0.68099045753479,1.44298112392426
46,1257336341,2.79896807670593,-85.73538208007812,41.46279907226562,9.92847347259521,0.04241546615958,0.86776727437973,-0.29578188061714,0.97415339946747,1.42999541759491
47,1257353008,2.66431236267090,-85.68943023681641,41.58591842651367,9.94155693054199,0.04006658494473,0.90379989147186,-0.12046292424202,1.72327363491058,1.16144609451294
48,1257369675,2.54459977149963,-85.64171600341797,41.70666885375977,9.85702037811279,0.03649332001805,0.88311529159546,0.68849492073059,1.84284675121307,1.16336727142334
49,1257386342,2.31013703346252,-85.59633636474609,41.94557952880859,9.81548976898193,0.05998434126377,0.84744775295258,0.86075967550278,1.71304774284363,1.72422754764557
50,1257403009,2.07328033447266,-85.54592132568359,42.17690277099609,9.74277210235596,0.01896043866873,0.90334242582321,0.23149397969246,2.01393294334412,1.69739830493927
51,1257419676,1.88147044181824,-85.49485015869141,42.36120986938477,9.71651363372803,0.02856827713549,0.89660882949829,0.13031740486622,2.03733634948730,1.50122427940369
52,1257436343,1.70063126087189,-85.44826507568359,42.53409194946289,9.71287727355957,-0.04731624200940,0.93328946828842,0.09077140688896,1.77220654487610,1.47301197052002
53,1257453010,1.54542315006256,-85.41525268554688,42.69153213500977,9.70880699157715,0.03791799396276,0.90963798761368,0.72097170352936,0.96115481853485,1.43940782546997
54,1257469677,1.44666087627411,-85.39845275878906,42.79517364501953,9.75791740417480,0.04674031957984,0.96242809295654,0.92118632793427,-0.02511965483427,1.21893393993378
55,1257486344,1.36914455890656,-85.38798522949219,42.87449645996094,9.70217704772949,0.01656349189579,0.96188765764236,0.70286369323730,-0.41653293371201,1.10968303680420
56,1257503011,1.31263947486877,-85.38896179199219,42.93405914306641,9.74941444396973,-0.00526751251891,0.98073500394821,0.79510784149170,-1.10431087017059,1.03424096107483
57,1257519678,1.30360054969788,-85.40364074707031,42.95482254028320,9.76009178161621,-0.01333425752819,0.97155028581619,1.29077756404877,-1.92809224128723,0.86130392551422
58,1257536345,1.39956605434418,-85.42936706542969,42.87525558471680,9.76996040344238,-0.00001502188388,1.00069618225098,1.62137365341187,-2.59672451019287,0.40059542655945
59,1257553012,1.52470672130585,-85.46098327636719,42.76847457885742,9.78858661651611,0.00758173502982,0.99384117126465,1.79584717750549,-2.96535515785217,0.29042240977287
60,1257569679,1.64681041240692,-85.49950408935547,42.66493606567383,9.80719566345215,0.03371614590287,0.96001702547073,1.74279725551605,-3.37990379333496,0.31912788748741
61,1257586346,1.74248528480530,-85.54113006591797,42.58656311035156,9.81073856353760,0.02871278859675,0.95510566234589,1.75149273872375,-3.55182909965515,0.45921656489372
62,1257603013,1.84155201911926,-85.58066558837891,42.50202178955078,9.81840038299561,0.03008374385536,0.98454737663269,1.50063538551331,-3.43246698379517,0.42606729269028
63,1257619680,1.93875622749329,-85.61715698242188,42.41339874267578,9.84057331085205,0.04723826423287,0.97316020727158,1.14453542232513,-3.25872921943665,0.40913084149361
64,1257636347,2.06297111511230,-85.64985656738281,42.29134750366211,9.85272121429443,0.03148097544909,0.96970707178116,0.70554029941559,-3.03062915802002,0.24985189735889
65,1257653014,2.19136595726013,-85.68048858642578,42.16580963134766,9.85927104949951,0.03991034254432,0.97583317756653,0.76562756299973,-2.89704585075378,0.23864629864693
66,1257669681,2.30807399749756,-85.70504760742188,42.04955291748047,9.85925674438477,0.04076096042991,0.95470637083054,0.69161975383759,-2.54361629486084,0.28150919079781
67,1257686348,2.41383934020996,-85.72162628173828,41.93989562988281,9.87815093994141,0.04096248000860,0.97345221042633,0.40752369165421,-2.05992054939270,0.29402101039886
68,1257703015,2.54216694831848,-85.72845458984375,41.80431747436523,9.87854957580566,0.00817893911153,0.97211343050003,0.20063710212708,-1.48442888259888,0.15590451657772
69,1257719682,2.65947079658508,-85.72988128662109,41.67763900756836,9.87815284729004,0.03491497039795,0.98648595809937,0.04658949747682,-1.15937793254852,0.17972432076931
70,1257736349,2.72089910507202,-85.72850036621094,41.59976577758789,9.82814502716064,0.04417197406292,1.00944495201111,-0.36036422848701,-0.97567087411880,0.39168217778206
71,1257753016,2.70334982872009,-85.72731018066406,41.59721755981445,9.84745025634766,0.01302618533373,0.97047758102417,-0.60816711187363,-0.97693872451782,0.72660660743713
72,1257769683,2.65216326713562,-85.72208404541016,41.63273239135742,9.87116432189941,0.00690952455625,0.97142899036407,-0.35262921452522,-0.72791928052902,0.88472664356232
73,1257786350,2.57304787635803,-85.71476745605469,41.69544601440430,9.86468029022217,-0.00785238761455,0.96355092525482,-0.36168971657753,-0.58463537693024,1.00408816337585
74,1257803017,2.54045176506042,-85.70673370361328,41.71438980102539,9.84222698211670,0.00997029896826,0.94920867681503,-0.20813518762589,-0.57858449220657,0.80731225013733
75,1257819684,2.55517148971558,-85.69698333740234,41.69075012207031,9.81584548950195,-0.00064729352016,0.93390148878098,0.04916357249022,-0.45331272482872,0.60684168338776
76,1257836351,2.60019373893738,-85.68085479736328,41.63680648803711,9.82035064697266,-0.01156187802553,0.96559387445450,0.08124989271164,-0.08769788593054,0.45537462830544
77,1257853018,2.65224218368530,-85.66325378417969,41.57844543457031,9.83004570007324,-0.01179075520486,0.99684631824493,0.23500290513039,-0.00735084433109,0.42982590198517
78,1257869685,2.66697049140930,-85.65179443359375,41.56748199462891,9.82949733734131,-0.01273635867983,0.92519122362137,0.83341163396835,-0.34876170754433,0.65836167335510
79,1257886352,2.67718410491943,-85.63520812988281,41.56046676635742,9.82316112518311,0.02778996713459,0.87956666946411,0.79861676692963,-0.05816004052758,0.66420131921768
80,1257903019,2.67723703384399,-85.61402893066406,41.56019210815430,9.80073928833008,0.01221267227083,0.93124610185623,0.61014568805695,0.22781215608120,0.68147706985474
81,1257919686,2.67289829254150,-85.58949279785156,41.56324005126953,9.80611801147461,0.02594445459545,0.94823330640793,0.49689915776253,0.41652649641037,0.68425601720810
82,1257936353,2.65638923645020,-85.56919860839844,41.57616806030273,9.78462219238281,0.05378214642406,0.96236121654510,0.38239121437073,0.18486605584621,0.74235206842422
83,1257953020,2.64233255386353,-85.55639648437500,41.59011077880859,9.76883506774902,0.07593460381031,0.91885375976562,0.58392465114594,-0.27386376261711,0.76913011074066
84,1257969687,2.67532539367676,-85.54711151123047,41.55742263793945,9.80023574829102,0.03335138782859,0.93881702423096,0.64675265550613,-0.49683511257172,0.56529146432877
85,1257986354,2.73136162757874,-85.53739929199219,41.50014114379883,9.82923603057861,-0.02040942199528,0.97308194637299,0.55373370647430,-0.47542929649353,0.44815817475319
86,1258003021,2.81579041481018,-85.52902221679688,41.41613006591797,9.82048416137695,-0.01423751935363,0.97871643304825,0.61475598812103,-0.55330473184586,0.32190036773682
87,1258019688,2.86946320533752,-85.53261566162109,41.36614608764648,9.79026222229004,0.01211368851364,0.97790676355362,0.81899166107178,-1.27154886722565,0.51618552207947
88,1258036355,2.92521667480469,-85.53945922851562,41.31791305541992,9.76487159729004,0.01018318813294,0.97824877500534,1.05561459064484,-1.46602606773376,0.53653478622437
89,1258053022,3.00063586235046,-85.54943847656250,41.25749588012695,9.78491783142090,-0.02340811677277,0.94951343536377,1.53065335750580,-1.65703284740448,0.49237859249115
90,1258069689,3.07419228553772,-85.56005859375000,41.20448303222656,9.82378768920898,0.01620513945818,0.96081817150116,1.82944464683533,-1.69151389598846,0.52637296915054
91,1258086356,3.17765641212463,-85.56699371337891,41.12068939208984,9.84785366058350,0.02406880445778,0.91463440656662,1.79536068439484,-1.47285199165344,0.37448331713676
92,1258103023,3.34521579742432,-85.56412506103516,40.97485733032227,9.83402061462402,0.07004753500223,0.93238353729248,1.88982033729553,-0.90951335430145,0.05154556035995
93,1258119690,3.50563693046570,-85.56332397460938,40.83664321899414,9.82827281951904,0.08020324259996,0.95640653371811,1.95339739322662,-1.03203821182251,0.09774446487427
94,1258136357,3.58896565437317,-85.56686401367188,40.77116394042969,9.80203914642334,0.11616872251034,0.94071662425995,1.67451989650726,-1.26847541332245,0.44920837879181
95,1258153024,3.65668129920959,-85.56729888916016,40.71477890014648,9.81787395477295,0.07105086743832,0.93575114011765,1.32009780406952,-1.08923137187958,0.48385599255562
96,1258169691,3.72896838188171,-85.56518554687500,40.65210342407227,9.82608032226562,0.05418084561825,0.94302976131439,1.18136024475098,-0.93922400474548,0.44231849908829
97,1258186358,3.79489374160767,-85.56486511230469,40.59198379516602,9.81578063964844,0.03207488358021,0.94776707887650,0.97822576761246,-1.03970277309418,0.46294957399368
98,1258203025,3.84461927413940,-85.56663513183594,40.54811096191406,9.79821109771729,0.04522048681974,0.93231427669525,0.97759824991226,-1.16328394412994,0.54660063982010
99,1258219692,3.89098262786865,-85.56756591796875,40.50368499755859,9.78789520263672,0.04133471474051,0.91939091682434,0.71140551567078,-1.11453020572662,0.53795629739761
100,1258236359,3.96776151657104,-85.57021331787109,40.42579650878906,9.78399467468262,0.05490450561047,0.93540978431702,0.57346189022064,-1.21016156673431,0.39281556010246
101,1258253026,4.02729845046997,-85.57858276367188,40.36820983886719,9.81388282775879,0.06396600604057,0.90924590826035,0.69687032699585,-1.55893623828888,0.50581240653992
102,1258269693,4.04148387908936,-85.58593750000000,40.35389709472656,9.82517433166504,0.06082169339061,0.93460470438004,0.59450924396515,-1.49101138114929,0.70557874441147
103,1258286360,4.06414079666138,-85.59149169921875,40.33700942993164,9.79259014129639,0.03947845101357,0.93962866067886,0.95697373151779,-1.38104963302612,0.68745130300522
104,1258303027,4.09136724472046,-85.60287475585938,40.31524658203125,9.80889225006104,0.05177529901266,0.92243289947510,0.96386998891830,-1.72936296463013,0.69185024499893
105,1258319694,4.16800642013550,-85.61487579345703,40.24127197265625,9.81071472167969,0.08136842399836,0.89603459835052,0.78306984901428,-1.78344416618347,0.45427963137627
106,1258336361,4.26487588882446,-85.62319946289062,40.14429473876953,9.80468273162842,0.08997856080532,0.87573039531708,0.60899960994720,-1.56466722488403,0.33280506730080
107,1258353028,4.31596279144287,-85.62928009033203,40.09059906005859,9.83684253692627,0.03859022259712,0.93876737356186,0.45118692517281,-1.42192745208740,0.52232623100281
108,1258369695,4.39114570617676,-85.63314056396484,40.01435089111328,9.87410736083984,0.02910418249667,0.96451461315155,0.54834228754044,-1.29759693145752,0.41062277555466
109,1258386362,4.43043756484985,-85.64014434814453,39.97477722167969,9.89017009735107,0.09145094454288,0.85662931203842,0.60982561111450,-1.46708905696869,0.59325420856476
110,1258403029,4.41743898391724,-85.64292907714844,39.97813034057617,9.81524753570557,0.09285202622414,0.84435123205185,0.02628503181040,-1.19946837425232,0.76773422956467
111,1258419696,4.42674875259399,-85.64872741699219,39.95856094360352,9.80304908752441,0.06202078610659,0.86610490083694,-0.02511965483427,-1.38856041431427,0.67613679170609
112,1258436363,4.44047021865845,-85.64395904541016,39.93280792236328,9.79553508758545,0.06924129277468,0.90689921379089,-0.14135007560253,-0.76679933071136,0.59904259443283
113,1258453030,4.42201375961304,-85.64333343505859,39.93484497070312,9.82391643524170,0.07779145240784,0.89945304393768,-0.39544087648392,-1.00470292568207,0.74475324153900
114,1258469697,4.36733245849609,-85.64693450927734,39.96983718872070,9.82238388061523,0.05263043567538,0.91854840517044,-0.54345667362213,-1.22791767120361,0.91780549287796
115,1258486364,4.31308412551880,-85.64801025390625,40.01048278808594,9.82732295989990,0.01143792364746,0.91764032840729,-0.21350106596947,-1.09477007389069,0.93075275421143
116,1258503031,4.30872058868408,-85.64549255371094,40.00261688232422,9.81252288818359,0.02548956125975,0.94151306152344,-0.16214758157730,-0.88475865125656,0.68820035457611
117,1258519698,4.31395292282104,-85.64810180664062,39.98419570922852,9.79421615600586,0.02680065855384,0.90765273571014,-0.19013586640358,-1.19665074348450,0.66710186004639
118,1258536365,4.31672620773315,-85.65549468994141,39.97212219238281,9.80290126800537,0.02391158975661,0.87471288442612,0.01116073317826,-1.49008274078369,0.71534341573715
119,1258553032,4.32673454284668,-85.66212463378906,39.95896148681641,9.79084110260010,0.02412693388760,0.90973436832428,0.43847659230232,-1.43260133266449,0.71143108606339
120,1258569699,4.34024620056152,-85.66532897949219,39.94700622558594,9.81576156616211,0.04061296209693,0.89934343099594,0.68955796957016,-1.23407757282257,0.69932913780212
121,1258586366,4.36220645904541,-85.66957855224609,39.92361068725586,9.82411289215088,0.05740349739790,0.87100303173065,0.58030688762665,-1.29269206523895,0.65715777873993
122,1258603033,4.40239095687866,-85.67691040039062,39.87878036499023,9.82107162475586,0.03748131915927,0.91718339920044,0.36116468906403,-1.48824524879456,0.57380133867264
123,1258619700,4.45431613922119,-85.68275451660156,39.82268905639648,9.82002544403076,0.04819899424911,0.87909543514252,0.37508514523506,-1.40543913841248,0.51448231935501
124,1258636367,4.50698852539062,-85.68416595458984,39.76834487915039,9.80462837219238,0.05487976968288,0.89366596937180,0.48318353295326,-1.13564789295197,0.49866640567780
125,1258653034,4.52350759506226,-85.68688964843750,39.74413299560547,9.80580234527588,0.05468696728349,0.89691388607025,0.14914275705814,-1.20595479011536,0.64301961660385
126,1258669701,4.51710128784180,-85.69434356689453,39.74263000488281,9.80120182037354,0.04181372001767,0.90907442569733,0.13423615694046,-1.48792517185211,0.76844507455826
127,1258686368,4.48605346679688,-85.70400238037109,39.76855087280273,9.80356788635254,0.03038584999740,0.92032712697983,0.30167916417122,-1.60328459739685,0.90157973766327
128,1258703035,4.48350048065186,-85.71499633789062,39.76745605468750,9.78603649139404,0.00303701474331,0.93688094615936,0.39179748296738,-1.68697392940521,0.78517007827759
129,1258719702,4.52333259582520,-85.72988128662109,39.72251892089844,9.79327869415283,0.02027460932732,0.91927003860474,0.35179042816162,-1.93654417991638,0.61311680078506
130,1258736369,4.57748079299927,-85.74724578857422,39.66346740722656,9.80109405517578,0.01477534510195,0.91286426782608,0.28686225414276,-2.09483075141907,0.55571877956390
131,1258753036,4.61909723281860,-85.76381683349609,39.61989593505859,9.81612873077393,0.02165381424129,0.90345233678818,0.46479368209839,-2.04113364219666,0.62254232168198
132,1258769703,4.64362049102783,-85.77960968017578,39.59378433227539,9.84086513519287,0.05143164098263,0.92465245723724,0.52132093906403,-1.99117624759674,0.70139104127884
133,1258786370,4.67325973510742,-85.79294586181641,39.55782318115234,9.84989929199219,0.05314481630921,0.92020809650421,0.21217559278011,-1.84506821632385,0.64362150430679
134,1258803037,4.69917011260986,-85.80436706542969,39.52668762207031,9.84341907501221,0.05411809310317,0.89106696844101,0.28969243168831,-1.73864758014679,0.65863054990768
135,1258819704,4.71455478668213,-85.81324768066406,39.50238037109375,9.85692214965820,0.03922407701612,0.90974485874176,0.06017705053091,-1.56702995300293,0.67320424318314
136,1258836371,4.74186086654663,-85.81909942626953,39.46381759643555,9.84719085693359,0.04234533756971,0.90385472774506,-0.06439673155546,-1.39674377441406,0.59943974018097
137,1258853038,4.76125764846802,-85.82018280029297,39.43473434448242,9.84083938598633,0.03952497988939,0.86536175012589,0.02538218535483,-1.10292780399323,0.61619031429291
138,1258869705,4.81884479522705,-85.81572723388672,39.36949539184570,9.83936691284180,0.00538482796401,0.88657110929489,0.15391312539577,-0.79384005069733,0.43149077892303
139,1258886372,4.85925483703613,-85.80988311767578,39.31825256347656,9.84724998474121,0.00473993178457,0.94197762012482,-0.00919495895505,-0.69434750080109,0.48680135607719
140,1258903039,4.85125446319580,-85.80604553222656,39.32063674926758,9.84673500061035,0.04120350256562,0.86384129524231,0.30906847119331,-0.80080026388168,0.73204940557480
141,1258919706,4.80681037902832,-85.79602050781250,39.35921096801758,9.83326148986816,0.02276379801333,0.82995766401291,0.24230897426605,-0.42168110609055,0.85609173774719
142,1258936373,4.81027412414551,-85.78648376464844,39.34803771972656,9.77377128601074,0.01851768977940,0.88957077264786,0.08337572962046,-0.45790383219719,0.63376700878143
143,1258953040,4.82506895065308,-85.77807617187500,39.32645034790039,9.76171588897705,0.02026994340122,0.88426375389099,0.22981636226177,-0.53416568040848,0.60219943523407
144,1258969707,4.82283973693848,-85.77145385742188,39.32300567626953,9.79821872711182,0.03193910419941,0.87040519714355,0.25443655252457,-0.63463789224625,0.68804675340652
145,1258986374,4.81964254379272,-85.77256011962891,39.32288742065430,9.76694488525391,0.03515929728746,0.86026042699814,0.43814367055893,-1.09813821315765,0.74558573961258
146,1259003041,4.82967424392700,-85.77358245849609,39.31134796142578,9.78205680847168,0.02011185139418,0.86997818946838,0.49137964844704,-1.09774112701416,0.68871271610260
147,1259019708,4.89805316925049,-85.77709960937500,39.23922729492188,9.80331993103027,0.00625752750784,0.87917137145996,0.40432205796242,-1.26695132255554,0.43856623768806
148,1259036375,4.97470760345459,-85.78466796875000,39.16110229492188,9.79152393341064,0.02630172297359,0.87094819545746,0.53699588775635,-1.52040183544159,0.43405839800835
149,1259053042,5.02252960205078,-85.79518127441406,39.11404037475586,9.79491806030273,0.01355779822916,0.85471498966217,0.66541790962219,-1.67424452304840,0.58664608001709
150,1259069709,5.10322809219360,-85.80623626708984,39.03951644897461,9.81832981109619,0.00284477532841,0.85366082191467,1.05002462863922,-1.71343827247620,0.47431519627571
151,1259086376,5.17815780639648,-85.81587219238281,38.97694778442383,9.82044315338135,0.00139669864438,0.87873470783234,1.36151993274689,-1.62802648544312,0.51624959707260
152,1259103043,5.25201082229614,-85.82617950439453,38.91329193115234,9.84123611450195,0.03007922880352,0.87829720973969,1.21807599067688,-1.67474412918091,0.51572453975677
153,1259119710,5.33092498779297,-85.83698272705078,38.83882904052734,9.85168647766113,0.05167950689793,0.88963836431503,0.86701548099518,-1.70837330818176,0.47192674875259
154,1259136377,5.35400009155273,-85.84796142578125,38.81850433349609,9.83021545410156,0.05651315301657,0.86333012580872,0.77942633628845,-1.68193459510803,0.70828717947006
155,1259153044,5.35130929946899,-85.85716247558594,38.82501220703125,9.82559680938721,0.03435770049691,0.85802024602890,0.83312332630157,-1.58403003215790,0.81734597682953
156,1259169711,5.38478612899780,-85.86525726318359,38.79652404785156,9.82385158538818,0.00020501529798,0.86825871467590,0.92834502458572,-1.53126156330109,0.66197299957275
157,1259186378,5.43652296066284,-85.87137603759766,38.75230789184570,9.82358455657959,0.00629444420338,0.86445689201355,1.07038033008575,-1.40914022922516,0.58104968070984
158,1259203045,5.49351596832275,-85.87403106689453,38.70173645019531,9.81753730773926,0.02124163508415,0.89130890369415,1.01626062393188,-1.20280444622040,0.53595846891403
159,1259219712,5.56499767303467,-85.87787628173828,38.63622283935547,9.79655170440674,0.02781658247113,0.87647229433060,0.98066544532776,-1.28712773323059,0.47763198614120
160,1259236379,5.63270425796509,-85.88024902343750,38.57489395141602,9.83286762237549,0.04032521694899,0.87625521421432,1.00148224830627,-1.19419860839844,0.48715358972549
161,1259253046,5.68802309036255,-85.88311004638672,38.52027893066406,9.83487319946289,0.03835923597217,0.88910728693008,0.65883541107178,-1.21900427341461,0.51966881752014
162,1259269713,5.70545101165771,-85.88677215576172,38.50471878051758,9.83313941955566,0.02540040388703,0.88436311483383,0.73640346527100,-1.25641167163849,0.69256734848022
163,1259286380,5.73423480987549,-85.89211273193359,38.47760772705078,9.80932903289795,0.05834661424160,0.86897933483124,0.65194559097290,-1.36116755008698,0.64746338129044
164,1259303047,5.78378248214722,-85.89926910400391,38.43118667602539,9.81105709075928,0.02602037973702,0.88041049242020,0.83223354816437,-1.46197938919067,0.58211266994476
165,1259319714,5.85119342803955,-85.90719604492188,38.37281036376953,9.80900573730469,0.01577842235565,0.84833472967148,1.16124784946442,-1.52746462821960,0.53623384237289
166,1259336381,5.96034097671509,-85.91313934326172,38.27139663696289,9.81675815582275,0.01860760524869,0.86523920297623,1.07087361812592,-1.42250382900238,0.33922103047371
167,1259353048,6.04560136795044,-85.91932678222656,38.19119262695312,9.80926418304443,0.02081323787570,0.84466242790222,0.93580484390259,-1.43023872375488,0.43501251935959
168,1259369715,6.13346910476685,-85.92470550537109,38.10775375366211,9.80665493011475,0.02617289312184,0.83544749021530,0.93875026702881,-1.38889992237091,0.42169392108917
169,1259386382,6.27792215347290,-85.92840576171875,37.96928787231445,9.82609462738037,0.02312772907317,0.87907594442368,1.01308465003967,-1.31122291088104,0.17667640745640
170,1259403049,6.46537351608276,-85.92903137207031,37.79276657104492,9.82339000701904,0.02249256521463,0.87821614742279,1.29414570331573,-1.15097725391388,-0.00593574391678
171,1259419716,6.57849693298340,-85.93249511718750,37.69205093383789,9.86080932617188,0.06840223819017,0.79350018501282,1.34602403640747,-1.27558279037476,0.33012205362320
172,1259436383,6.62324094772339,-85.93302154541016,37.65316390991211,9.83502101898193,0.06775103509426,0.81655997037888,0.94968050718307,-1.07748150825500,0.57372444868088
173,1259453050,6.67399692535400,-85.93028259277344,37.60641860961914,9.81766891479492,0.08306706696749,0.80849725008011,0.86966651678085,-0.88657724857330,0.52070623636246
174,1259469717,6.74002981185913,-85.91932678222656,37.54105377197266,9.81810092926025,0.08318649232388,0.82236659526825,0.68613862991333,-0.40756848454475,0.38548395037651
175,1259486384,6.77479314804077,-85.91155242919922,37.49834823608398,9.79829978942871,0.09229833632708,0.82669037580490,0.23311398923397,-0.57382053136826,0.50670886039734
176,1259503051,6.79709053039551,-85.90825653076172,37.47060775756836,9.79883003234863,0.05880687013268,0.82129013538361,0.29755550622940,-0.84421372413635,0.59521347284317
177,1259519718,6.82086181640625,-85.90773010253906,37.43927764892578,9.79459190368652,0.05933376401663,0.85890555381775,0.15874750912189,-1.00698256492615,0.59842795133591
178,1259536385,6.90476417541504,-85.90633392333984,37.35076141357422,9.77993869781494,0.04383229464293,0.83691662549973,0.34340226650238,-0.99895286560059,0.35094517469406
179,1259553052,7.02379989624023,-85.90969085693359,37.22975158691406,9.78310871124268,0.03970150277019,0.86877143383026,0.51594859361649,-1.26864826679230,0.24410821497440
180,1259569719,7.10141563415527,-85.91884613037109,37.15259552001953,9.81845664978027,0.04831450060010,0.85577148199081,0.65206736326218,-1.61558520793915,0.47708135843277
181,1259586386,7.18352794647217,-85.92782592773438,37.07494354248047,9.82986450195312,0.03379363566637,0.85555398464203,0.88922166824341,-1.60703670978546,0.47459048032761
182,1259603053,7.24434709548950,-85.93846893310547,37.02505493164062,9.84655666351318,0.04982840269804,0.84561449289322,1.28536057472229,-1.68326032161713,0.60581725835800
183,1259619720,7.33641815185547,-85.95126342773438,36.94214248657227,9.81725978851318,0.05343983322382,0.81239432096481,1.17125606536865,-1.82251644134521,0.48208227753639
184,1259636387,7.44471263885498,-85.96362304687500,36.84564590454102,9.83694076538086,0.07203766703606,0.79614913463593,1.32955539226532,-1.80265390872955,0.42467138171196
185,1259653054,7.52008199691772,-85.97036743164062,36.77878570556641,9.84416294097900,0.06621975451708,0.80951815843582,1.10813331604004,-1.46891999244690,0.50696486234665
186,1259669721,7.54852533340454,-85.97718048095703,36.75630187988281,9.81709766387939,0.06726016849279,0.81400859355927,0.95753073692322,-1.44581770896912,0.69488531351089
187,1259686388,7.53255987167358,-85.98546600341797,36.77830123901367,9.81333065032959,0.07864562422037,0.81931316852570,0.95179337263107,-1.50562310218811,0.88991320133209
188,1259703055,7.56513547897339,-85.99156188964844,36.75021743774414,9.80517673492432,0.06927986443043,0.79685258865356,0.88231915235519,-1.40148210525513,0.66594302654266
189,1259719722,7.65678644180298,-85.99317169189453,36.66463851928711,9.80179691314697,0.06148820370436,0.79910427331924,0.93677169084549,-1.17007136344910,0.38895446062088
190,1259736389,7.75726127624512,-85.99459838867188,36.56716918945312,9.82989788055420,0.07479688525200,0.80349487066269,0.77607762813568,-1.16357862949371,0.33868956565857
191,1259753056,7.82598209381104,-85.99742889404297,36.49758529663086,9.81994724273682,0.06986583024263,0.81878256797791,0.52386289834976,-1.22560608386993,0.46419811248779
192,1259769723,7.87483787536621,-86.00276184082031,36.44858932495117,9.82016372680664,0.05734055489302,0.78271132707596,0.61574208736420,-1.35981011390686,0.57469767332077
193,1259786390,7.90033197402954,-86.00482940673828,36.42811203002930,9.83629417419434,0.06333331763744,0.78099757432938,1.00162315368652,-1.15325665473938,0.67436957359314
194,1259803057,7.93716764450073,-86.00374603271484,36.39582061767578,9.83689308166504,0.05552307516336,0.81642204523087,0.91836899518967,-0.97501796483994,0.59521353244781
195,1259819724,8.00210571289062,-86.00134277343750,36.33433914184570,9.81071853637695,0.05968081951141,0.83335989713669,0.80748522281647,-0.91925263404846,0.46033069491386
196,1259836391,8.07329177856445,-86.00286865234375,36.27022933959961,9.81048583984375,0.06412643194199,0.85820668935776,1.03259515762329,-1.15116286277771,0.48138430714607
197,1259853058,8.09912872314453,-86.00993347167969,36.25159072875977,9.79587078094482,0.05220223218203,0.85100132226944,1.05214393138885,-1.44283366203308,0.71558028459549
198,1259869725,8.13241481781006,-86.01931762695312,36.22362136840820,9.78143596649170,0.03107983805239,0.79520016908646,0.92213404178619,-1.59510135650635,0.69674229621887
199,1259886392,8.18851852416992,-86.02404022216797,36.17249298095703,9.78264045715332,0.04424220323563,0.79895961284637,0.96083486080170,-1.32716691493988,0.56840986013412
200,1259903059,8.24210834503174,-86.02600860595703,36.12290954589844,9.81303787231445,0.06181663647294,0.82921540737152,0.85542583465576,-1.16877794265747,0.54665184020996
201,1259919726,8.27488231658936,-86.03099060058594,36.08974838256836,9.84517955780029,0.04699680954218,0.86715734004974,0.56145602464676,-1.33231496810913,0.63698786497116
202,1259936393,8.31928443908691,-86.03691864013672,36.05075836181641,9.87888813018799,0.05252453684807,0.81792443990707,0.93933296203613,-1.39482283592224,0.62562865018845
203,1259953060,8.32163906097412,-86.03894042968750,36.05644226074219,9.89175987243652,0.07592058181763,0.75863867998123,1.10734593868256,-1.13991904258728,0.77683961391449
204,1259969727,8.31681346893311,-86.03089141845703,36.06108474731445,9.81267452239990,0.08059942722321,0.80608123540878,0.59469485282898,-0.54119634628296,0.68294334411621
205,1259986394,8.32584667205811,-86.02394104003906,36.04788970947266,9.80875873565674,0.06678893417120,0.80167442560196,0.35832166671753,-0.62162655591965,0.61996823549271
206,1260003061,8.25952148437500,-86.01582336425781,36.10376739501953,9.83279609680176,0.10292492061853,0.80095356702805,0.04972705245018,-0.48701906204224,0.89777630567551
207,1260019728,8.18904590606689,-86.00973510742188,36.15938568115234,9.79017353057861,0.08645421266556,0.81205052137375,-0.29932916164398,-0.62407261133194,0.90992945432663
208,1260036395,8.13332462310791,-86.00511932373047,36.20045471191406,9.77052116394043,0.04471181333065,0.83931779861450,-0.31258377432823,-0.72958409786224,0.86149591207504
209,1260053062,8.14190959930420,-86.00334930419922,36.17917633056641,9.75758361816406,0.00726011535153,0.84971374273300,-0.15426529943943,-0.92495149374008,0.63013005256653
210,1260069729,8.20086002349854,-86.00639343261719,36.10998153686523,9.79324913024902,0.01764775253832,0.87187862396240,0.05035457015038,-1.22698283195496,0.47476983070374
211,1260086396,8.25584125518799,-86.00993347167969,36.05525588989258,9.87079715728760,0.01092489529401,0.80597406625748,0.66151201725006,-1.26231539249420,0.54095304012299
212,1260103063,8.28300476074219,-86.00679016113281,36.02772903442383,9.88487815856934,0.03291642293334,0.81133860349655,0.59189665317535,-0.85271728038788,0.59283155202866
213,1260119730,8.28857326507568,-86.00360107421875,36.02762985229492,9.87293624877930,0.02917051874101,0.82330012321472,0.94829112291336,-0.81979852914810,0.70439404249191
214,1260136397,8.28383159637451,-86.00315856933594,36.04082489013672,9.85357570648193,0.05750558152795,0.79167759418488,1.08181643486023,-0.98987329006195,0.78149467706680
215,1260153064,8.30909729003906,-85.99958038330078,36.02021026611328,9.82069396972656,0.07895442843437,0.78783053159714,0.88146108388901,-0.81593739986420,0.61557567119598
216,1260169731,8.33385753631592,-85.99195098876953,35.99663925170898,9.77831554412842,0.10387180745602,0.79679018259048,0.70313262939453,-0.57448643445969,0.56930625438690
217,1260186398,8.35345649719238,-85.98239135742188,35.97320938110352,9.77467250823975,0.07985313236713,0.81918752193451,0.37872216105461,-0.46526107192039,0.55269634723663
218,1260203065,8.33044242858887,-85.97688293457031,35.98921585083008,9.79198741912842,0.05610372871161,0.82522362470627,0.18943794071674,-0.68853342533112,0.75321191549301
219,1260219732,8.28722190856934,-85.97167968750000,36.02544021606445,9.79736232757568,0.04992761835456,0.81383830308914,0.16629044711590,-0.68280255794525,0.83593451976776
220,1260236399,8.29001235961914,-85.96018218994141,36.01478958129883,9.80697917938232,0.05734806135297,0.82240253686905,0.07594165951014,-0.33691588044167,0.58171564340591
221,1260253066,8.37531566619873,-85.94189453125000,35.92067718505859,9.82268238067627,0.03215010464191,0.78971236944199,0.10183608531952,0.01345947198570,0.17999324202538
222,1260269733,8.51058387756348,-85.92110443115234,35.77539443969727,9.83589649200439,0.04121936485171,0.79744416475296,0.04634618014097,0.12774333357811,-0.05999134108424
223,1260286400,8.60761451721191,-85.90561676025391,35.66362762451172,9.85504055023193,0.06545890122652,0.83453297615051,-0.21093337237835,-0.16408774256706,0.12611052393913
224,1260303067,8.62310409545898,-85.88886260986328,35.63514709472656,9.87450599670410,0.07370563596487,0.80087733268738,-0.12066141515970,-0.03319405764341,0.46383953094482
225,1260319734,8.70890998840332,-85.85996246337891,35.53370285034180,9.84395027160645,0.04585055261850,0.79469048976898,-0.38156521320343,0.63367742300034,0.03165089339018
226,1260336401,8.93649768829346,-85.81741333007812,35.30107498168945,9.83709049224854,0.04137426987290,0.84460240602493,0.31978094577789,1.35678791999817,-0.66196018457413
227,1260353068,9.16906929016113,-85.78601837158203,35.06620788574219,9.81292915344238,0.11034459620714,0.88280743360519,0.49622675776482,0.68317383527756,-0.58318835496902
228,1260369735,9.24084854125977,-85.77636718750000,34.98301315307617,9.78657054901123,0.13970811665058,0.85998845100403,-0.05671931803226,-0.50477504730225,0.27809628844261
229,1260386402,9.19646549224854,-85.76705169677734,35.01394653320312,9.78735637664795,0.11486884951591,0.81921058893204,-0.19571945071220,-0.43282905220985,0.77619928121567
230,1260403069,9.13355731964111,-85.75001525878906,35.06152725219727,9.80294227600098,0.10097265243530,0.84645521640778,-0.32078620791435,0.02919207140803,0.77767193317413
231,1260419736,9.03666877746582,-85.72409820556641,35.14723205566406,9.82248306274414,0.13580611348152,0.84964114427567,-0.08142276853323,0.58001875877380,0.86309027671814
232,1260436403,8.86822891235352,-85.69351959228516,35.30335617065430,9.82894706726074,0.20286875963211,0.90379101037979,-0.18028138577938,0.90182316303253,1.13621783256531
233,1260453070,8.59568595886230,-85.67160797119141,35.55933380126953,9.83622360229492,0.16557861864567,0.86804902553558,-0.41675060987473,0.47222131490707,1.67346966266632
234,1260469737,8.29242420196533,-85.64968109130859,35.83803939819336,9.81216621398926,0.09296427667141,0.85308873653412,-0.86517775058746,0.46999299526215,1.79396462440491
235,1260486404,8.10300254821777,-85.63067626953125,35.99975967407227,9.75976467132568,0.08476536720991,0.88022571802139,-1.05014634132385,0.22475786507130,1.30164384841919
236,1260503071,7.98686408996582,-85.61917114257812,36.08964920043945,9.83318614959717,0.07329762727022,0.80168551206589,-0.97937840223312,-0.26852351427078,1.04223835468292
237,1260519738,7.90037298202515,-85.60230255126953,36.15210723876953,9.88343524932861,0.05829775705934,0.90834164619446,-0.88274168968201,0.02144423127174,0.87269502878189
238,1260536405,7.84997224807739,-85.58927154541016,36.17864990234375,9.83118915557861,0.00677015865222,0.90989685058594,-0.86609977483749,-0.21318088471889,0.73931050300598
239,1260553072,7.74506664276123,-85.57929229736328,36.27128982543945,9.86612892150879,0.06270318478346,0.79716223478317,-0.17853972315788,-0.35881471633911,1.06997048854828
240,1260569739,7.59831476211548,-85.55855560302734,36.39515686035156,9.82873821258545,0.09661285579205,0.82847994565964,-0.74958771467209,0.28738731145859,1.13982927799225
241,1260586406,7.48937082290649,-85.54047393798828,36.47763442993164,9.75997447967529,0.06286579370499,0.86017507314682,-0.96108448505402,0.11254220455885,0.97332096099854
242,1260603073,7.38211393356323,-85.52262878417969,36.56048965454102,9.74096965789795,0.06984791159630,0.86700767278671,-0.87419992685318,0.09531126171350,0.97714364528656
243,1260619740,7.29616117477417,-85.50878906250000,36.62236785888672,9.76531124114990,0.08600550144911,0.87682080268860,-0.84658932685852,-0.13961482048035,0.91061460971832
244,1260636407,7.25331926345825,-85.49985504150391,36.64302825927734,9.76296424865723,0.05758900940418,0.86604040861130,-0.74465721845627,-0.46949994564056,0.75781571865082
245,1260653074,7.24227857589722,-85.48928833007812,36.63114547729492,9.76897430419922,0.01014338433743,0.89397561550140,-0.75576043128967,-0.38894808292389,0.59728819131851
246,1260669741,7.31631851196289,-85.48238372802734,36.53794860839844,9.77218341827393,-0.02173618786037,0.92568337917328,-0.45719307661057,-0.65584516525269,0.25008240342140
247,1260686408,7.41965866088867,-85.48035430908203,36.42757034301758,9.80414867401123,-0.02558894827962,0.88185346126556,0.21554368734360,-0.96524661779404,0.20125180482864
248,1260703075,7.54913425445557,-85.47883605957031,36.29816055297852,9.81532192230225,0.01523028966039,0.88839429616928,0.67235898971558,-1.00091230869293,0.11621762812138
249,1260719742,7.68428134918213,-85.47896575927734,36.17187118530273,9.83713531494141,-0.01613170653582,0.89360231161118,1.12398779392242,-1.10469496250153,0.13754020631313
250,1260736409,7.79183053970337,-85.48291015625000,36.08818054199219,9.86043643951416,0.00489529315382,0.89729911088943,2.02688670158386,-1.28376615047455,0.36499381065369
251,1260753076,7.87779331207275,-85.48352050781250,36.02223587036133,9.85626316070557,0.04972461238503,0.88213187456131,1.80485653877258,-1.10016798973083,0.42699572443962
252,1260769743,7.98093891143799,-85.47757720947266,35.93960189819336,9.83880996704102,0.06595638394356,0.87835478782654,1.97568023204803,-0.70158308744431,0.30634710192680
253,1260786410,8.04618740081787,-85.45947265625000,35.89827728271484,9.86453819274902,0.15613026916981,0.87785607576370,2.04500722885132,0.04324704036117,0.38362699747086
254,1260803077,8.04668712615967,-85.43773651123047,35.90669631958008,9.82538986206055,0.17170211672783,0.90605252981186,1.12784242630005,0.27764168381691,0.58750408887863
255,1260819744,7.89006710052490,-85.42526245117188,36.06293106079102,9.82190704345703,0.12811714410782,0.88788318634033,0.54298919439316,-0.16328737139702,1.36432456970215
256,1260836411,7.64378166198730,-85.40411376953125,36.30126571655273,9.84122657775879,0.12302194535732,0.90057486295700,0.07653075456619,0.39442279934883,1.69027185440063
257,1260853078,7.42666530609131,-85.38175201416016,36.49780654907227,9.77522277832031,0.09033940732479,0.93677431344986,-0.66424620151520,0.45311427116394,1.49128675460815
258,1260869745,7.25971269607544,-85.35945129394531,36.65012359619141,9.78112506866455,0.08274585008621,0.93570810556412,-0.31208431720734,0.41145521402359,1.28990674018860
259,1260886412,7.09908819198608,-85.33255004882812,36.79095077514648,9.81032371520996,0.15603181719780,0.95378780364990,-0.57645219564438,0.68392950296402,1.21093642711639
260,1260903079,6.87556314468384,-85.30915069580078,36.97660827636719,9.81509685516357,0.08119446039200,0.96123766899109,-1.66116940975189,0.49472212791443,1.46616065502167
261,1260919746,6.59010744094849,-85.29268646240234,37.22880172729492,9.79017639160156,0.05817678570747,0.94397604465485,-1.44940352439880,0.11652498692274,1.84284675121307
262,1260936413,6.36587285995483,-85.28225708007812,37.42135620117188,9.80149936676025,0.02100934460759,0.94343286752701,-1.41814327239990,-0.28593379259109,1.59336614608765
263,1260953080,6.24962759017944,-85.27914428710938,37.50909042358398,9.77870941162109,-0.04486940801144,0.93636924028397,-1.10579633712769,-0.77251112461090,1.14191663265228
264,1260969747,6.24762296676636,-85.27735900878906,37.49754714965820,9.78757095336914,-0.04292733594775,0.90281105041504,-0.15132622420788,-0.91046100854874,0.66779989004135
265,1260986414,6.31346702575684,-85.27304077148438,37.43281936645508,9.80094242095947,-0.03441571816802,0.90256905555725,0.72129201889038,-0.78383183479309,0.38804516196251
266,1261003081,6.37972402572632,-85.25801849365234,37.37800598144531,9.82825183868408,0.01466447021812,0.91524714231491,1.30009436607361,-0.14271396398544,0.36115828156471
267,1261019748,6.36715602874756,-85.23827362060547,37.39159393310547,9.84624385833740,0.04331916570663,0.92780333757401,0.64147007465363,0.17903277277946,0.66162723302841
268,1261036415,6.26266431808472,-85.22537994384766,37.49300765991211,9.80791568756104,0.01532940845937,0.91557055711746,0.38792997598648,-0.19105152785778,1.14661657810211
269,1261053082,6.12150001525879,-85.21595001220703,37.63183212280273,9.81734752655029,0.01777530834079,0.89647120237350,0.42846846580505,-0.36413574218750,1.35581481456757
270,1261069749,6.02873468399048,-85.20241546630859,37.71947097778320,9.81700611114502,0.03410442173481,0.92882049083710,0.31534996628761,-0.15559713542461,1.08415353298187
271,1261086416,5.97173786163330,-85.18907928466797,37.76855087280273,9.80736923217773,0.01688236184418,0.93102419376373,0.09896107763052,-0.18959800899029,0.88888239860535
272,1261103083,5.89532899856567,-85.17375183105469,37.83111190795898,9.79752445220947,0.00381459575146,0.94454002380371,-0.19340790808201,-0.05604699254036,0.95221620798111
273,1261119750,5.80040931701660,-85.15686035156250,37.91035079956055,9.80146884918213,-0.00101097277366,0.97433286905289,-0.36070364713669,0.04125565662980,1.02286243438721
274,1261136417,5.70859622955322,-85.14272308349609,37.98498535156250,9.80553054809570,-0.00197207764722,0.97892749309540,-0.42392864823341,-0.12272323668003,1.02220928668976
275,1261153084,5.61063909530640,-85.12982940673828,38.06784820556641,9.82640171051025,-0.02712117135525,0.98368942737579,-0.33286902308464,-0.19676315784454,1.07029068470001
276,1261169751,5.50930070877075,-85.11930084228516,38.15625381469727,9.83179855346680,-0.00930467993021,0.97024923563004,-0.19340789318085,-0.33412402868271,1.11508715152740
277,1261186418,5.42439794540405,-85.10726928710938,38.22821044921875,9.83825397491455,-0.02822486683726,0.94664305448532,-0.12742316722870,-0.26438707113266,1.03420877456665
278,1261203085,5.34584045410156,-85.09192657470703,38.30168533325195,9.83616733551025,-0.02055575884879,0.96944981813431,0.27874299883842,-0.05142389982939,1.01551795005798
279,1261219752,5.26196146011353,-85.07495117187500,38.37750625610352,9.79282188415527,-0.01008956693113,0.95688652992249,0.10237395763397,0.04733226820827,1.02158808708191
280,1261236419,5.17226505279541,-85.05490112304688,38.45896911621094,9.81290912628174,0.01558186858892,0.98190248012543,0.09810943901539,0.23005326092243,1.03841567039490
281,1261253086,5.04068374633789,-85.03737640380859,38.58040237426758,9.83565711975098,-0.00866583734751,0.98023974895477,0.00185692054220,0.09799418598413,1.26375615596771
282,1261269753,4.93343639373779,-85.01964569091797,38.67868423461914,9.82179927825928,0.01261069346219,0.93426847457886,0.08654531091452,0.09677758067846,1.15001022815704
283,1261286420,4.89499282836914,-84.99575042724609,38.71051788330078,9.80651473999023,0.02667059749365,0.95746564865112,0.23037980496883,0.44023746252060,0.77370202541351
284,1261303087,4.87057113647461,-84.97145080566406,38.72541427612305,9.82694053649902,0.02313098683953,1.03996109962463,0.05641837045550,0.44865122437477,0.68555593490601
285,1261319754,4.79358577728271,-84.95306396484375,38.78988647460938,9.83624267578125,-0.01276649348438,1.09062075614929,-0.14599879086018,0.12575836479664,0.97443515062332
286,1261336421,4.62401247024536,-84.93550872802734,38.94937515258789,9.87925624847412,0.02526685036719,0.93437409400940,-0.04592357203364,0.11513549834490,1.48016417026520
287,1261353088,4.43723392486572,-84.89904022216797,39.11374282836914,9.85088825225830,0.00560584897175,0.94820141792297,-0.81053936481476,1.23662567138672,1.42280447483063
288,1261369755,4.29255008697510,-84.86820983886719,39.23270034790039,9.79304885864258,-0.00802359357476,0.97369742393494,-0.93886566162109,0.89187264442444,1.22394144535065
289,1261386422,4.17050361633301,-84.83032226562500,39.33340835571289,9.79532051086426,-0.00724910944700,0.98118931055069,-0.68091988563538,1.30318677425385,1.10297238826752
290,1261403089,4.10293579101562,-84.79813385009766,39.38537216186523,9.79459381103516,-0.04963133484125,1.00941574573517,-0.34215360879898,0.93944811820984,0.86949992179871
291,1261419756,4.10762548446655,-84.77655792236328,39.37631988525391,9.78768825531006,-0.07361964136362,1.02736949920654,0.32724064588547,0.28424975275993,0.58376467227936
292,1261436423,4.15035581588745,-84.75215911865234,39.33367156982422,9.76291370391846,-0.03639186918736,1.01723396778107,0.59472680091858,0.43959075212479,0.38617545366287
293,1261453090,4.16670370101929,-84.72864532470703,39.32413482666016,9.75175952911377,-0.03804143890738,0.98801344633102,1.01984655857086,0.41146805882454,0.57179075479507
294,1261469757,4.11122608184814,-84.70058441162109,39.40498352050781,9.82742023468018,0.04850010201335,0.99438059329987,2.10689449310303,0.68838614225388,1.05273962020874
295,1261486424,3.96433997154236,-84.65955352783203,39.55275726318359,9.86340427398682,0.07912790030241,1.02644467353821,0.62544941902161,1.51308310031891,1.37460803985596
296,1261503091,3.77271103858948,-84.62091064453125,39.73424530029297,9.84030151367188,0.03599294647574,1.06066012382507,-0.00993132498115,1.38197159767151,1.58919131755829
297,1261519758,3.64206361770630,-84.59046936035156,39.86514282226562,9.79291915893555,0.02591992728412,1.08873569965363,0.59242182970047,0.86966651678085,1.34629321098328
298,1261536425,3.59488272666931,-84.56422424316406,39.90279006958008,9.85278606414795,-0.02800286374986,1.07389473915100,0.02373016811907,0.58001244068146,0.84063446521759
299,1261553092,3.66466975212097,-84.52839660644531,39.84550094604492,9.87522792816162,-0.14364865422249,1.03575050830841,1.36854410171509,1.12261092662811,0.26490575075150
300,1261569759,3.78794693946838,-84.48331451416016,39.73765945434570,9.90268516540527,-0.06250691413879,1.12953639030457,1.56822085380554,1.64553284645081,-0.06395491957664
301,1261586426,3.93264913558960,-84.41721343994141,39.61347198486328,9.87368583679199,-0.01009032409638,1.02112150192261,1.89382851123810,2.91194605827332,-0.25594127178192
302,1261603093,3.89431476593018,-84.34009552001953,39.68864059448242,9.81068038940430,0.06555142253637,1.00706994533539,2.79362225532532,3.64192771911621,0.85187202692032
303,1261619760,3.63837981224060,-84.27648925781250,39.96114349365234,9.84208488464355,0.08934693038464,1.01915287971497,1.51693141460419,2.91498804092407,2.09319186210632
304,1261636427,3.31790924072266,-84.21527862548828,40.29308319091797,9.86456680297852,0.02300070226192,0.99642825126648,1.14917802810669,2.78748202323914,2.49043846130371
305,1261653094,3.07386970520020,-84.15528106689453,40.54119873046875,9.77283000946045,0.03370092809200,1.09501731395721,0.77132636308670,2.67272353172302,2.03120231628418
306,1261669761,2.93838953971863,-84.10250091552734,40.67548370361328,9.75589942932129,0.02971628867090,1.08256387710571,0.49962696433067,2.20776343345642,1.38437926769257
307,1261686428,2.85040688514709,-84.05347442626953,40.76037216186523,9.76216030120850,0.02653828449547,1.10202467441559,0.41537395119667,1.95887219905853,1.10723710060120
308,1261703095,2.73848962783813,-84.00459289550781,40.86540985107422,9.76756000518799,-0.01177582051605,1.10995328426361,0.15635272860527,1.95829594135284,1.23925769329071
309,1261719762,2.65128397941589,-83.96489715576172,40.95815658569336,9.74345493316650,-0.05930542200804,1.13569152355194,0.88662183284760,1.40269207954407,1.19576704502106
310,1261736429,2.57648873329163,-83.92943572998047,41.04716110229492,9.75811672210693,-0.00794919487089,1.11871373653412,1.39714097976685,1.14599549770355,1.18848705291748
311,1261753096,2.47020602226257,-83.89880371093750,41.14818954467773,9.79567050933838,-0.00360738928430,1.10398960113525,0.25132459402084,0.86932063102722,1.28755033016205
312,1261769763,2.33723545074463,-83.87477874755859,41.27420425415039,9.76418876647949,-0.02884877100587,1.14340460300446,0.13661812245846,0.46850743889809,1.47077083587646
313,1261786430,2.24451375007629,-83.86148071289062,41.36927413940430,9.71651744842529,-0.03197803720832,1.15757250785828,0.72983390092850,-0.17938494682312,1.30565857887268
314,1261803097,2.23449802398682,-83.86020660400391,41.38382720947266,9.73748874664307,-0.00772839179263,1.13092005252838,0.88669890165329,-0.91683858633041,0.81999063491821
315,1261819764,2.29782342910767,-83.86154174804688,41.32965850830078,9.81277942657471,-0.07794827967882,1.10659718513489,1.17032766342163,-1.10073137283325,0.38303151726723
316,1261836431,2.45786356925964,-83.86368560791016,41.19776916503906,9.81064319610596,-0.11643123626709,1.10182631015778,2.31572079658508,-1.16147828102112,-0.11514829099178
317,1261853098,2.68623924255371,-83.86675262451172,41.00202941894531,9.80406761169434,-0.06867299228907,1.17534017562866,2.63908123970032,-1.24063444137573,-0.51664018630981
318,1261869765,2.92130184173584,-83.87663269042969,40.80773162841797,9.74847984313965,0.00685008475557,1.16913282871246,3.11372971534729,-1.66344249248505,-0.48600098490715
319,1261886432,3.03554773330688,-83.89131164550781,40.71621322631836,9.77608203887939,0.14676466584206,1.16222274303436,1.98809599876404,-1.91032946109772,0.18697269260883
320,1261903099,2.97962331771851,-83.90693664550781,40.77046585083008,9.85446739196777,0.12116537988186,1.10347461700439,0.46315449476242,-1.91570842266083,1.11849391460419
321,1261919766,2.77999734878540,-83.90695953369141,40.94165802001953,9.91296768188477,0.05619686841965,1.20587241649628,-1.16033220291138,-0.95625019073486,1.81643354892731
322,1261936433,2.59156727790833,-83.89469146728516,41.09358596801758,9.85383605957031,0.05508345365524,1.28068840503693,-1.66475510597229,-0.21989141404629,1.65583539009094
323,1261953100,2.55934500694275,-83.89270019531250,41.08256912231445,9.82643699645996,0.02519190125167,1.22995114326477,-2.00275325775146,-0.88537347316742,0.64952534437180
324,1261969767,2.64362812042236,-83.89905548095703,40.96370697021484,9.79912662506104,0.03359872847795,1.29034161567688,-1.41939806938171,-1.41238021850586,-0.01114792749286
325,1261986434,2.75542807579041,-83.91001892089844,40.83043670654297,9.77640724182129,-0.01325981132686,1.23981344699860,-0.67616885900497,-1.69824349880219,-0.09569544345140
326,1262003101,2.84793949127197,-83.91236877441406,40.72105407714844,9.77636432647705,-0.03250209242105,1.19059789180756,-0.35218101739883,-1.17913830280304,0.04217131063342
327,1262019768,2.88502812385559,-83.90860748291016,40.66376495361328,9.86151409149170,-0.03186514228582,1.14804303646088,-0.60332632064819,-0.79522943496704,0.35027927160263
328,1262036435,2.88013911247253,-83.89626312255859,40.65309906005859,9.89399909973145,-0.02970755472779,1.13270998001099,-0.34976062178612,-0.26094859838486,0.61830341815948
329,1262053102,2.88925576210022,-83.87234497070312,40.63261413574219,9.89627075195312,-0.05440126359463,1.21345365047455,-0.09559299051762,0.42262232303619,0.52107751369476
330,1262069769,2.96847581863403,-83.83849334716797,40.55101013183594,9.85469341278076,-0.09310127049685,1.27636849880219,0.48948428034782,1.00125157833099,0.10003039240837
331,1262086436,3.08170652389526,-83.80786895751953,40.44405746459961,9.83741474151611,-0.04872486740351,1.16903483867645,1.02566063404083,0.79640132188797,-0.05878755077720
332,1262103103,3.23667168617249,-83.77577972412109,40.30075454711914,9.79020214080811,-0.02988779917359,1.16739320755005,1.33717501163483,0.87532687187195,-0.30998414754868
333,1262119770,3.39842486381531,-83.74473571777344,40.15334701538086,9.73681163787842,-0.04702736064792,1.19836747646332,1.47458732128143,0.79820704460144,-0.34645658731461
334,1262136437,3.52352333068848,-83.71591186523438,40.03992843627930,9.74047756195068,0.01326723396778,1.23232638835907,1.35775482654572,0.68686860799789,-0.11818340420723
335,1262153104,3.55217027664185,-83.69596862792969,40.01979446411133,9.77405166625977,0.04353682324290,1.23839151859283,1.11508727073669,0.18243925273418,0.51960486173630
336,1262169771,3.51810145378113,-83.68637084960938,40.05819702148438,9.74343395233154,0.04156566038728,1.22136640548706,0.83293765783310,-0.41050109267235,0.94067758321762
337,1262186438,3.49976968765259,-83.68154907226562,40.07725143432617,9.74026203155518,0.01336384844035,1.19080698490143,0.62275993824005,-0.70169192552567,0.83133703470230
338,1262203105,3.53483152389526,-83.67950439453125,40.04074859619141,9.77405548095703,0.00164746679366,1.18302989006042,0.54624843597412,-0.89078402519226,0.48012921214104
339,1262219772,3.62181067466736,-83.68118286132812,39.95415496826172,9.77850723266602,-0.01130446884781,1.19350004196167,0.60440212488174,-1.13657641410828,0.15484797954559
340,1262236439,3.71381545066833,-83.68826293945312,39.86131286621094,9.83292770385742,-0.04216776415706,1.15442776679993,0.56687945127487,-1.46334302425385,0.13968525826931
341,1262253106,3.81938004493713,-83.69180297851562,39.75875473022461,9.86640262603760,-0.09414606541395,1.18158054351807,0.78104650974274,-1.25474691390991,0.05981846526265
342,1262269773,3.95114326477051,-83.68521881103516,39.65301513671875,9.84770202636719,-0.06999006122351,1.16732871532440,2.18361091613770,-0.65512800216675,0.00098608899862
343,1262286440,4.20947360992432,-83.66559600830078,39.43861770629883,9.82837963104248,0.05075430124998,1.15307235717773,3.34172058105469,0.07637066394091,-0.76780468225479
344,1262303107,4.53484058380127,-83.65406036376953,39.15711975097656,9.78864955902100,0.07128291577101,1.19562351703644,3.33678460121155,-0.44788289070129,-1.18657875061035
345,1262319774,4.74192953109741,-83.65943908691406,38.98337173461914,9.86086463928223,0.11073122173548,1.21819961071014,2.64869260787964,-1.42433500289917,-0.39690724015236
346,1262336441,4.80683088302612,-83.67172241210938,38.94192504882812,9.81382179260254,0.14418911933899,1.20198535919189,1.99364769458771,-1.75507175922394,0.50976318120956
347,1262353108,4.87259531021118,-83.68298339843750,38.89134216308594,9.78611850738525,0.17395794391632,1.21216797828674,1.53402149677277,-1.69764184951782,0.44937485456467
348,1262369775,4.91944313049316,-83.70430755615234,38.84891510009766,9.74133777618408,0.23060916364193,1.27097535133362,0.88143539428711,-2.29430246353149,0.55602604150772
349,1262386442,4.87478256225586,-83.74201202392578,38.88198089599609,9.72900676727295,0.30010724067688,1.29013121128082,-0.10884757339954,-3.24133229255676,1.13534700870514
350,1262403109,4.75010251998901,-83.78649902343750,38.98372268676758,9.74180316925049,0.27739986777306,1.19377684593201,-0.80790793895721,-3.60325264930725,1.61139762401581
351,1262419776,4.58344364166260,-83.82099151611328,39.12212753295898,9.75114059448242,0.19745811820030,1.18917083740234,-1.17069888114929,-2.99068617820740,1.78332269191742
352,1262436443,4.36392402648926,-83.85366058349609,39.30980682373047,9.81033039093018,0.08946745842695,1.22387719154358,-1.38911771774292,-2.85191035270691,2.08175539970398
353,1262453110,4.20017099380493,-83.88195037841797,39.45393753051758,9.78929424285889,0.05037989094853,1.25754475593567,-0.68697738647461,-2.63132691383362,1.76645660400391
354,1262469777,4.14769363403320,-83.91343688964844,39.48857498168945,9.75539493560791,0.09685680270195,1.29260444641113,-0.50525528192520,-2.86920523643494,1.08157300949097
355,1262486444,4.15155982971191,-83.95373535156250,39.47563934326172,9.79532623291016,0.15524499118328,1.26350331306458,0.05330002680421,-3.41986465454102,0.81867146492004
356,1262503111,4.08833026885986,-83.98911285400391,39.53316497802734,9.88507938385010,0.18885135650635,1.24970269203186,0.22667877376080,-3.09425735473633,1.23904633522034
357,1262519778,3.96146965026855,-84.01192474365234,39.65818405151367,9.93432617187500,0.17755205929279,1.21568119525909,0.45692414045334,-2.30880546569824,1.60493648052216
358,1262536445,3.77705359458923,-84.01856994628906,39.86163330078125,9.90870666503906,0.11349917203188,1.19375240802765,1.68459200859070,-1.30633735656738,2.02298712730408
359,1262553112,3.56892895698547,-84.02525329589844,40.09778213500977,9.85783195495605,0.09893685579300,1.18119084835052,2.20609235763550,-1.31131899356842,2.22462296485901
360,1262569779,3.34904956817627,-84.04240417480469,40.35479736328125,9.85032272338867,0.10805267095566,1.08759868144989,2.71044445037842,-1.93401479721069,2.38394665718079
361,1262586446,3.08407568931580,-84.06422424316406,40.65282440185547,9.84861755371094,0.14630800485611,1.03610897064209,2.52844715118408,-2.19828009605408,2.65353941917419
362,1262603113,2.72367787361145,-84.08110046386719,41.04344558715820,9.85624313354492,0.15739735960960,1.00429153442383,2.28808522224426,-1.89259290695190,3.19412136077881
363,1262619780,2.25582647323608,-84.09054565429688,41.53760147094727,9.89131069183350,0.19350928068161,1.00013411045074,1.98907601833344,-1.42587184906006,3.79780626296997
364,1262636447,1.69109368324280,-84.08447265625000,42.11776733398438,9.87290096282959,0.25623539090157,1.00931143760681,1.31971371173859,-0.50798952579498,4.29249048233032
365,1262653114,1.05540621280670,-84.06981658935547,42.75720977783203,9.86710548400879,0.27313637733459,1.08226907253265,0.60326880216599,-0.02345483377576,4.65977048873901
366,1262669781,0.41039729118347,-84.04777526855469,43.40361785888672,9.81672954559326,0.25348380208015,1.07035887241364,0.48165971040726,0.37053897976875,4.72343063354492
367,1262686448,-0.21823616325855,-84.02509307861328,44.03193283081055,9.75746631622314,0.23242460191250,1.06505823135376,0.38695031404495,0.36556372046471,4.64138698577881
368,1262703115,-0.87025827169418,-84.01028442382812,44.67519760131836,9.79283428192139,0.23648676276207,1.10001671314240,-0.11078773438931,-0.14402022957802,4.75993490219116
369,1262719782,-1.55861139297485,-84.01345825195312,45.34182739257812,9.79892539978027,0.20814247429371,1.09381425380707,-0.89958852529526,-1.27357244491577,4.89810943603516
370,1262736449,-2.21118044853210,-84.03925323486328,45.96483612060547,9.82290554046631,0.16904754936695,1.07113444805145,-1.36935102939606,-2.67079663276672,4.56450319290161
371,1262753116,-2.90732026100159,-84.08132934570312,46.62791061401367,9.80132961273193,0.24322059750557,1.00597250461578,-1.60485994815826,-3.70543479919434,4.72585105895996
372,1262769783,-3.68204307556152,-84.13037872314453,47.35742950439453,9.76272010803223,0.24320168793201,1.03772342205048,-2.31256484985352,-4.19958066940308,5.04820013046265
373,1262786450,-4.49579334259033,-84.19708251953125,48.12590789794922,9.74493694305420,0.19941273331642,1.08223438262939,-2.33277297019958,-5.32313299179077,5.12097787857056
374,1262803117,-5.32077503204346,-84.27881622314453,48.91965103149414,9.70838546752930,0.10777434706688,1.12091720104218,-1.48836052417755,-6.30265331268311,5.07327508926392
375,1262819784,-6.15417098999023,-84.37384796142578,49.74409103393555,9.70895957946777,0.03434225544333,1.00128376483917,-0.16803853213787,-7.15626001358032,5.02431583404541
376,1262836451,-6.92304468154907,-84.46076965332031,50.53340148925781,9.73863792419434,-0.00410098116845,0.94130522012711,1.60946393013000,-6.71321153640747,4.70939493179321
377,1262853118,-7.67843818664551,-84.54342651367188,51.32532119750977,9.68469524383545,-0.00715062627569,0.94448071718216,2.57941699028015,-6.48779296875000,4.61380815505981
378,1262869785,-8.70751953125000,-84.63148498535156,52.40482330322266,9.68631553649902,0.07581298053265,0.88163882493973,3.36124467849731,-7.09969520568848,6.02303314208984
379,1262886452,-10.03124523162842,-84.71620941162109,53.78494262695312,9.69223117828369,0.02456311322749,0.92638027667999,3.65461349487305,-7.25997972488403,7.48582744598389
380,1262903119,-11.61648941040039,-84.79858398437500,55.41609954833984,9.61102962493896,-0.11893972009420,0.94560319185257,2.96395397186279,-7.54907178878784,8.57718563079834
381,1262919786,-13.31140422821045,-84.89392852783203,57.13567352294922,9.58798694610596,-0.18194179236889,0.98410916328430,1.69025361537933,-8.57080936431885,8.54306316375732
382,1262936453,-14.86196804046631,-84.99246215820312,58.69255447387695,9.65612888336182,-0.20798732340336,0.96872150897980,0.63461244106293,-8.74087429046631,7.27114629745483
383,1262953120,-16.28807258605957,-85.09759521484375,60.13226318359375,9.81068611145020,-0.05283973738551,0.89332371950150,1.03150701522827,-9.08249664306641,6.20795059204102
384,1262969787,-17.82541656494141,-85.20600891113281,61.66555786132812,9.87322807312012,-0.04200725257397,0.84405285120010,-0.02393507957458,-9.48416900634766,6.24633121490479
385,1262986454,-19.48072242736816,-85.30886077880859,63.30280685424805,9.98311805725098,-0.20372830331326,0.78132158517838,-0.88152545690536,-9.44676113128662,6.43515491485596
386,1263003121,-21.35615348815918,-85.39492034912109,65.15890502929688,10.05904579162598,-0.36620351672173,0.69751018285751,-0.98188251256943,-8.98175716400146,7.37135124206543
387,1263019788,-23.47935676574707,-85.42329406738281,67.23147583007812,10.18003845214844,-0.50477892160416,0.71733891963959,-2.89590120315552,-6.36714076995850,9.26366233825684
388,1263036455,-25.77408409118652,-85.39533996582031,69.43331909179688,10.17873859405518,-0.66533720493317,0.61560118198395,-5.44776725769043,-3.86933207511902,11.02565956115723
389,1263053122,-27.93591690063477,-85.33078765869141,71.44483184814453,9.86640262603760,-0.82115781307220,0.68465286493301,-8.86699485778809,-1.94219970703125,11.16766357421875
390,1263069789,-29.62146186828613,-85.28898620605469,72.96369171142578,9.46386623382568,-0.95035976171494,0.63328945636749,-9.75850105285645,-2.37728857994080,8.45734310150146
391,1263086456,-30.67527770996094,-85.29189300537109,73.85337829589844,9.19227313995361,-0.90760582685471,0.48077481985092,-9.48090934753418,-3.33900737762451,4.42375087738037
392,1263103123,-31.10622978210449,-85.33234405517578,74.12763977050781,9.34518146514893,-0.73878133296967,0.32892042398453,-8.91558551788330,-3.76837849617004,0.62734484672546
393,1263119790,-31.17733764648438,-85.35097503662109,74.03398132324219,9.61195945739746,-0.82931840419769,0.22640542685986,-9.33508205413818,-1.71705651283264,-0.25063952803612
394,1263136457,-31.61672401428223,-85.35189819335938,74.30426788330078,9.75310993194580,-0.93326103687286,0.25199270248413,-9.65017032623291,-1.71671080589294,1.81677329540253
395,1263153124,-32.39033508300781,-85.34840393066406,74.93680572509766,10.05943298339844,-0.98445975780487,0.19250614941120,-8.04414463043213,-2.44972729682922,3.43195557594299
396,1263169791,-33.05516052246094,-85.33003234863281,75.49395751953125,10.25419425964355,-0.99146676063538,0.19505107402802,-6.03431367874146,-1.53019249439240,3.59757924079895
397,1263186458,-33.70893096923828,-85.30139160156250,76.05241394042969,10.31607151031494,-0.91670483350754,0.31388723850250,-5.28758239746094,-1.05767011642456,3.94726276397705
398,1263203125,-34.39677429199219,-85.27254486083984,76.64375305175781,10.26692485809326,-0.96150875091553,0.35354107618332,-5.36275577545166,-1.17504048347473,4.10724067687988
399,1263219792,-35.01393508911133,-85.23568725585938,77.18704986572266,10.09854888916016,-1.06603515148163,0.38399603962898,-3.99980115890503,-0.70479106903076,4.19091653823853
400,1263236459,-35.72382736206055,-85.19282531738281,77.81472015380859,9.98885059356689,-1.03770959377289,0.47970962524414,-4.52401018142700,-0.70566838979721,4.76531362533569
401,1263253126,-36.42100906372070,-85.15023040771484,78.42510986328125,10.05320453643799,-1.09140861034393,0.56272250413895,-4.78706502914429,-0.72737514972687,4.71636772155762
402,1263269793,-37.13927841186523,-85.12284088134766,79.07923889160156,9.89196014404297,-1.14283132553101,0.60546606779099,-3.45099139213562,-1.66472303867340,4.35768699645996
403,1263286460,-37.79896926879883,-85.11064147949219,79.71568298339844,9.76275539398193,-1.18600690364838,0.63444662094116,-0.98418736457825,-2.37992596626282,3.73889136314392
404,1263303127,-38.38174057006836,-85.11617279052734,80.31331634521484,9.63508701324463,-1.10135722160339,0.69276916980743,1.29801321029663,-3.13538503646851,2.90560698509216
405,1263319794,-38.88524246215820,-85.13039398193359,80.85697174072266,9.51598644256592,-0.97495251893997,0.65500915050507,2.83645296096802,-3.37861585617065,2.34895348548889
406,1263336461,-39.21887588500977,-85.12572479248047,81.23448944091797,9.41878223419189,-0.77779716253281,0.61424565315247,3.08732938766479,-1.98500347137451,2.37547564506531
407,1263353128,-39.49671554565430,-85.11160278320312,81.54303741455078,9.35922622680664,-0.77187955379486,0.74180698394775,2.32062602043152,-1.32792246341705,2.46770691871643
408,1263369795,-39.78949737548828,-85.10367584228516,81.87007904052734,9.22343254089355,-0.77834182977676,0.70148998498917,2.52395892143250,-1.68504703044891,2.30253720283508
409,1263386462,-40.15784454345703,-85.11100006103516,82.24517822265625,9.12281322479248,-0.81238460540771,0.54703778028488,0.86025381088257,-2.55384874343872,1.89925837516785
410,1263403129,-40.62707138061523,-85.13111877441406,82.72076416015625,9.29507732391357,-0.88590598106384,0.36850845813751,0.82421678304672,-3.47689223289490,1.77560079097748
411,1263419796,-40.92340087890625,-85.14841461181641,83.00016784667969,9.56696605682373,-0.73302894830704,0.30461636185646,-0.53762978315353,-2.70126247406006,1.10398435592651
412,1263436463,-40.79247283935547,-85.15911865234375,82.82038116455078,9.72413349151611,-0.80048590898514,0.35592928528786,-2.35507488250732,-0.87432789802551,-0.39873853325844
413,1263453130,-40.22103118896484,-85.15402221679688,82.20239257812500,9.72991180419922,-0.83919620513916,0.36814907193184,-2.11488556861877,1.28533494472504,-1.46431005001068
414,1263469797,-39.44076156616211,-85.14594268798828,81.38557434082031,9.81050014495850,-0.88847512006760,0.47564569115639,-1.47670650482178,2.04193377494812,-2.15664672851562
415,1263486464,-38.55746841430664,-85.14885711669922,80.47143554687500,9.78894329071045,-0.89741617441177,0.54206889867783,-1.12778484821320,1.79345250129700,-3.00998544692993
416,1263503131,-37.61396026611328,-85.16770935058594,79.50080871582031,9.78496360778809,-0.88929152488708,0.45705822110176,-0.87821459770203,1.15121412277222,-3.85855960845947
417,1263519798,-36.49839782714844,-85.18521118164062,78.34936523437500,9.86419963836670,-0.90347677469254,0.28876858949661,-1.36901807785034,1.68087184429169,-4.55249738693237
418,1263536465,-35.13869094848633,-85.19796752929688,76.95719146728516,9.90303325653076,-0.89024144411087,0.28442838788033,-1.10993278026581,2.49746894836426,-5.40652751922607
419,1263553132,-33.72775650024414,-85.21479797363281,75.53527832031250,9.98987007141113,-0.88678103685379,0.18637749552727,0.16817297041416,2.20056605339050,-5.74868679046631
420,1263569799,-32.30804061889648,-85.22939300537109,74.14009857177734,10.00168514251709,-0.82868164777756,0.18003821372986,2.29925227165222,2.08200526237488,-5.61022567749023
421,1263586466,-30.79122734069824,-85.24799346923828,72.67682647705078,9.96216201782227,-0.87425327301025,0.19206516444683,4.05328702926636,1.87793624401093,-6.08289575576782
422,1263603133,-29.18564414978027,-85.27271270751953,71.15692901611328,10.00123214721680,-0.91738247871399,0.17843434214592,5.98758459091187,1.50490009784698,-6.55165958404541
423,1263619800,-27.34083747863770,-85.30389404296875,69.44043731689453,10.00256919860840,-0.89945656061172,0.27266210317612,8.58116817474365,1.36911475658417,-7.62840700149536
424,1263636467,-25.29754829406738,-85.34112548828125,67.53426361083984,9.92446708679199,-0.91103833913803,0.29847332835197,9.14038944244385,1.14862143993378,-8.63831043243408
425,1263653134,-23.17055892944336,-85.37174987792969,65.55748748779297,9.89359760284424,-0.99016702175140,0.29268285632133,9.94190883636475,1.29098320007324,-8.79292774200439
426,1263669801,-20.93527412414551,-85.38841247558594,63.45994567871094,9.78039169311523,-0.89437925815582,0.32653784751892,9.20091819763184,1.88495469093323,-9.06352424621582
427,1263686468,-18.67375755310059,-85.41175079345703,61.31727218627930,9.64625263214111,-0.81074732542038,0.31149154901505,8.08710479736328,1.19870686531067,-9.45908164978027
428,1263703135,-16.41586112976074,-85.44379425048828,59.18977737426758,9.69104576110840,-0.78951823711395,0.28496742248535,8.76741886138916,0.25631284713745,-9.56825733184814
429,1263719802,-14.28296184539795,-85.46663665771484,57.16619873046875,9.83066654205322,-0.65907669067383,0.23854418098927,7.47168254852295,0.24510723352432,-8.92878246307373
430,1263736469,-12.17220306396484,-85.45429229736328,55.14210510253906,9.88416004180908,-0.65219199657440,0.48588490486145,6.12034845352173,1.94970333576202,-8.47436904907227
431,1263753136,-9.81977081298828,-85.42269134521484,52.87607192993164,9.98891258239746,-0.77069270610809,0.61504310369492,6.15194272994995,2.94259309768677,-9.54043483734131
432,1263769803,-6.96277141571045,-85.36012268066406,50.14686203002930,10.07343006134033,-1.03865516185760,0.81959378719330,8.73624324798584,4.66396141052246,-11.75258445739746
433,1263786470,-3.64571309089661,-85.29551696777344,47.00741195678711,9.83279609680176,-1.18242752552032,1.26441097259521,11.81844425201416,4.30242681503296,-14.20166301727295
434,1263803137,-0.22320167720318,-85.27237701416016,43.78514099121094,9.51055240631104,-1.18666529655457,1.24772858619690,13.21522331237793,0.96087455749512,-15.12202167510986
435,1263819804,3.01714539527893,-85.23010253906250,40.79116821289062,9.39328765869141,-1.32333517074585,1.65943026542664,15.93217945098877,1.19249725341797,-14.21554565429688
436,1263836471,6.21199846267700,-85.13478088378906,37.99311828613281,9.37052059173584,-1.16164577007294,2.18725633621216,24.94300842285156,3.59825563430786,-13.80213546752930
437,1263853138,8.85191440582275,-84.87325286865234,35.98999786376953,9.16542720794678,-1.55080294609070,2.50243592262268,39.20986175537109,13.21687507629395,-11.72835063934326
438,1263869805,9.87841796875000,-84.27600860595703,35.79267883300781,8.16591453552246,-1.97332453727722,2.72356700897217,50.36425018310547,34.22143173217773,-6.24248552322388
439,1263886472,9.14556217193604,-83.31810760498047,37.52606582641602,6.41570281982422,-1.41987884044647,2.53666138648987,59.99110794067383,57.58056640625000,2.27010869979858
440,1263903139,7.00046920776367,-82.09284210205078,40.67175674438477,3.79998278617859,0.01429253630340,2.17518520355225,59.08718109130859,75.16837310791016,14.08546257019043
441,1263919806,3.79293775558472,-80.93661499023438,44.54331207275391,0.55444955825806,1.05225610733032,0.78794223070145,37.87236404418945,71.27793884277344,28.27974891662598
442,1263936473,-0.08858811110258,-79.86068725585938,48.34545135498047,-1.71581315994263,1.41897749900818,-2.89282345771790,-7.38328790664673,64.74393463134766,36.62457275390625
443,1263953140,-2.88508248329163,-78.52607727050781,50.73552322387695,-0.59257090091705,0.38199892640114,-2.37050414085388,-26.35775756835938,78.36510467529297,29.64677810668945
444,1263969807,-3.11315298080444,-77.10823059082031,50.94989395141602,-0.04887765645981,0.96185660362244,-0.16199094057083,-0.55664825439453,83.83862304687500,7.85958003997803
445,1263986474,-1.98321306705475,-76.26757049560547,49.72181320190430,0.30125981569290,1.61326515674591,-0.33899965882301,-3.47709131240845,50.16351318359375,-14.03616714477539
446,1264003141,-0.82349818944931,-75.33388519287109,48.31118392944336,2.21799492835999,1.68825244903564,0.13443949818611,-12.06121158599854,55.53796768188477,-18.71795845031738
447,1264019808,-0.30231741070747,-74.40581512451172,47.25970458984375,1.08866286277771,1.54373073577881,0.84814935922623,-29.26692771911621,54.86583709716797,-15.26976871490479
448,1264036475,0.26621183753014,-73.69006347656250,46.09527206420898,0.19903610646725,1.20249044895172,0.06065429002047,-32.72099304199219,41.96827316284180,-18.54662513732910
449,1264053142,1.40965092182159,-72.96944427490234,44.42690658569336,-0.04784918203950,1.09272134304047,1.06058859825134,-26.99235153198242,41.83254623413086,-28.71754455566406
450,1264069809,2.96440601348877,-72.23061370849609,42.46029663085938,-1.02499115467072,0.47238808870316,0.74664640426636,-19.04131507873535,41.96387863159180,-36.33435058593750
451,1264086476,4.49992990493774,-71.44137573242188,40.65483474731445,-2.28133034706116,-0.60562437772751,0.20806364715099,-10.61078739166260,44.06404495239258,-36.19723129272461
452,1264103143,5.69521999359131,-70.85697937011719,39.53752136230469,-1.91149020195007,-1.31617951393127,2.36824917793274,8.51139354705811,32.00887680053711,-24.09721565246582
453,1264119810,4.13420820236206,-70.24497985839844,40.17669677734375,3.70459485054016,1.14652812480927,6.61716127395630,-57.24204254150391,36.68833923339844,10.16607856750488
454,1264136477,-1.01152932643890,-69.68650817871094,43.29758453369141,21.25705718994141,9.73652935028076,13.37026882171631,-132.56803894042969,34.23991394042969,63.78599548339844
455,1264153144,-4.80346393585205,-67.66620635986328,45.01475143432617,31.48452758789062,8.53420162200928,7.32006597518921,-131.24153137207031,118.17268371582031,44.15875625610352
456,1264169811,-3.97714185714722,-67.28421020507812,44.70313644409180,20.25423049926758,-8.64905261993408,8.39128398895264,32.61308288574219,22.41850280761719,-4.76907300949097
457,1264186478,-4.14325189590454,-66.92596435546875,45.28649139404297,34.55751800537109,-5.17484426498413,6.57336902618408,22.76155853271484,19.48626899719238,15.78985595703125
458,1264203145,-5.36456060409546,-66.98043060302734,46.40309143066406,32.01086807250977,-3.00810956954956,11.66574859619141,-11.11667442321777,-6.40816259384155,26.55790710449219
459,1264219812,-6.66651916503906,-67.50553894042969,46.96529388427734,33.03453826904297,0.89288437366486,9.32420444488525,-46.52686309814453,-33.67727661132812,10.35095787048340
460,1264236479,-6.84435939788818,-68.44215393066406,46.14134979248047,37.41017532348633,2.16221547126770,6.17407655715942,-56.02077102661133,-54.59753799438477,-24.34306716918945
461,1264253146,-6.35144615173340,-69.53926086425781,44.80348587036133,37.98996734619141,0.05643654614687,5.74837017059326,-44.89358901977539,-63.04383468627930,-35.46952819824219
462,1264269813,-5.56150245666504,-70.53360748291016,43.52049255371094,38.44109344482422,-1.05309963226318,3.83847260475159,-24.52543067932129,-57.55804443359375,-31.65835762023926
463,1264286480,-5.09506225585938,-72.05954742431641,42.83383941650391,33.35532760620117,-1.29724752902985,6.31481552124023,-10.64980411529541,-90.87554168701172,-20.99856758117676
464,1264303147,-5.56419134140015,-73.98036193847656,43.23192596435547,32.91188049316406,-0.18336009979248,1.37930762767792,-5.02073955535889,-116.33298492431641,-3.13458108901978
465,1264319814,-6.63254213333130,-76.24461364746094,44.16365432739258,30.99826812744141,-2.03456258773804,-0.19178751111031,-9.84561920166016,-137.53312683105469,0.46625277400017
466,1264336481,-7.47543907165527,-78.53851318359375,44.96318054199219,28.52315521240234,-1.46191084384918,-1.78027367591858,-3.54311776161194,-138.80046081542969,-5.88350915908813
467,1264353148,-8.42030143737793,-80.61560821533203,45.82826232910156,20.02392959594727,-0.10578455030918,1.15234899520874,-5.43724632263184,-125.64093780517578,-7.29552555084229
468,1264369815,-9.02645874023438,-82.72562408447266,46.25036621093750,11.73319530487061,-0.79451262950897,3.89498805999756,-11.15576171875000,-126.62577819824219,-14.93524837493896
469,1264386482,-6.08076763153076,-83.74530792236328,42.96846008300781,4.13656425476074,-4.18201828002930,13.00674724578857,-18.28477668762207,-58.51073455810547,-30.31162261962891
470,1264403149,-0.23353055119514,-84.44638824462891,37.27093505859375,1.94867217540741,-3.60730290412903,17.77956771850586,11.30799293518066,-40.96330642700195,-36.68369674682617
471,1264419816,5.78433609008789,-82.63742065429688,31.91766929626465,2.36264729499817,-3.79137086868286,16.93797874450684,42.43975067138672,105.65932464599609,-40.59913253784180
472,1264436483,10.74947834014893,-81.13614654541016,28.39901924133301,-9.58188438415527,0.42036256194115,22.65423011779785,89.42633819580078,83.87422180175781,-41.71852111816406
473,1264453150,11.91711521148682,-80.58489227294922,26.81129264831543,-8.19307231903076,-2.00454020500183,15.69289493560791,-23.44327735900879,28.47527503967285,-20.63047218322754
474,1264469817,15.18710327148438,-82.24187469482422,23.87333106994629,-10.64311504364014,0.58041518926620,-5.39821767807007,22.40230560302734,-103.81772613525391,-1.58266496658325
475,1264486484,13.53404331207275,-83.20369720458984,25.21219062805176,-9.58303546905518,3.94127726554871,-6.92725086212158,-18.96534538269043,-54.40762710571289,24.87164497375488
476,1264503151,8.78690052032471,-84.61242675781250,29.53064727783203,4.58341979980469,5.01180410385132,-9.29337215423584,-26.63990974426270,-78.58653259277344,44.01534271240234
477,1264519818,0.99601745605469,-83.93434143066406,37.27598953247070,14.24046897888184,2.12325620651245,-4.61171960830688,-4.47186470031738,43.43552780151367,43.38535690307617
478,1264536485,-2.63169169425964,-83.23645019531250,40.62393188476562,10.06134796142578,-2.15497255325317,0.29370829463005,-17.47430038452148,40.58228683471680,23.73839378356934
479,1264553152,-2.63947343826294,-81.92605590820312,40.75947189331055,4.61494016647339,-2.54088807106018,1.54576039314270,8.15693092346191,77.54882049560547,5.38020992279053
480,1264569819,-1.26958858966827,-80.34606170654297,39.45812988281250,-0.67986607551575,-1.91130578517914,4.63025140762329,5.59299755096436,94.19904327392578,-8.07440090179443
481,1264586486,0.55618369579315,-79.20251464843750,37.63763809204102,-0.28774631023407,-1.20521950721741,4.57535839080811,2.59623146057129,67.75964355468750,-18.24878883361816
482,1264603153,2.58795928955078,-78.37513732910156,35.60172271728516,0.66193425655365,-1.50701117515564,3.60898399353027,2.62677550315857,47.99588394165039,-24.38790893554688
483,1264619820,4.10807228088379,-77.33147430419922,34.11185455322266,-0.73778581619263,-1.67518091201782,2.98332142829895,4.35958862304688,60.43535232543945,-21.72177505493164
484,1264636487,4.43797111511230,-76.30820465087891,33.71376037597656,-3.83974432945251,-0.44662967324257,2.47419929504395,-2.91069030761719,59.84929275512695,-9.29736328125000
485,1264653154,4.19041347503662,-75.47917938232422,33.82339859008789,-4.28315687179565,0.91798460483551,1.51882553100586,-7.92571926116943,48.74334335327148,-1.43593060970306
486,1264669821,4.24838399887085,-75.06021881103516,33.86997604370117,-3.89088511466980,1.21182548999786,0.34832447767258,6.72890567779541,24.14033126831055,-0.43178623914719
487,1264686488,4.29231643676758,-74.77367401123047,33.95352172851562,-0.76787751913071,1.60211384296417,-1.55392050743103,8.02219486236572,16.26629257202148,0.73100644350052
488,1264703155,3.82209014892578,-74.01342010498047,34.51948165893555,0.75432169437408,1.40641963481903,-1.10933506488800,5.04275512695312,45.17327499389648,6.59776496887207
489,1264719822,2.91704249382019,-73.15071868896484,35.48365402221680,1.59303665161133,1.10936856269836,-0.02003101259470,1.73721170425415,51.66160583496094,13.99374294281006
490,1264736489,1.89143025875092,-72.18277740478516,36.52001953125000,1.59077394008636,0.54055637121201,0.14947323501110,-1.63004517555237,57.83036041259766,16.78794288635254
491,1264753156,1.07449185848236,-71.21149444580078,37.28227233886719,1.25763976573944,-0.09812926501036,0.83476585149765,-5.04597568511963,57.66101837158203,13.56570529937744
492,1264769823,0.67950522899628,-70.41964721679688,37.61524200439453,1.12991535663605,-0.98849278688431,0.70366513729095,-4.28496170043945,46.63919067382812,6.55414342880249
493,1264786490,1.05319082736969,-69.75543212890625,37.27614593505859,0.74072057008743,-1.01922798156738,0.27958843111992,3.83794951438904,38.77976608276367,-6.81307983398438
494,1264803157,1.85380578041077,-69.18988800048828,36.54484558105469,-0.13998761773109,-0.88214749097824,0.12419449537992,7.48775386810303,32.56574249267578,-15.52571678161621
495,1264819824,2.49877715110779,-68.68666076660156,35.95523834228516,-0.43119204044342,-0.43654349446297,0.28868547081947,6.23076009750366,28.72742462158203,-13.13297939300537
496,1264836491,2.70021867752075,-68.33426666259766,35.71782684326172,-1.18924200534821,0.33354386687279,1.03452920913696,-0.62300425767899,19.92321014404297,-5.45588493347168
497,1264853158,2.43134713172913,-68.15721130371094,35.82954788208008,-1.24583470821381,0.17871613800526,0.69070190191269,-9.36128139495850,9.76342010498047,2.72265100479126
498,1264869825,1.78911972045898,-68.25919342041016,36.45030593872070,-1.48883366584778,-0.61413496732712,-0.76168489456177,-3.40694069862366,-6.56924200057983,14.75805950164795
499,1264886492,0.94297015666962,-68.54804229736328,37.42646408081055,-1.98008680343628,-0.52830278873444,-1.39186620712280,4.23201131820679,-17.77178955078125,22.67857360839844
500,1264903159,0.16910123825073,-68.84706115722656,38.33882522583008,-0.36713171005249,-1.13260340690613,0.68241554498672,5.11372423171997,-18.70385551452637,20.77556037902832
501,1264919826,0.23320728540421,-68.82890319824219,38.92872619628906,8.03951072692871,-2.14631175994873,11.71049690246582,37.04674530029297,0.17743296921253,13.34466075897217
502,1264936493,-0.60365128517151,-68.13299560546875,40.13419723510742,27.45055007934570,-0.89754104614258,17.68788909912109,17.25661849975586,40.70968246459961,27.22592926025391
503,1264953160,-1.78872251510620,-66.26011657714844,41.78903579711914,93.09830474853516,-3.83762478828430,41.64377212524414,20.63136863708496,110.57958221435547,41.37684631347656
504,1264969827,-5.28784847259521,-65.61236572265625,44.43936920166016,21.64088630676270,5.73083543777466,6.67451333999634,-64.33260345458984,33.82176208496094,67.75571441650391
505,1264986494,-7.35457181930542,-65.38632965087891,46.60247421264648,7.14611291885376,0.57609683275223,-1.15722012519836,-5.48600721359253,6.59986495971680,55.64004135131836
506,1265003161,-7.79415082931519,-66.20825195312500,47.12926864624023,27.03603935241699,-0.24876794219017,-0.68892395496368,2.86223363876343,-51.54071426391602,6.99849271774292
507,1265019828,-7.89404153823853,-66.88214874267578,46.90500640869141,26.64219856262207,0.02227966673672,2.10866236686707,-17.91321563720703,-40.26642608642578,-10.15815925598145
508,1265036495,-8.86074066162109,-67.22571563720703,47.29325485229492,26.22326850891113,0.17955467104912,4.41869878768921,-36.11552047729492,-22.65429306030273,6.65268564224243
509,1265053162,-9.09417152404785,-67.31682586669922,47.03609466552734,20.05698585510254,-0.45420211553574,6.31351041793823,-27.82011604309082,-5.39923048019409,-6.07424211502075
510,1265069829,-8.62648677825928,-67.38896942138672,46.29938888549805,14.48976135253906,-1.65067350864410,4.22630691528320,-12.33413887023926,-2.58319139480591,-16.82300186157227
511,1265086496,-7.72761964797974,-67.41833496093750,45.31085586547852,12.27788734436035,-0.81792467832565,4.01211118698120,-0.43272092938423,0.57181733846664,-22.14847373962402
512,1265103163,-6.66118431091309,-67.45537567138672,44.36574172973633,11.59025382995605,-1.25072264671326,4.55191755294800,12.00675964355469,-0.40851697325706,-21.20910835266113
513,1265119830,-5.61761856079102,-67.64491271972656,43.77491760253906,9.69636726379395,-2.25333881378174,4.60589551925659,30.23724365234375,-10.78804969787598,-14.02013111114502
514,1265136497,-4.35584592819214,-67.80393981933594,43.06949615478516,7.70699310302734,-2.01262092590332,4.13492536544800,36.92321014404297,-9.04219436645508,-16.15891838073730
515,1265153164,-2.97715091705322,-68.12037658691406,42.18238449096680,4.84944295883179,-1.20564937591553,2.92275881767273,33.76654052734375,-18.60266494750977,-20.49189567565918
516,1265169831,-1.94875395298004,-68.74645233154297,41.68457412719727,4.37140846252441,-0.71045011281967,1.51281976699829,34.31716156005859,-37.99142074584961,-11.92498016357422
517,1265186498,-1.39622652530670,-69.25585174560547,41.49323654174805,4.56638908386230,-0.37195852398872,1.34786331653595,22.83900451660156,-31.37072372436523,-4.33871841430664
518,1265203165,-0.81214445829391,-69.90536499023438,41.26333618164062,5.27001237869263,0.02154710143805,1.80586171150208,22.53111648559570,-39.80095672607422,-4.89252281188965
519,1265219832,-0.20429967343807,-70.51335906982422,40.93799591064453,4.91650152206421,1.05481827259064,2.52252483367920,18.52420997619629,-37.35757064819336,-6.25802755355835
520,1265236499,0.12655028700829,-71.05945587158203,40.74597167968750,5.01849174499512,1.40063500404358,3.24201822280884,9.38941287994385,-33.69944763183594,-3.13881754875183
521,1265253166,0.26720333099365,-71.60568237304688,40.65759277343750,6.04255914688110,1.02119910717010,3.58124113082886,3.84512257575989,-33.71632003784180,-0.90311396121979
522,1265269833,0.37737974524498,-72.13368225097656,40.53141403198242,7.65358495712280,0.08070907741785,3.82524371147156,-0.15436191856861,-32.63090133666992,-1.49543523788452
523,1265286500,0.68813043832779,-72.65019989013672,40.20561599731445,9.52846908569336,-0.51869130134583,3.97853350639343,0.44362634420395,-31.98231315612793,-4.94013690948486
524,1265303167,1.02634930610657,-73.19244384765625,39.90237045288086,10.60800075531006,-0.14779566228390,3.95377612113953,3.32547664642334,-33.55140686035156,-4.17228031158447
525,1265319834,1.32088053226471,-73.74510192871094,39.68736267089844,10.42892360687256,-0.01750686764717,3.85979509353638,5.72950744628906,-34.16791152954102,-2.30553030967712
526,1265336501,1.68333339691162,-74.30369567871094,39.45006561279297,10.14681911468506,-0.07710431516171,3.63841700553894,8.48744678497314,-34.54339218139648,-2.35130095481873
527,1265353168,2.23803567886353,-74.84433746337891,39.04883956909180,9.71320247650146,0.23783738911152,3.47326612472534,10.50212383270264,-33.58082199096680,-4.60110473632812
528,1265369835,2.77811384201050,-75.33474731445312,38.64715957641602,9.37718868255615,0.41902038455009,3.46519684791565,9.53605937957764,-30.61028480529785,-4.21879816055298
529,1265386502,3.13484811782837,-75.79419708251953,38.39539718627930,9.04937839508057,0.28817382454872,3.24117088317871,7.19986724853516,-28.66557312011719,-1.64917480945587
530,1265403169,3.34348702430725,-76.24259185791016,38.25044250488281,8.63798141479492,0.19755139946938,2.99577188491821,4.50992250442505,-27.92129898071289,0.11534713208675
531,1265419836,3.36011648178101,-76.67562103271484,38.23027801513672,8.54681301116943,-0.02827922627330,2.56501722335815,0.24862313270569,-26.89470672607422,1.92875659465790
532,1265436503,3.25198149681091,-77.08341217041016,38.26562118530273,8.90939807891846,-0.24116294085979,2.39605188369751,-4.00221109390259,-25.33334732055664,2.58164429664612
533,1265453170,3.17273616790771,-77.46685028076172,38.26211929321289,9.49167633056641,-0.11176031827927,2.28079319000244,-4.53579998016357,-23.91629028320312,1.93620240688324
534,1265469837,3.17359781265259,-77.81420898437500,38.18281936645508,9.80857658386230,0.11387527734041,2.19078636169434,-4.17514657974243,-21.80837059020996,0.82985943555832
535,1265486504,3.27561879158020,-78.12191009521484,38.00389862060547,10.03923511505127,0.13684193789959,2.12535452842712,-3.95054650306702,-19.49992179870605,-0.49983251094818
536,1265503171,3.42021083831787,-78.39152526855469,37.79360961914062,10.22762107849121,0.28208562731743,2.10108256340027,-3.25430846214294,-17.24045944213867,-0.92319166660309
537,1265519838,3.61791324615479,-78.61589050292969,37.53960418701172,10.11775684356689,0.35467043519020,2.10887241363525,-2.64515352249146,-14.56105995178223,-1.50875556468964
538,1265536505,3.85863208770752,-78.83219909667969,37.25350952148438,9.92179679870605,0.32021597027779,2.11343765258789,-1.96233129501343,-14.11076354980469,-1.80422389507294
539,1265553172,4.04563760757446,-79.05017089843750,37.01537704467773,9.78172016143799,0.32000985741615,2.09113073348999,-2.37367129325867,-14.17336177825928,-1.13489949703217
540,1265569839,4.15912914276123,-79.27235412597656,36.81618881225586,9.68894958496094,0.28161510825157,2.02535963058472,-4.49805498123169,-14.40020084381104,-0.58878523111343
541,1265586506,4.27725458145142,-79.49503326416016,36.59617996215820,9.71129131317139,0.17657390236855,1.98237502574921,-5.45686769485474,-14.44365596771240,-0.74201339483261
542,1265603173,4.37287807464600,-79.72474670410156,36.38360214233398,9.78236961364746,0.11817235499620,2.04022264480591,-6.37354087829590,-14.85236454010010,-0.55352294445038
543,1265619840,4.43383598327637,-79.94277191162109,36.18554687500000,9.84499740600586,0.03928085044026,1.92612195014954,-7.61465597152710,-14.14607906341553,-0.38693776726723
544,1265636507,4.50955581665039,-80.13504791259766,35.97747039794922,9.72018146514893,-0.04240242019296,1.86610996723175,-7.31123256683350,-12.60864734649658,-0.55061578750610
545,1265653174,4.63150739669800,-80.33610534667969,35.74993515014648,9.57834720611572,-0.06897402554750,1.71749818325043,-5.71013021469116,-13.15303134918213,-0.64560049772263
546,1265669841,4.78170919418335,-80.51805114746094,35.53495407104492,9.73783683776855,-0.02848502434790,1.68974876403809,-3.27068591117859,-11.99435043334961,-0.53829598426819
547,1265686508,4.95013141632080,-80.69099426269531,35.32334518432617,9.94068813323975,0.01857654005289,1.62372946739197,-1.98077809810638,-11.45566272735596,-0.48046240210533
548,1265703175,5.12539196014404,-80.86197662353516,35.13560867309570,9.99547672271729,0.12666192650795,1.48468363285065,-0.14968709647655,-11.31305122375488,-0.19183281064034
549,1265719842,5.28094673156738,-81.03586578369141,34.97299575805664,10.12012004852295,0.01284745894372,1.48953700065613,0.13778358697891,-11.47124958038330,0.12180125713348
550,1265736509,5.42046356201172,-81.22157287597656,34.83429336547852,10.17814922332764,-0.12230943143368,1.31247305870056,0.59904932975769,-12.15178489685059,0.46751525998116
551,1265753176,5.43665552139282,-81.37606811523438,34.79693984985352,10.18424224853516,-0.11886977404356,1.27284097671509,-0.80940645933151,-10.19824409484863,1.24280548095703
552,1265769843,5.37413311004639,-81.53269195556641,34.83847808837891,10.10993003845215,-0.01147506572306,1.22420608997345,-0.84751808643341,-10.25853443145752,1.95920538902283
553,1265786510,5.32129478454590,-81.66777801513672,34.85856246948242,9.98981094360352,0.06822717934847,1.22383916378021,-1.53701198101044,-8.99295902252197,1.63621640205383
554,1265803177,5.27440261840820,-81.76203155517578,34.85091018676758,9.95981884002686,-0.01793585158885,1.26464295387268,-2.81559801101685,-6.57252025604248,1.16279089450836
555,1265819844,5.26694297790527,-81.85681152343750,34.80627059936523,9.86138820648193,-0.06298840790987,1.42365527153015,-2.63255691528320,-6.63568115234375,0.85245472192764
556,1265836511,5.32222175598145,-81.97244262695312,34.71337509155273,9.73075389862061,0.08753779530525,1.35354804992676,-1.75228679180145,-7.91503572463989,0.56701403856277
557,1265853178,5.36066484451294,-82.09031677246094,34.61262893676758,9.71602821350098,0.07484575361013,1.28215742111206,-3.23900198936462,-8.06045341491699,0.53037506341934
558,1265869845,5.43611145019531,-82.20467376708984,34.47269439697266,9.73146438598633,-0.12197303771973,1.09124851226807,-3.34440493583679,-7.87795734405518,0.21092705428600
559,1265886512,5.54465341567993,-82.29467773437500,34.30815505981445,9.84919929504395,-0.15859401226044,1.08293151855469,-2.81311416625977,-6.44207572937012,-0.09856410324574
560,1265903179,5.70385074615479,-82.37439727783203,34.08257293701172,9.89001941680908,-0.11930619925261,1.15464818477631,-3.38983464241028,-5.87603378295898,-0.61601746082306
561,1265919846,5.88247251510620,-82.45173645019531,33.83446121215820,9.90936088562012,-0.10642054677010,1.13053011894226,-3.57183885574341,-5.74744606018066,-0.77603286504745
562,1265936513,6.02412891387939,-82.52189636230469,33.63002014160156,9.91766643524170,-0.05920387059450,1.11785697937012,-3.21044325828552,-5.29392147064209,-0.44926604628563
563,1265953180,6.10023593902588,-82.55162811279297,33.48715591430664,10.02015876770020,-0.03289874643087,1.14426803588867,-3.47247362136841,-2.82372975349426,-0.20927496254444
564,1265969847,6.18670463562012,-82.56053924560547,33.33419799804688,9.98687839508057,-0.03534274920821,1.18198847770691,-3.45464110374451,-1.59796369075775,-0.41534838080406
565,1265986514,6.24103546142578,-82.56565856933594,33.21757507324219,9.84462738037109,-0.00494775734842,1.20725595951080,-3.19565820693970,-1.33657312393188,-0.15407320857048
566,1266003181,6.25042772293091,-82.56951904296875,33.14846420288086,9.83431243896484,-0.12137778103352,1.24612295627594,-3.09536504745483,-1.22489523887634,0.20036812126637
567,1266019848,6.30287122726440,-82.55473327636719,33.04322814941406,9.90765190124512,-0.08333819359541,1.35086774826050,-2.62979674339294,-0.14624851942062,-0.19515596330166
568,1266036515,6.38775205612183,-82.53496551513672,32.90526199340820,9.85289764404297,-0.09024206548929,1.40380322933197,-2.65809226036072,0.12977956235409,-0.49023348093033
569,1266053182,6.41136312484741,-82.51418304443359,32.82587051391602,9.70962333679199,0.03144624829292,1.35759806632996,-2.85995864868164,0.23631557822227,-0.04735147580504
570,1266069849,6.29317951202393,-82.45839691162109,32.83594512939453,9.70307922363281,0.00203205551952,1.32891750335693,-6.03079891204834,2.39862966537476,0.41769197583199
571,1266086516,6.25568914413452,-82.43107604980469,32.80305862426758,9.75624084472656,-0.05269613489509,1.37231707572937,-3.74788117408752,0.67245501279831,0.27128332853317
572,1266103183,6.28390073776245,-82.43083953857422,32.71635818481445,9.82983875274658,0.08154199272394,1.28342163562775,-2.98222184181213,-0.99886351823807,0.03119627200067
573,1266119850,6.33669185638428,-82.41617584228516,32.61728668212891,9.82618236541748,0.17828798294067,1.21640837192535,-2.26425242424011,-0.15097406506538,-0.16521471738815
574,1266136517,6.40278673171997,-82.40591430664062,32.49954605102539,9.90198230743408,0.22397562861443,1.24851310253143,-2.57945537567139,-0.42273765802383,-0.28725925087929
575,1266153184,6.49161815643311,-82.39416503906250,32.35979080200195,9.94183540344238,0.16825523972511,1.32284545898438,-2.52357435226440,-0.36433425545692,-0.47154900431633
576,1266169851,6.56030178070068,-82.39875793457031,32.23898315429688,9.79335880279541,0.18852126598358,1.37732636928558,-2.60020756721497,-1.31105637550354,-0.21247653663158
577,1266186518,6.53397083282471,-82.39165496826172,32.20553207397461,9.81711292266846,0.19792468845844,1.27898800373077,-3.10429167747498,-0.54179191589355,0.39772683382034
578,1266203185,6.45573282241821,-82.37950134277344,32.21429061889648,9.85031795501709,0.05405329540372,1.31522095203400,-3.71989274024963,-0.20728999376297,0.69507747888565
579,1266219852,6.42637300491333,-82.35494232177734,32.17478942871094,9.89772033691406,0.02262845635414,1.34194839000702,-3.65642452239990,0.49359515309334,0.23115463554859
580,1266236519,6.40869474411011,-82.30624389648438,32.13024902343750,9.83403110504150,0.05785964056849,1.33883357048035,-3.24824738502502,1.92555010318756,0.02894235402346
581,1266253186,6.40956354141235,-82.27145385742188,32.08631134033203,9.75868415832520,0.00155346537940,1.41015195846558,-2.09120655059814,1.11031055450439,0.12440089136362
582,1266269853,6.39834213256836,-82.25061035156250,32.06915283203125,9.73928737640381,0.02284662239254,1.36915683746338,-1.21906208992004,0.28561362624168,0.43455150723457
583,1266286520,6.37724161148071,-82.23398590087891,32.07578659057617,9.76024913787842,-0.02150730974972,1.39181697368622,-0.38515096902847,0.06726536154747,0.65543544292450
584,1266303187,6.36482429504395,-82.22249603271484,32.10487747192383,9.75891113281250,0.00519788637757,1.37749361991882,1.43461847305298,-0.22737033665180,0.86634951829910
585,1266319854,6.35687637329102,-82.20149993896484,32.14326858520508,9.73808002471924,-0.01376039907336,1.38931870460510,2.26687741279602,0.35250759124756,0.87991148233414
586,1266336521,6.39416551589966,-82.16637420654297,32.13820266723633,9.76742553710938,-0.03440454602242,1.39336884021759,2.38095664978027,1.14734637737274,0.43279060721397
587,1266353188,6.50497007369995,-82.14087677001953,32.07460403442383,9.83768367767334,0.01691917888820,1.34808778762817,3.32806324958801,0.53796917200089,0.01727576553822
588,1266369855,6.60663175582886,-82.12899780273438,32.03728485107422,9.77767276763916,0.10742154717445,1.32807278633118,4.34691715240479,-0.26242774724960,0.32352042198181
589,1266386522,6.65950632095337,-82.12855529785156,32.06304931640625,9.71500015258789,0.15072096884251,1.34417521953583,5.16023635864258,-0.88926017284393,0.91622400283813
590,1266403189,6.69474840164185,-82.12934112548828,32.10431289672852,9.75710105895996,0.12781457602978,1.34371876716614,5.04335260391235,-0.94514715671539,1.05343127250671
591,1266419856,6.68234872817993,-82.12914276123047,32.19643020629883,9.76272583007812,0.12998184561729,1.45001173019409,5.18293523788452,-0.83048552274704,1.45681226253510
592,1266436523,6.67845344543457,-82.13910675048828,32.28034210205078,9.79719543457031,0.10049653798342,1.48463845252991,5.20464181900024,-1.45260500907898,1.46082043647766
593,1266453190,6.69238710403442,-82.16243743896484,32.34660720825195,9.76857662200928,0.06774877756834,1.45646321773529,5.22720623016357,-2.25993037223816,1.41004312038422
594,1266469857,6.75780010223389,-82.18588256835938,32.36521530151367,9.75824737548828,0.10235521942377,1.42202448844910,5.48352622985840,-2.31726431846619,1.02325308322906
595,1266486524,6.90144968032837,-82.21313476562500,32.30132293701172,9.78285884857178,0.13442577421665,1.46663475036621,5.27862453460693,-2.62136435508728,0.38725125789642
596,1266503191,7.08553743362427,-82.26053619384766,32.19942855834961,9.75729274749756,0.09499824792147,1.44320034980774,5.44030427932739,-3.86688423156738,0.23568809032440
597,1266519858,7.25498771667480,-82.32164001464844,32.12101364135742,9.73010826110840,0.14747247099876,1.43615233898163,5.95114326477051,-4.64911556243896,0.53751462697983
598,1266536525,7.39099454879761,-82.38516235351562,32.06744003295898,9.72570610046387,0.18234854936600,1.41963386535645,5.41833496093750,-4.76713848114014,0.76726043224335
599,1266553192,7.52214479446411,-82.44391632080078,32.00751876831055,9.75743198394775,0.11865079402924,1.37121593952179,4.74430465698242,-4.49988889694214,0.69438594579697
600,1266569859,7.69544792175293,-82.51153564453125,31.90015220642090,9.78949737548828,-0.00013016565936,1.46015417575836,4.46580505371094,-5.06818389892578,0.40931659936905
601,1266586526,7.92009687423706,-82.59559631347656,31.75677108764648,9.77283763885498,0.02848450280726,1.47794747352600,5.40515136718750,-6.07788848876953,0.28956440091133
602,1266603193,8.14942169189453,-82.68498992919922,31.61911201477051,9.84100055694580,0.12903663516045,1.32321894168854,6.02640724182129,-6.40781259536743,0.41411262750626
603,1266619860,8.34791469573975,-82.76285552978516,31.50278663635254,9.87970638275146,0.12009912729263,1.36782300472260,5.43634843826294,-5.68887042999268,0.50408363342285
604,1266636527,8.52472305297852,-82.83489227294922,31.40899085998535,9.86275672912598,0.08799079060555,1.34837365150452,5.47221851348877,-5.31050586700439,0.64345514774323
605,1266653194,8.62528896331787,-82.89880371093750,31.38878059387207,9.79632186889648,0.10835079848766,1.38659024238586,5.28338146209717,-4.75508785247803,1.13262557983398
606,1266669861,8.69234180450439,-82.96402740478516,31.40180587768555,9.80612754821777,0.12381548434496,1.40883481502533,5.25114774703979,-4.78737211227417,1.39279949665070
607,1266686528,8.75231266021729,-83.02315521240234,31.41495704650879,9.77990722656250,0.11971497535706,1.36060726642609,4.82707214355469,-4.43704223632812,1.34199047088623
608,1266703195,8.84077262878418,-83.07769012451172,31.40089607238770,9.78061294555664,0.18349611759186,1.30757975578308,4.91833066940308,-4.18571138381958,1.10870981216431
609,1266719862,8.90523242950439,-83.13162231445312,31.40350532531738,9.76179504394531,0.18244624137878,1.33211672306061,4.47620439529419,-4.13550996780396,1.22761678695679
610,1266736529,8.93399143218994,-83.17711639404297,31.43206024169922,9.83902168273926,0.17799310386181,1.32275927066803,3.87493968009949,-3.59670257568359,1.33239209651947
611,1266753196,8.94719409942627,-83.20003509521484,31.46410751342773,9.84982299804688,0.21261732280254,1.32404065132141,3.14109063148499,-2.26104474067688,1.14634776115417
612,1266769863,8.99360466003418,-83.22097778320312,31.44549751281738,9.80571746826172,0.19074900448322,1.33253836631775,2.11814498901367,-2.20418453216553,0.77534770965576
613,1266786530,9.01905345916748,-83.25314331054688,31.43606185913086,9.82550430297852,0.13749930262566,1.30852985382080,1.41736197471619,-2.84177994728088,0.94387269020081
614,1266803197,8.97380638122559,-83.27626037597656,31.49703216552734,9.87594413757324,0.15325465798378,1.26450169086456,1.36670005321503,-2.23980498313904,1.34982132911682
615,1266819864,8.87301635742188,-83.26422882080078,31.58937263488770,9.93410110473633,0.16938699781895,1.23496556282043,-0.09934526681900,-0.12392064183950,1.23746478557587
616,1266836531,8.80362892150879,-83.22436523437500,31.64007949829102,9.90989494323730,0.13961252570152,1.25564575195312,-0.68373107910156,1.48109936714172,0.69681274890900
617,1266853198,8.77492237091064,-83.18871307373047,31.64865875244141,9.84283924102783,0.16835722327232,1.29549121856689,-0.76418685913086,1.19383347034454,0.44023108482361
618,1266869865,8.76094818115234,-83.16115570068359,31.63546943664551,9.77269744873047,0.14799736440182,1.34179723262787,-1.16858577728271,0.68625384569168,0.36387965083122
619,1266886532,8.71039772033691,-83.13978576660156,31.65272903442383,9.76904964447021,0.09064611792564,1.29700374603271,-1.55345487594604,0.34718012809753,0.63647556304932
620,1266903199,8.65031909942627,-83.12103271484375,31.67574119567871,9.82825660705566,0.08020982891321,1.32468104362488,-1.77857756614685,0.19304288923740,0.70393937826157
621,1266919866,8.58869075775146,-83.10530853271484,31.70209884643555,9.86241722106934,0.11573312431574,1.32475531101227,-1.68174898624420,0.02434486895800,0.75437074899673
622,1266936533,8.52942752838135,-83.08261871337891,31.72593498229980,9.80240726470947,0.15474343299866,1.32981824874878,-1.68347764015198,0.43706783652306,0.67581653594971
623,1266953200,8.50332546234131,-83.06036376953125,31.71111106872559,9.79512596130371,0.11967919766903,1.31266796588898,-2.00125455856323,0.37148657441139,0.40348964929581
624,1266969867,8.52770614624023,-83.04210662841797,31.64574241638184,9.77243804931641,0.12261945754290,1.28206872940063,-1.97752439975739,0.07681248337030,0.07787541300058
625,1266986534,8.54857444763184,-83.03185272216797,31.58510017395020,9.77460384368896,0.09038614481688,1.31432604789734,-1.91202628612518,-0.39416661858559,0.18134431540966
626,1267003201,8.55069637298584,-83.03080749511719,31.55032348632812,9.75771522521973,0.04382682964206,1.35073697566986,-1.47766077518463,-0.90816235542297,0.45020088553429
627,1267019868,8.53298187255859,-83.03807067871094,31.54017066955566,9.80654335021973,0.07323641330004,1.38305699825287,-1.22164237499237,-1.37576699256897,0.69899612665176
628,1267036535,8.50673961639404,-83.04791259765625,31.53606605529785,9.79737758636475,0.05867407470942,1.35069119930267,-1.38873982429504,-1.52717638015747,0.76394999027252
629,1267053202,8.51878070831299,-83.06090545654297,31.50259780883789,9.76837348937988,0.06511551886797,1.33986675739288,-0.82260942459106,-1.74575507640839,0.58428972959518
630,1267069869,8.56833362579346,-83.07522583007812,31.43826866149902,9.75525283813477,0.05929630994797,1.42003524303436,-0.41242849826813,-1.85407769680023,0.37404143810272
631,1267086536,8.66778373718262,-83.09371185302734,31.33647727966309,9.78633117675781,0.10393733531237,1.39621019363403,0.35214263200760,-2.14762496948242,0.14785571396351
632,1267103203,8.74083614349365,-83.11421966552734,31.26032066345215,9.86170864105225,0.13648617267609,1.21502339839935,0.29915633797646,-2.24063110351562,0.35413402318954
633,1267119870,8.73550224304199,-83.12094116210938,31.25213241577148,9.82629776000977,0.13364331424236,1.24860882759094,-0.35457584261894,-1.33643865585327,0.70970231294632
634,1267136537,8.69597434997559,-83.12488555908203,31.28484535217285,9.83243656158447,0.14243727922440,1.26272666454315,0.02572795748711,-1.13115286827087,0.97604876756668
635,1267153204,8.64001846313477,-83.13101959228516,31.32692527770996,9.82741832733154,0.15073373913765,1.31429302692413,-0.41663539409637,-1.26444137096405,1.06131339073181
636,1267169871,8.62051296234131,-83.14659881591797,31.33516311645508,9.79719257354736,0.10965871810913,1.28073048591614,-0.22443766891956,-1.84479928016663,0.90636932849884
637,1267186538,8.61159133911133,-83.16485595703125,31.33818626403809,9.77368259429932,0.09732241183519,1.29642510414124,0.09595798701048,-2.02434468269348,0.89575296640396
638,1267203205,8.64490890502930,-83.18554687500000,31.30582427978516,9.77768516540527,0.05476371198893,1.32028055191040,0.53141230344772,-2.19415688514709,0.66704434156418
639,1267219872,8.69444370269775,-83.20520019531250,31.26128768920898,9.78964614868164,0.07249190658331,1.34239554405212,0.76745903491974,-2.15155005455017,0.57348114252090
640,1267236539,8.71752548217773,-83.23308563232422,31.23656845092773,9.78269386291504,0.09140267968178,1.32859361171722,0.35719469189644,-2.61913537979126,0.78828203678131
641,1267253206,8.72783279418945,-83.26891326904297,31.22166252136230,9.76987457275391,0.04731452465057,1.32350134849548,0.17893670499325,-3.08205294609070,0.93083590269089
642,1267269873,8.73712730407715,-83.30892181396484,31.22383117675781,9.75773525238037,0.06471528857946,1.32003474235535,1.12568449974060,-3.29926109313965,1.08515226840973
643,1267286540,8.76632881164551,-83.34893035888672,31.21479797363281,9.75701236724854,0.06443441659212,1.34308493137360,1.65939581394196,-3.32618761062622,1.01203477382660
644,1267303207,8.81300258636475,-83.39015960693359,31.18955421447754,9.78932666778564,0.12011902034283,1.30111253261566,1.75325369834900,-3.41047883033752,0.91534686088562
645,1267319874,8.84649372100830,-83.43323516845703,31.17350196838379,9.77146530151367,0.10648541152477,1.30491399765015,1.51310884952545,-3.51117515563965,0.99835765361786
646,1267336541,8.88039207458496,-83.48344421386719,31.15053558349609,9.79218864440918,0.08874648064375,1.26887273788452,1.11338412761688,-3.93734455108643,1.01778471469879
647,1267353208,8.91743183135986,-83.53231048583984,31.11986923217773,9.82699489593506,0.05142755433917,1.22779965400696,0.84642302989960,-3.86844682693481,0.95735168457031
648,1267369875,8.95162582397461,-83.57266998291016,31.09954833984375,9.82820606231689,0.05357629060745,1.22548663616180,1.28898477554321,-3.34280967712402,0.94850242137909
649,1267386542,9.01331138610840,-83.60536956787109,31.05152511596680,9.81010055541992,0.06484634429216,1.21427214145660,1.29487562179565,-2.92666697502136,0.69806128740311
650,1267403209,9.11199951171875,-83.63600921630859,30.96347427368164,9.82229995727539,0.06711569428444,1.23687028884888,1.13447618484497,-2.84370756149292,0.42118802666664
651,1267419876,9.20161056518555,-83.67020416259766,30.88338661193848,9.82151317596436,0.04663174226880,1.24221098423004,1.05374491214752,-3.05758619308472,0.51372671127319
652,1267436543,9.28054618835449,-83.71038818359375,30.81842803955078,9.78584384918213,0.00993091706187,1.19077479839325,1.31511628627777,-3.38250279426575,0.67314660549164
653,1267453210,9.37510585784912,-83.74774932861328,30.74741172790527,9.80509471893311,-0.00843517947942,1.18024778366089,1.87508654594421,-3.22931337356567,0.61314886808395
654,1267469877,9.45464801788330,-83.78463745117188,30.69419860839844,9.78586387634277,-0.00753473164514,1.22715497016907,2.05613636970520,-3.17530274391174,0.72969299554825
655,1267486544,9.50449848175049,-83.82797241210938,30.67078781127930,9.80893898010254,0.05096664279699,1.22301983833313,2.05167961120605,-3.53263783454895,0.99050712585449
656,1267503211,9.49952220916748,-83.87181091308594,30.70308113098145,9.80938243865967,0.02690423280001,1.18777823448181,2.10109949111938,-3.49287438392639,1.34999418258667
657,1267519878,9.46479415893555,-83.92058563232422,30.77486228942871,9.78791713714600,0.01495523564517,1.21145546436310,2.65293741226196,-3.75049924850464,1.64333641529083
658,1267536545,9.41067314147949,-83.96925354003906,30.86748313903809,9.78550910949707,0.04561182856560,1.16702950000763,2.73585891723633,-3.72278690338135,1.76663601398468
659,1267553212,9.36255836486816,-84.01590728759766,30.95433235168457,9.74893856048584,0.03809124231339,1.10901999473572,2.74616789817810,-3.61479067802429,1.70416653156281
660,1267569879,9.29379367828369,-84.05403900146484,31.06096267700195,9.81088447570801,0.07699453085661,1.14667451381683,2.68834090232849,-3.08896851539612,1.73657298088074
661,1267586546,9.24022006988525,-84.09774017333984,31.14954948425293,9.89913845062256,0.11147060990334,1.17637324333191,2.54208636283875,-3.43067455291748,1.67239415645599
662,1267603213,9.21660614013672,-84.15299987792969,31.21331596374512,9.90340900421143,0.08395184576511,1.08591210842133,2.84662795066833,-4.15861892700195,1.63095927238464
663,1267619880,9.14607620239258,-84.19651031494141,31.32165908813477,9.85737609863281,0.08587774634361,1.00172877311707,2.68075990676880,-3.40664291381836,1.77506911754608
664,1267636547,9.07144927978516,-84.22602844238281,31.43135261535645,9.82392406463623,0.05369935557246,1.01359534263611,2.53058648109436,-2.58180522918701,1.64603865146637
665,1267653214,8.97899913787842,-84.24639892578125,31.56295394897461,9.81200790405273,0.05931076407433,1.05458486080170,2.76281666755676,-2.02481865882874,1.68458604812622
666,1267669881,8.86517524719238,-84.27159881591797,31.71302032470703,9.74952220916748,0.06069061160088,1.10796165466309,2.58395004272461,-2.29892587661743,1.83417665958405
667,1267686548,8.77517795562744,-84.30856323242188,31.84026336669922,9.74654769897461,0.09974542260170,1.10786294937134,2.65625476837158,-3.00459384918213,1.79930520057678
668,1267703215,8.67993831634521,-84.35343933105469,31.96550369262695,9.78515338897705,0.08567789942026,1.09130632877350,2.21741962432861,-3.48371791839600,1.85136294364929
669,1267719882,8.66349601745605,-84.40531921386719,32.01160430908203,9.80922698974609,0.05834659561515,1.04201662540436,2.22307991981506,-3.98174428939819,1.44833421707153
670,1267736549,8.68004417419434,-84.45249938964844,32.02183532714844,9.76680183410645,0.04402940720320,1.02505075931549,2.06302595138550,-3.73565673828125,1.19843113422394
671,1267753216,8.72426700592041,-84.50303649902344,32.00817108154297,9.76991558074951,0.02318615466356,1.02979242801666,2.29971337318420,-3.93927884101868,1.08961558341980
672,1267769883,8.78624343872070,-84.55392456054688,31.98179435729980,9.79786682128906,0.01380441244692,1.04089033603668,2.59338784217834,-3.98238420486450,1.02683866024017
673,1267786550,8.84608173370361,-84.60657501220703,31.95638275146484,9.77219200134277,0.02692516334355,1.10222232341766,2.53915977478027,-4.08116579055786,1.05312371253967
674,1267803217,8.91161727905273,-84.66604614257812,31.92474555969238,9.78380775451660,0.08046862483025,1.05622172355652,2.49997901916504,-4.49822473526001,1.08766901493073
675,1267819884,9.01541519165039,-84.73150634765625,31.84886550903320,9.80381107330322,0.12752029299736,1.01479613780975,2.15559077262878,-4.88783264160156,0.90890520811081
676,1267836551,9.23666572570801,-84.80800628662109,31.65380477905273,9.79011535644531,0.06530854851007,0.92741161584854,2.06371808052063,-5.64285707473755,0.38556084036827
677,1267853218,9.50680446624756,-84.88465881347656,31.40753555297852,9.84631061553955,0.04360452666879,0.89440780878067,1.94233918190002,-5.69396638870239,0.15055146813393
678,1267869885,9.80541229248047,-84.94592285156250,31.13720321655273,9.79079341888428,0.02733331173658,0.89171910285950,2.22985434532166,-4.80411672592163,-0.08615472167730
679,1267886552,10.14707469940186,-85.00378417968750,30.82603836059570,9.80609035491943,0.03599365800619,0.89460462331772,2.38086724281311,-4.63616180419922,-0.29648622870445
680,1267903219,10.50587177276611,-85.06156158447266,30.49925994873047,9.82771301269531,0.06172803044319,0.88383001089096,2.46298789978027,-4.65677404403687,-0.33338776230812
681,1267919886,10.90163326263428,-85.12476348876953,30.13490486145020,9.90097332000732,0.10981415212154,0.86005973815918,2.44608354568481,-5.00537538528442,-0.41884449124336
682,1267936553,11.30747318267822,-85.19152069091797,29.75349998474121,9.93029212951660,0.08831372112036,0.81570315361023,1.99613225460052,-5.25718641281128,-0.40792068839073
683,1267953220,11.67851352691650,-85.24259948730469,29.41210365295410,9.90757369995117,0.06660106778145,0.79125273227692,2.30251789093018,-4.27741718292236,-0.35205298662186
684,1267969887,12.03853034973145,-85.28000640869141,29.08255386352539,9.89194583892822,0.05003017187119,0.81812721490860,2.35753369331360,-3.46557092666626,-0.42492106556892
685,1267986554,12.36341476440430,-85.29822540283203,28.78553199768066,9.89831256866455,0.07947443425655,0.84265494346619,2.19591760635376,-2.32781648635864,-0.48283135890961
686,1268003221,12.63136291503906,-85.31558990478516,28.53949546813965,9.82532501220703,0.08170232176781,0.86138033866882,1.84379422664642,-2.21454429626465,-0.23907533288002
687,1268019888,12.85519313812256,-85.33712768554688,28.34378242492676,9.80079555511475,0.01016471628100,0.87261086702347,2.20151352882385,-2.41397762298584,0.06750226765871
688,1268036555,13.07192802429199,-85.35607910156250,28.15946006774902,9.82624340057373,0.02429691143334,0.88558167219162,2.45249271392822,-2.24791765213013,0.09369125217199
689,1268053222,13.29620933532715,-85.37090301513672,27.96129798889160,9.78778934478760,0.06306497007608,0.86240398883820,2.06819987297058,-2.02302575111389,-0.02025324292481
690,1268069889,13.52342319488525,-85.38552856445312,27.75408935546875,9.80423641204834,0.06743803620338,0.85807758569717,1.69936430454254,-2.02210330963135,-0.05837774276733
