sep=,
DeviceTag:,Xsens_DOT_4
FirmwareVersion:,3.0.0
AppVersion:,2023.6.0
StartTime: ,2025-04-09_10:43:22_000 CEST
© Movella Technologies B. V. 2005-2025

PacketCounter,SampleTimeFine,Euler_X,Euler_Y,Euler_Z,Acc_X,Acc_Y,Acc_Z,Gyr_X,Gyr_Y,Gyr_Z
0,1256552992,-52.82500457763672,-83.57794952392578,43.17856979370117,0.00000000000000,0.00000000000000,0.00000000000000,0.00000000000000,0.00000000000000,0.00000000000000
1,1256569659,-52.63528060913086,-83.57337188720703,43.00600051879883,9.74323463439941,-0.91772556304932,1.29456233978271,1.16707479953766,0.75307101011276,-1.63561415672302
2,1256586326,-52.49823760986328,-83.57559967041016,42.85747146606445,9.68462657928467,-1.04989397525787,1.28550648689270,-0.46339777112007,0.36621674895287,-1.86172306537628
3,1256602993,-52.36764907836914,-83.58760833740234,42.74827194213867,9.71395206451416,-1.03666913509369,1.30819714069366,1.40260887145996,-0.19432352483273,-2.17552995681763
4,1256619660,-52.32636642456055,-83.60576629638672,42.71129226684570,9.77445220947266,-0.92889899015427,1.23615527153015,0.11646735668182,-0.78208374977112,-2.18426370620728
5,1256636327,-52.29430389404297,-83.62563323974609,42.69232940673828,9.78526592254639,-0.92656326293945,1.18583846092224,0.50512731075287,-0.93145704269409,-2.20985078811646
6,1256652994,-52.28455352783203,-83.64582061767578,42.68410110473633,9.73188114166260,-0.89583444595337,1.17476308345795,0.33700552582741,-1.04066967964172,-2.12944006919861
7,1256669661,-52.28740692138672,-83.66506195068359,42.69802093505859,9.68482017517090,-0.93655234575272,1.15095806121826,0.61019057035446,-1.10221695899963,-2.02382612228394
8,1256686328,-52.32847595214844,-83.68556213378906,42.75442886352539,9.70608901977539,-0.91700553894043,1.15118765830994,1.08818745613098,-1.38202273845673,-1.88431346416473
9,1256702995,-52.42369461059570,-83.70941925048828,42.86236953735352,9.72692489624023,-0.92744725942612,1.20672404766083,0.85162860155106,-1.76938939094543,-1.85163164138794
10,1256719662,-52.53043746948242,-83.73471832275391,43.00712966918945,9.78652858734131,-0.98710095882416,1.16083109378815,2.54950737953186,-2.02734756469727,-1.76111650466919
11,1256736329,-52.62158966064453,-83.75973510742188,43.12685012817383,9.76852703094482,-0.87733316421509,1.17915296554565,1.57997703552246,-1.84653508663177,-1.88688755035400
12,1256752996,-52.71136856079102,-83.78215026855469,43.23783874511719,9.78587245941162,-0.97408467531204,1.15401709079742,1.27111339569092,-1.70837974548340,-1.78583264350891
13,1256769663,-52.79332351684570,-83.80268096923828,43.34912490844727,9.77405548095703,-0.91263973712921,1.14941489696503,1.66023433208466,-1.63168263435364,-1.70878958702087
14,1256786330,-52.88303756713867,-83.82597351074219,43.47835922241211,9.73809051513672,-0.97639912366867,1.12499272823334,1.77618324756622,-1.77303922176361,-1.80380022525787
15,1256802997,-52.95936584472656,-83.84935760498047,43.58155059814453,9.69983482360840,-0.90270680189133,1.14934527873993,1.56695294380188,-1.69016933441162,-1.88213634490967
16,1256819664,-53.05730438232422,-83.87126159667969,43.70432662963867,9.74057006835938,-0.91781675815582,1.11490917205811,1.53439927101135,-1.73655390739441,-1.72478485107422
17,1256836331,-53.16208267211914,-83.89257049560547,43.83329391479492,9.80181026458740,-0.93096816539764,1.12764632701874,1.43781375885010,-1.73468399047852,-1.67848992347717
18,1256852998,-53.24990081787109,-83.91279602050781,43.95151138305664,9.78992557525635,-0.88845074176788,1.14057540893555,1.61187767982483,-1.62484419345856,-1.69396007061005
19,1256869665,-53.38305664062500,-83.93276214599609,44.10128021240234,9.71633529663086,-0.90971004962921,1.13829839229584,1.09444975852966,-1.79875445365906,-1.54118025302887
20,1256886332,-53.51646804809570,-83.95555114746094,44.26871871948242,9.68736171722412,-0.97020131349564,1.12089288234711,1.96416735649109,-1.97431635856628,-1.63283514976501
21,1256902999,-53.67792510986328,-83.97927093505859,44.47974777221680,9.72613620758057,-0.92858904600143,1.11332583427429,2.45079588890076,-2.18025517463684,-1.54449677467346
22,1256919666,-53.84578704833984,-84.00344848632812,44.67910003662109,9.76164054870605,-0.85879743099213,1.12483978271484,2.54761195182800,-2.22982883453369,-1.53389334678650
23,1256936333,-54.00938796997070,-84.02459716796875,44.86415100097656,9.79971694946289,-0.93595737218857,1.07433855533600,1.47382509708405,-2.01028943061829,-1.49213182926178
24,1256953000,-54.12771987915039,-84.04201507568359,45.00678253173828,9.77687358856201,-0.87085467576981,1.07190644741058,1.14130830764771,-1.60563468933105,-1.49363029003143
25,1256969667,-54.21564102172852,-84.05496215820312,45.10514068603516,9.73623466491699,-0.83151590824127,1.02686727046967,0.68293058872223,-1.25675106048584,-1.42357933521271
26,1256986334,-54.34275054931641,-84.07103729248047,45.23027038574219,9.69993782043457,-0.95911389589310,1.07180643081665,-0.04662792384624,-1.50428509712219,-1.48654842376709
27,1257003001,-54.51055526733398,-84.09133911132812,45.43680953979492,9.73644447326660,-0.95188498497009,1.14264893531799,1.53904795646667,-1.98255097866058,-1.45362305641174
28,1257019668,-54.72586441040039,-84.11331176757812,45.69349670410156,9.76198673248291,-0.93292897939682,1.14642107486725,1.96675431728363,-2.30593681335449,-1.33488261699677
29,1257036335,-54.94116592407227,-84.13191223144531,45.93074417114258,9.77260875701904,-0.87245410680771,1.05265271663666,1.20154941082001,-2.13182187080383,-1.24377834796906
30,1257053002,-55.12786865234375,-84.14813995361328,46.13312530517578,9.76920795440674,-0.87443619966507,1.04750990867615,0.81493848562241,-1.85798370838165,-1.24206221103668
31,1257069669,-55.31861495971680,-84.16121673583984,46.34442520141602,9.74943733215332,-0.90690439939499,0.98873132467270,1.06795346736908,-1.78859865665436,-1.06959915161133
32,1257086336,-55.51354217529297,-84.17496490478516,46.55393981933594,9.75575160980225,-0.92043745517731,1.02245044708252,0.85667443275452,-1.81797671318054,-1.11421656608582
33,1257103003,-55.68112182617188,-84.18614959716797,46.74576950073242,9.74977970123291,-0.93562227487564,1.01073992252350,1.38129937648773,-1.63462805747986,-1.06171047687531
34,1257119670,-55.80325317382812,-84.19313049316406,46.88343811035156,9.75709056854248,-0.86180877685547,0.99425071477890,0.62774801254272,-1.18366515636444,-1.03901755809784
35,1257136337,-55.91480636596680,-84.19836425781250,47.00250244140625,9.73316192626953,-0.91602462530136,0.99619692564011,0.47761923074722,-1.06765258312225,-1.01499283313751
36,1257153004,-56.00866699218750,-84.20211791992188,47.10887908935547,9.75617027282715,-0.90327531099319,1.00246298313141,0.66884374618530,-0.94069045782089,-0.98826605081558
37,1257169671,-56.07406616210938,-84.20394134521484,47.16767501831055,9.73996543884277,-0.88736432790756,1.01801490783691,-0.33571848273277,-0.64428746700287,-1.04435789585114
38,1257186338,-56.14886856079102,-84.20444488525391,47.25193405151367,9.76126384735107,-0.93017041683197,1.00036740303040,0.55613499879837,-0.72184276580811,-0.89850640296936
39,1257203005,-56.18716430664062,-84.20214843750000,47.28997039794922,9.74394989013672,-0.86577504873276,1.03672194480896,-0.10369300842285,-0.39020943641663,-0.92789679765701
40,1257219672,-56.23743820190430,-84.20043182373047,47.34788131713867,9.73246955871582,-0.96150797605515,1.01160311698914,0.33120420575142,-0.49998548626900,-0.88056457042694
41,1257236339,-56.33211898803711,-84.20410919189453,47.45503997802734,9.72872734069824,-0.94170975685120,1.05660986900330,0.52455449104309,-0.93213576078415,-1.00867927074432
42,1257253006,-56.47861862182617,-84.21426391601562,47.61705780029297,9.68549346923828,-0.93900603055954,1.05510759353638,0.90375047922134,-1.42813849449158,-1.11408829689026
43,1257269673,-56.64702606201172,-84.22633361816406,47.80897521972656,9.71764945983887,-0.92003685235977,1.03401470184326,1.24124920368195,-1.63328337669373,-1.13267040252686
44,1257286340,-56.81880569458008,-84.23846435546875,47.98794555664062,9.74100685119629,-0.93946367502213,1.02290368080139,0.38921695947647,-1.57652556896210,-1.17420136928558
45,1257303007,-56.95944976806641,-84.24810028076172,48.16159439086914,9.78349018096924,-0.94770544767380,0.97456562519073,1.60972630977631,-1.43464422225952,-1.08868074417114
46,1257319674,-57.06322860717773,-84.25250244140625,48.25816726684570,9.81709575653076,-0.80983626842499,0.94570255279541,0.38510614633560,-0.97700917720795,-1.02000010013580
47,1257336341,-57.14250946044922,-84.25495147705078,48.33039855957031,9.73645973205566,-0.93110299110413,0.90737783908844,-0.47430878877640,-0.70970225334167,-1.04740571975708
48,1257353008,-57.21038818359375,-84.25703430175781,48.40533828735352,9.76174640655518,-0.96277350187302,0.95723396539688,0.20156554877758,-0.69812536239624,-1.03684043884277
49,1257369675,-57.23079299926758,-84.25563812255859,48.42349243164062,9.73500061035156,-0.86205267906189,0.97026240825653,-0.19071216881275,-0.30836409330368,-1.03612351417542
50,1257386342,-57.26557922363281,-84.25243377685547,48.44474411010742,9.70805740356445,-0.92882943153381,0.97269576787949,-0.87317526340485,-0.26454076170921,-0.93682289123535
51,1257403009,-57.28881072998047,-84.24909210205078,48.47241210937500,9.71476936340332,-0.95399880409241,0.98190414905548,0.21471765637398,-0.28992292284966,-0.90309101343155
52,1257419676,-57.31931686401367,-84.24568176269531,48.52121353149414,9.74727916717529,-0.89807844161987,0.96763324737549,0.42803308367729,-0.34323579072952,-0.87240701913834
53,1257436343,-57.35764694213867,-84.24306488037109,48.55363464355469,9.71329879760742,-0.91138947010040,0.96061766147614,-0.49634853005409,-0.33042949438095,-0.93522214889526
54,1257453010,-57.39811706542969,-84.24190521240234,48.59402847290039,9.71504592895508,-0.98847472667694,1.00313806533813,-0.00277897762135,-0.42622086405754,-0.96680253744125
55,1257469677,-57.45364761352539,-84.24357604980469,48.65901184082031,9.74192714691162,-0.97052627801895,1.05636727809906,0.49515116214752,-0.63881915807724,-1.04113066196442
56,1257486344,-57.52079391479492,-84.24707794189453,48.73864746093750,9.76537322998047,-0.91797715425491,1.02016854286194,0.54519832134247,-0.75989037752151,-1.09366202354431
57,1257503011,-57.61617660522461,-84.25239562988281,48.84157943725586,9.73019981384277,-0.95456832647324,1.03129434585571,-0.18446265161037,-0.89676457643509,-1.13347721099854
58,1257519678,-57.73173141479492,-84.26284027099609,48.98286437988281,9.72161102294922,-1.01095283031464,0.99740010499954,0.96960073709488,-1.26060569286346,-1.26849448680878
59,1257536345,-57.86267089843750,-84.27577209472656,49.12902832031250,9.74989318847656,-0.92559295892715,1.02290606498718,0.71636795997620,-1.39797949790955,-1.36342811584473
60,1257553012,-58.00833892822266,-84.29181671142578,49.28471374511719,9.73490619659424,-0.94736403226852,0.98716336488724,0.17687492072582,-1.52172744274139,-1.50552737712860
61,1257569679,-58.18917465209961,-84.31069946289062,49.47971343994141,9.75899410247803,-0.95170271396637,1.00418949127197,0.63904327154160,-1.81961572170258,-1.50820374488831
62,1257586346,-58.37311935424805,-84.32760620117188,49.67560958862305,9.75372791290283,-0.89638298749924,0.94401210546494,0.69636446237564,-1.77891719341278,-1.41344964504242
63,1257603013,-58.53960037231445,-84.34368896484375,49.85541152954102,9.70661354064941,-0.94130313396454,0.92499482631683,0.31780877709389,-1.62723886966705,-1.45445561408997
64,1257619680,-58.69788742065430,-84.35948181152344,50.03118515014648,9.70677280426025,-0.95920985937119,0.91571211814880,0.82141852378845,-1.61239635944366,-1.43912637233734
65,1257636347,-58.82781982421875,-84.37269592285156,50.17387771606445,9.74103069305420,-0.90560698509216,0.93407368659973,0.39125317335129,-1.34863662719727,-1.42270851135254
66,1257653014,-58.94388961791992,-84.38396453857422,50.29703140258789,9.77743721008301,-0.91476631164551,0.87888640165329,0.18354699015617,-1.19859743118286,-1.37857782840729
67,1257669681,-59.00590896606445,-84.39056396484375,50.35366439819336,9.75286006927490,-0.89525133371353,0.89108431339264,-0.11489857733250,-0.74993991851807,-1.31486654281616
68,1257686348,-59.04522323608398,-84.39196014404297,50.39603805541992,9.72973823547363,-0.92859584093094,0.90562415122986,0.30910047888756,-0.51288151741028,-1.10271656513214
69,1257703015,-59.04743576049805,-84.39038085937500,50.40261840820312,9.74314689636230,-0.93520700931549,0.91614747047424,0.06387166678905,-0.20935818552971,-1.07382512092590
70,1257719682,-59.05229187011719,-84.38769531250000,50.40182495117188,9.75436782836914,-0.91720253229141,0.90993428230286,0.04329186305404,-0.18904732167721,-1.01474952697754
71,1257736349,-59.04101562500000,-84.38343811035156,50.38294982910156,9.72957706451416,-0.89401364326477,0.91921538114548,-0.55296540260315,-0.00233075581491,-1.00483751296997
72,1257753016,-59.04232025146484,-84.37869262695312,50.38782501220703,9.73360347747803,-0.92265331745148,0.89245837926865,0.08283787965775,-0.10479436814785,-0.91255491971970
73,1257769683,-59.04746246337891,-84.37503814697266,50.39221191406250,9.74288177490234,-0.95214945077896,0.93001461029053,-0.18629397451878,-0.13496612012386,-0.97096467018127
74,1257786350,-59.03538131713867,-84.37085723876953,50.38712692260742,9.77195453643799,-0.95164602994919,0.92255246639252,0.41105180978775,-0.07816995680332,-0.96202576160431
75,1257803017,-59.01977539062500,-84.36716461181641,50.36568450927734,9.75263595581055,-0.90089017152786,0.93043309450150,-0.27622011303902,-0.02000351808965,-1.04294908046722
76,1257819684,-58.99728393554688,-84.36191558837891,50.34208679199219,9.72699642181396,-0.98380196094513,0.90697771310806,-0.18817648291588,0.05878754705191,-0.97440952062607
77,1257836351,-58.96566772460938,-84.35576629638672,50.31607055664062,9.73267078399658,-0.89776724576950,0.97383505105972,0.23618108034134,0.09979347139597,-0.93253278732300
78,1257853018,-58.95567321777344,-84.34923553466797,50.30741882324219,9.74555969238281,-0.94959527254105,0.94114160537720,0.03386638686061,0.01618082076311,-0.86522257328033
79,1257869685,-58.91506195068359,-84.33950805664062,50.27504730224609,9.77083396911621,-0.91517388820648,0.92186707258224,0.43711271882057,0.24314774572849,-0.76357847452164
80,1257886352,-58.88270568847656,-84.32933807373047,50.23434829711914,9.74253654479980,-0.93830740451813,0.89804643392563,-0.10561396181583,0.26028263568878,-0.74283230304718
81,1257903019,-58.82960128784180,-84.31631469726562,50.18348693847656,9.71960067749023,-0.92458546161652,0.89453119039536,-0.12116087228060,0.45665520429611,-0.67393416166306
82,1257919686,-58.78476715087891,-84.30374145507812,50.13675308227539,9.72565269470215,-0.96561890840530,0.90656852722168,-0.26779356598854,0.41440707445145,-0.67859560251236
83,1257936353,-58.72871398925781,-84.29023742675781,50.08118820190430,9.73606300354004,-0.93149471282959,0.96319776773453,0.21300157904625,0.46518424153328,-0.63401669263840
84,1257953020,-58.66336059570312,-84.27574157714844,50.01274108886719,9.74475574493408,-0.92065143585205,0.90129470825195,-0.25784304738045,0.58566635847092,-0.64045828580856
85,1257969687,-58.61250305175781,-84.26181793212891,49.95479583740234,9.72866153717041,-0.94272583723068,0.93740648031235,-0.48748645186424,0.51115900278091,-0.64619553089142
86,1257986354,-58.57293701171875,-84.25058746337891,49.91578674316406,9.72130393981934,-0.99461835622787,0.94980847835541,-0.01940161921084,0.33567363023758,-0.71675854921341
87,1258003021,-58.56825256347656,-84.24411773681641,49.92612838745117,9.72303867340088,-0.97264897823334,0.92966371774673,0.55864495038986,-0.04327265545726,-0.82421666383743
88,1258019688,-58.56862640380859,-84.24027252197266,49.93176651000977,9.74048423767090,-0.97798770666122,0.98348057270050,0.12805709242821,-0.11263184994459,-0.96135991811752
89,1258036355,-58.56591033935547,-84.23796081542969,49.93958282470703,9.72802925109863,-0.96779477596283,0.99559611082077,0.45443969964981,-0.17065741121769,-1.03398466110229
90,1258053022,-58.58284759521484,-84.23639678955078,49.96859359741211,9.74548339843750,-0.97962033748627,0.94859004020691,0.78447216749191,-0.32533252239227,-0.99199259281158
91,1258069689,-58.62490081787109,-84.23577880859375,50.03081512451172,9.72931671142578,-0.92415136098862,0.88988834619522,1.18725752830505,-0.51761984825134,-0.93901282548904
92,1258086356,-58.67335510253906,-84.23414611816406,50.08202743530273,9.72602081298828,-0.89502125978470,0.89474546909332,0.42125844955444,-0.45485585927963,-0.91069793701172
93,1258103023,-58.70744323730469,-84.23275756835938,50.12054824829102,9.73128318786621,-0.97574234008789,0.87334620952606,0.72511470317841,-0.41249248385429,-0.94783633947372
94,1258119690,-58.71979904174805,-84.23081970214844,50.14962005615234,9.73961448669434,-0.98106557130814,0.93106687068939,0.87496179342270,-0.29158776998520,-0.98091518878937
95,1258136357,-58.70568847656250,-84.22670745849609,50.14271163940430,9.74858760833740,-0.92260783910751,0.90351021289825,0.32697808742523,-0.04103154316545,-0.98876541852951
96,1258153024,-58.70235443115234,-84.22436523437500,50.13977813720703,9.73335170745850,-0.98984903097153,0.90733850002289,0.03619714453816,-0.12542536854744,-1.05845749378204
97,1258169691,-58.68955612182617,-84.22250366210938,50.14672851562500,9.73255920410156,-0.97548925876617,0.92100560665131,1.23067104816437,-0.19214645028114,-1.04497253894806
98,1258186358,-58.67560195922852,-84.22019195556641,50.14965438842773,9.73429393768311,-0.91836220026016,0.91095286607742,0.91058921813965,-0.14556978642941,-1.05024874210358
99,1258203025,-58.64855194091797,-84.21775817871094,50.11621475219727,9.70321941375732,-0.95602631568909,0.91364526748657,-0.19135247170925,0.02559349127114,-1.13543665409088
100,1258219692,-58.64042663574219,-84.21781921386719,50.12099838256836,9.72514438629150,-1.01829874515533,0.94812637567520,0.72471773624420,-0.22774809598923,-1.15495336055756
101,1258236359,-58.62217712402344,-84.21717834472656,50.12221527099609,9.75886535644531,-0.93076121807098,0.95272815227509,0.82251971960068,-0.16430546343327,-1.15390324592590
102,1258253026,-58.60326385498047,-84.21321105957031,50.10193634033203,9.78221035003662,-0.92545253038406,0.93331760168076,-0.10602376610041,0.02861578762531,-1.02840113639832
103,1258269693,-58.59087371826172,-84.21067047119141,50.08682250976562,9.72798252105713,-0.98126250505447,0.90957707166672,-0.04944531247020,-0.05771821364760,-1.08147060871124
104,1258286360,-58.56962585449219,-84.20922088623047,50.07298660278320,9.71023178100586,-1.01886868476868,0.92377066612244,0.42583036422729,-0.08426578342915,-1.13798511028290
105,1258303027,-58.54201507568359,-84.20993041992188,50.05943679809570,9.73776817321777,-0.98498177528381,0.92202132940292,0.83695262670517,-0.15408600866795,-1.25010466575623
106,1258319694,-58.52251052856445,-84.20932006835938,50.04594802856445,9.75707721710205,-0.94348615407944,0.93474566936493,0.34004059433937,-0.10857224464417,-1.17736470699310
107,1258336361,-58.48949050903320,-84.20742034912109,50.00507354736328,9.74598789215088,-0.95500177145004,0.89578849077225,-0.34874254465103,0.05832652002573,-1.19958364963531
108,1258353028,-58.46743011474609,-84.20708465576172,50.00196456909180,9.76810359954834,-0.98194295167923,0.88172972202301,0.70678877830505,-0.13522224128246,-1.18616247177124
109,1258369695,-58.44871520996094,-84.20657348632812,49.98650360107422,9.75172424316406,-0.92522728443146,0.93741148710251,0.14877778291702,-0.09955656528473,-1.19829034805298
110,1258386362,-58.41932678222656,-84.20705413818359,49.96189117431641,9.72103118896484,-0.98247843980789,0.95501559972763,-0.05998494476080,-0.05032895132899,-1.28562939167023
111,1258403029,-58.35660552978516,-84.20563507080078,49.90248107910156,9.74701976776123,-0.98135221004486,0.89633351564407,0.16186586022377,0.15895882248878,-1.29061126708984
112,1258419696,-58.27132415771484,-84.20225524902344,49.80625534057617,9.74525642395020,-0.92759495973587,0.88302928209305,-0.46000412106514,0.39107394218445,-1.29693746566772
113,1258436363,-58.18272018432617,-84.19900512695312,49.70530700683594,9.72724437713623,-0.97874754667282,0.88983792066574,-0.53032380342484,0.41482970118523,-1.31475126743317
114,1258453030,-58.08954238891602,-84.19370269775391,49.60918807983398,9.71922397613525,-0.95331430435181,0.92515408992767,-0.17238628864288,0.46961525082588,-1.21483600139618
115,1258469697,-57.98192596435547,-84.18833923339844,49.49954223632812,9.74457836151123,-0.95748960971832,0.91055208444595,-0.12657795846462,0.55140942335129,-1.24500763416290
116,1258486364,-57.86905288696289,-84.18358612060547,49.38591384887695,9.72381114959717,-0.96139401197433,0.93891698122025,-0.23508617281914,0.56677705049515,-1.30591475963593
117,1258503031,-57.77462387084961,-84.18011474609375,49.28856658935547,9.70712089538574,-0.99423491954803,0.93985760211945,-0.27501636743546,0.43172129988670,-1.32358741760254
118,1258519698,-57.71931457519531,-84.18085479736328,49.23780441284180,9.73981285095215,-0.98202854394913,0.93737953901291,0.44506546854973,0.03451951220632,-1.36267232894897
119,1258536365,-57.65966415405273,-84.18099212646484,49.16350936889648,9.77216053009033,-0.93989574909210,0.91860091686249,-0.05910130217671,0.12497077137232,-1.36331284046173
120,1258553032,-57.59863662719727,-84.18166351318359,49.09794235229492,9.73385238647461,-0.99019914865494,0.92264181375504,-0.21875807642937,0.12450973689556,-1.41789340972900
121,1258569699,-57.53896331787109,-84.18270874023438,49.04781723022461,9.73641967773438,-0.99763959646225,0.96079552173615,0.35022166371346,0.05580367520452,-1.40623974800110
122,1258586366,-57.50248336791992,-84.18590545654297,49.01855468750000,9.72182559967041,-0.97897100448608,0.93006044626236,0.24492783844471,-0.11888135224581,-1.43744862079620
123,1258603033,-57.46344757080078,-84.19097137451172,48.98737716674805,9.75769805908203,-0.94915741682053,0.90626227855682,0.29159417748451,-0.17246310412884,-1.54155135154724
124,1258619700,-57.40001678466797,-84.19437408447266,48.92655563354492,9.73111438751221,-0.95470696687698,0.87443464994431,-0.21686273813248,0.05160318687558,-1.56601166725159
125,1258636367,-57.34150314331055,-84.19758605957031,48.86899185180664,9.71399021148682,-0.96452176570892,0.90150612592697,-0.17706058919430,0.03349500522017,-1.53243327140808
126,1258653034,-57.29014205932617,-84.20173645019531,48.81946563720703,9.73388767242432,-0.94464105367661,0.93474304676056,0.25805434584618,-0.07445611059666,-1.53385496139526
127,1258669701,-57.22842407226562,-84.20346832275391,48.75563812255859,9.74425792694092,-0.94823384284973,0.93526589870453,-0.22641628980637,0.09577228128910,-1.48254001140594
128,1258686368,-57.16807174682617,-84.20458221435547,48.69141387939453,9.73863029479980,-0.93922573328018,0.89352619647980,-0.17659959197044,0.10760536044836,-1.43676996231079
129,1258703035,-57.11688613891602,-84.20586395263672,48.64715576171875,9.73028659820557,-0.99805754423141,0.89921194314957,0.12568792700768,0.03583857044578,-1.39201188087463
130,1258719702,-57.06756591796875,-84.20880889892578,48.59358596801758,9.71195602416992,-0.92743504047394,0.94692164659500,-0.23637959361076,-0.00509692728519,-1.50374722480774
131,1258736369,-57.03237915039062,-84.21484375000000,48.55345916748047,9.72953414916992,-0.96145802736282,0.93889695405960,-0.20254524052143,-0.17674043774605,-1.60233044624329
132,1258753036,-57.00026702880859,-84.22077178955078,48.51907730102539,9.74217987060547,-0.95275127887726,0.91944450139999,0.04847843945026,-0.20399236679077,-1.56193935871124
133,1258769703,-56.96589660644531,-84.22538757324219,48.48640060424805,9.74980163574219,-0.94547504186630,0.90844655036926,0.07876545190811,-0.16032269597054,-1.51949906349182
134,1258786370,-56.93560409545898,-84.23085021972656,48.45351791381836,9.71302795410156,-0.96057009696960,0.88841474056244,0.16045716404915,-0.21384043991566,-1.53887498378754
135,1258803037,-56.90752410888672,-84.23731231689453,48.43625259399414,9.75481700897217,-0.99203789234161,0.89434146881104,0.62717175483704,-0.29381608963013,-1.55316686630249
136,1258819704,-56.83292770385742,-84.24037170410156,48.37430572509766,9.75786018371582,-0.90442603826523,0.92052501440048,0.42744398117065,0.07069744914770,-1.55110514163971
137,1258836371,-56.76811599731445,-84.24183654785156,48.29861831665039,9.75474166870117,-0.91819852590561,0.86482948064804,-0.36485287547112,0.13894248008728,-1.48188674449921
138,1258853038,-56.68770217895508,-84.24136352539062,48.22262573242188,9.69874382019043,-0.93810683488846,0.87470978498459,0.31987062096596,0.22512923181057,-1.39867115020752
139,1258869705,-56.61449813842773,-84.24016571044922,48.16049575805664,9.72671031951904,-0.94765716791153,0.90447700023651,0.54531359672546,0.19518798589706,-1.32540595531464
140,1258886372,-56.54971694946289,-84.23890686035156,48.09806442260742,9.76037979125977,-0.93647837638855,0.91140186786652,-0.02520289644599,0.20433171093464,-1.32813370227814
141,1258903039,-56.47357559204102,-84.23822784423828,48.01850891113281,9.76369571685791,-0.93887561559677,0.92539107799530,-0.06053561344743,0.24686157703400,-1.39292097091675
142,1258919706,-56.38969802856445,-84.23628997802734,47.94047546386719,9.74752426147461,-0.94785755872726,0.89804160594940,0.13535670936108,0.30730757117271,-1.35644865036011
143,1258936373,-56.31959152221680,-84.23241424560547,47.86104202270508,9.70672798156738,-0.94094997644424,0.90078383684158,-0.08014213293791,0.32204768061638,-1.21938228607178
144,1258953040,-56.25174331665039,-84.22932434082031,47.79763793945312,9.72474288940430,-0.94832783937454,0.91323995590210,0.14540970325470,0.27005392313004,-1.23697817325592
145,1258969707,-56.19094848632812,-84.22708129882812,47.74226379394531,9.72488880157471,-0.95772403478622,0.94672971963882,0.07479548454285,0.21195147931576,-1.26443481445312
146,1258986374,-56.11933517456055,-84.22440338134766,47.67323303222656,9.71855449676514,-0.94279277324677,0.90157508850098,0.16265985369682,0.27216693758965,-1.27630627155304
147,1259003041,-56.05131530761719,-84.22253417968750,47.61132812500000,9.72430896759033,-0.95367676019669,0.89021503925323,0.26683950424194,0.22208133339882,-1.29359507560730
148,1259019708,-55.99542236328125,-84.22135162353516,47.55553817749023,9.72977352142334,-0.94542485475540,0.93462318181992,0.38533666729927,0.12937615811825,-1.27726697921753
149,1259036375,-55.97035980224609,-84.22257232666016,47.55002975463867,9.74789619445801,-0.93615901470184,0.95211911201477,0.11924632638693,-0.08756981790066,-1.32575166225433
150,1259053042,-55.94828414916992,-84.22450256347656,47.53401184082031,9.73898506164551,-0.96639162302017,0.94093292951584,0.30607816576958,-0.14104914665222,-1.33037483692169
151,1259069709,-55.92208480834961,-84.22695159912109,47.50873565673828,9.73452949523926,-0.93081516027451,0.91378813982010,0.22510361671448,-0.12637305259705,-1.36703944206238
152,1259086376,-55.90592193603516,-84.23244476318359,47.49647521972656,9.72895240783691,-0.98729985952377,0.90414309501648,0.28442263603210,-0.28307157754898,-1.48187410831451
153,1259103043,-55.91580581665039,-84.23873901367188,47.52265548706055,9.71584033966064,-0.96354764699936,0.90850776433945,0.80245238542557,-0.48666694760323,-1.41076028347015
154,1259119710,-55.93494415283203,-84.24606323242188,47.55658721923828,9.75710773468018,-0.94662702083588,0.96300703287125,0.80861216783524,-0.56445270776749,-1.42269587516785
155,1259136377,-55.94409179687500,-84.25058746337891,47.57841110229492,9.77043437957764,-0.87928938865662,0.90301996469498,0.80094105005264,-0.42266076803207,-1.32571327686310
156,1259153044,-55.92918395996094,-84.25157928466797,47.56843566894531,9.73009204864502,-0.93542313575745,0.87657934427261,0.07653715461493,-0.12155787646770,-1.27377080917358
157,1259169711,-55.88461303710938,-84.25209045410156,47.52886581420898,9.72571182250977,-0.92849463224411,0.84724211692810,0.30027690529823,0.03056235611439,-1.32780086994171
158,1259186378,-55.82561111450195,-84.24997711181641,47.47406768798828,9.72755432128906,-0.92655092477798,0.87213969230652,-0.08317723125219,0.21932794153690,-1.27815043926239
159,1259203045,-55.77328491210938,-84.24742126464844,47.42253494262695,9.72919654846191,-0.95386970043182,0.92313742637634,-0.00608301628381,0.19513675570488,-1.22843635082245
160,1259219712,-55.72049713134766,-84.24422454833984,47.37848281860352,9.74496459960938,-0.94058650732040,0.91878604888916,0.12272964417934,0.21496097743511,-1.18553495407104
161,1259236379,-55.66199493408203,-84.23870849609375,47.32443618774414,9.74023056030273,-0.92331743240356,0.87840437889099,0.23379911482334,0.31040671467781,-1.08554303646088
162,1259253046,-55.60986328125000,-84.23425292968750,47.27363204956055,9.72244262695312,-0.95196253061295,0.88680243492126,-0.00361139047891,0.26099979877472,-1.13592326641083
163,1259269713,-55.56010818481445,-84.23136138916016,47.22992706298828,9.75580120086670,-0.94506829977036,0.93531811237335,0.30516889691353,0.17433923482895,-1.18118083477020
164,1259286380,-55.53118896484375,-84.22853851318359,47.20318603515625,9.74893569946289,-0.93291467428207,0.91594910621643,0.26226764917374,0.07003151625395,-1.11871147155762
165,1259303047,-55.51614379882812,-84.22810363769531,47.19435501098633,9.72501468658447,-0.98647588491440,0.92770987749100,0.30327355861664,-0.08657092601061,-1.19378232955933
166,1259319714,-55.52003097534180,-84.22724914550781,47.20808792114258,9.73637008666992,-0.92855358123779,0.92324417829514,0.87427026033401,-0.20946064591408,-1.06834399700165
167,1259336381,-55.49313735961914,-84.22573089599609,47.19135665893555,9.74806404113770,-0.93547463417053,0.89027059078217,0.34385687112808,0.00934223085642,-1.17922139167786
168,1259353048,-55.45010757446289,-84.22372436523438,47.15719985961914,9.73258686065674,-0.92790436744690,0.89303934574127,0.48108971118927,0.10254683345556,-1.19041407108307
169,1259369715,-55.40506744384766,-84.21877288818359,47.11495971679688,9.72708320617676,-0.91932374238968,0.90743052959442,0.04942610487342,0.24715612828732,-1.08035647869110
170,1259386382,-55.38809585571289,-84.21426391601562,47.10419845581055,9.74347114562988,-0.94517874717712,0.90145277976990,0.34905624389648,0.06310328841209,-0.99582171440125
171,1259403049,-55.37021636962891,-84.20874786376953,47.10964584350586,9.75999069213867,-0.93774932622910,0.90011388063431,0.91517382860184,0.06123356893659,-0.91071087121964
172,1259419716,-55.34680175781250,-84.20109558105469,47.08647537231445,9.74986934661865,-0.92742341756821,0.91281712055206,0.21433345973492,0.21684350073338,-0.86917972564697
173,1259436383,-55.30843734741211,-84.19197845458984,47.04339981079102,9.73918342590332,-0.97701269388199,0.90061008930206,-0.12099438905716,0.37372127175331,-0.86208498477936
174,1259453050,-55.24382019042969,-84.18442535400391,46.98360443115234,9.72647571563721,-0.93854123353958,0.86561185121536,0.26397085189819,0.41644322872162,-1.01809203624725
175,1259469717,-55.18486404418945,-84.17675018310547,46.92794036865234,9.72475814819336,-0.92713314294815,0.90213447809219,-0.01732699200511,0.42328184843063,-1.00317251682281
176,1259486384,-55.12524032592773,-84.16820526123047,46.86933135986328,9.74474334716797,-0.95942592620850,0.93123954534531,-0.24813582003117,0.47280400991440,-0.98427039384842
177,1259503051,-55.06071090698242,-84.16044616699219,46.80755233764648,9.73745918273926,-0.97141605615616,0.92541778087616,0.11640331149101,0.44434830546379,-1.01263654232025
178,1259519718,-55.00039291381836,-84.15245819091797,46.75092315673828,9.71333122253418,-0.93411517143250,0.92623102664948,0.12593124806881,0.42691886425018,-0.99643647670746
179,1259536385,-54.95591354370117,-84.14817047119141,46.71221923828125,9.71474933624268,-0.97950208187103,0.93049645423889,0.31422299146652,0.21120871603489,-1.09980928897858
180,1259553052,-54.92530441284180,-84.14512634277344,46.69230651855469,9.73166179656982,-0.95471656322479,0.96713775396347,0.38687342405319,0.08954839408398,-1.11644470691681
181,1259569719,-54.91214370727539,-84.14371490478516,46.67708206176758,9.72387886047363,-0.95323729515076,0.92878669500351,-0.10393632948399,-0.01235812716186,-1.16039609909058
182,1259586386,-54.91584396362305,-84.14713287353516,46.69370651245117,9.73098754882812,-1.02171647548676,0.93250483274460,0.83166360855103,-0.33673015236855,-1.27388608455658
183,1259603053,-54.92693710327148,-84.15326690673828,46.73138809204102,9.74574565887451,-0.97361874580383,0.93560600280762,1.36707139015198,-0.51555806398392,-1.35771644115448
184,1259619720,-54.94424819946289,-84.15903472900391,46.76066589355469,9.75764942169189,-0.92643189430237,0.93590945005417,0.35916048288345,-0.45114204287529,-1.38358521461487
185,1259636387,-54.94735336303711,-84.16524505615234,46.77495193481445,9.73508834838867,-0.95666766166687,0.90427160263062,0.50224578380585,-0.39981424808502,-1.43441355228424
186,1259653054,-54.97814941406250,-84.17217254638672,46.81888961791992,9.71992397308350,-0.94532376527786,0.90532344579697,0.83814352750778,-0.59581542015076,-1.35935556888580
187,1259669721,-54.98270797729492,-84.17755126953125,46.82704925537109,9.72869205474854,-0.95926678180695,0.86292266845703,0.29410418868065,-0.36204829812050,-1.40443384647369
188,1259686388,-54.96687698364258,-84.18361663818359,46.81624984741211,9.73402118682861,-0.95118111371994,0.87644773721695,0.61763101816177,-0.31481847167015,-1.49405276775360
189,1259703055,-54.95623016357422,-84.18762969970703,46.80421447753906,9.73512458801270,-0.94564765691757,0.92261189222336,-0.11482173949480,-0.20262207090855,-1.41642081737518
190,1259719722,-54.93261337280273,-84.19063568115234,46.78112411499023,9.73906898498535,-0.96185481548309,0.90318983793259,0.31978091597557,-0.14053685963154,-1.38668417930603
191,1259736389,-54.90860748291016,-84.19215393066406,46.75972366333008,9.74292564392090,-0.90330576896667,0.89219468832016,0.13831497728825,-0.07120330631733,-1.32558524608612
192,1259753056,-54.87297821044922,-84.19201660156250,46.71782302856445,9.74008464813232,-0.95460098981857,0.89951425790787,-0.28489005565643,0.08109620213509,-1.31089639663696
193,1259769723,-54.84687805175781,-84.19332885742188,46.69030761718750,9.74084281921387,-0.98262554407120,0.95012491941452,0.18019172549248,-0.05830730497837,-1.32421493530273
194,1259786390,-54.81912231445312,-84.19538879394531,46.66302490234375,9.73835086822510,-0.97837311029434,0.90842521190643,0.12961946427822,-0.07024283707142,-1.36847364902496
195,1259803057,-54.79534530639648,-84.20001983642578,46.64285278320312,9.73980808258057,-0.97858935594559,0.92443662881851,0.14780448377132,-0.17982676625252,-1.48370516300201
196,1259819724,-54.75289535522461,-84.20272064208984,46.59677505493164,9.75852394104004,-0.87724769115448,0.91451120376587,-0.29250985383987,0.01808896847069,-1.47709727287292
197,1259836391,-54.71894073486328,-84.20549774169922,46.55725860595703,9.74520587921143,-0.98407560586929,0.89604485034943,-0.16325536370277,-0.03494852781296,-1.43837082386017
198,1259853058,-54.68017959594727,-84.20816802978516,46.51937484741211,9.71690559387207,-0.96854323148727,0.92322522401810,0.23601460456848,-0.04382332786918,-1.43121194839478
199,1259869725,-54.64343261718750,-84.21236419677734,46.48558425903320,9.73993206024170,-0.97019851207733,0.93115735054016,0.20828884840012,-0.10447420179844,-1.50373435020447
200,1259886392,-54.63013839721680,-84.21924591064453,46.47436904907227,9.71397209167480,-0.93091887235641,0.91139560937881,0.05662327632308,-0.29525035619736,-1.55107927322388
201,1259903059,-54.62093734741211,-84.22382354736328,46.46430206298828,9.73679542541504,-0.94000446796417,0.89049243927002,-0.07025563716888,-0.23189738392830,-1.44342935085297
202,1259919726,-54.58279800415039,-84.22612762451172,46.42589569091797,9.78043937683105,-0.94944071769714,0.91080278158188,0.13493411242962,-0.01659702882171,-1.40816068649292
203,1259936393,-54.53665161132812,-84.22776031494141,46.39021301269531,9.76029109954834,-0.91126734018326,0.88223052024841,0.33058947324753,0.02656676806509,-1.40093767642975
204,1259953060,-54.49130630493164,-84.22647094726562,46.33603668212891,9.74324226379395,-0.95026266574860,0.84900611639023,-0.48119857907295,0.18573687970638,-1.31074261665344
205,1259969727,-54.42137527465820,-84.22300720214844,46.25789642333984,9.71697235107422,-0.94838893413544,0.86415648460388,-0.36745256185532,0.37997075915337,-1.27562749385834
206,1259986394,-54.34811782836914,-84.22032928466797,46.18035507202148,9.73690032958984,-0.91136664152145,0.87894338369370,-0.41884446144104,0.37392619252205,-1.33330762386322
207,1260003061,-54.30565261840820,-84.21890258789062,46.13296890258789,9.73039245605469,-0.94833457469940,0.90477675199509,-0.26089096069336,0.16427345573902,-1.27540993690491
208,1260019728,-54.24704742431641,-84.21762084960938,46.09221267700195,9.73766899108887,-0.94301098585129,0.89071398973465,0.26197311282158,0.19730101525784,-1.31486642360687
209,1260036395,-54.16689682006836,-84.21321105957031,46.01055908203125,9.72929573059082,-0.93576645851135,0.90885472297668,0.07556385546923,0.42951849102974,-1.24327874183655
210,1260053062,-54.08647918701172,-84.20867919921875,45.92733764648438,9.73478698730469,-0.94172388315201,0.90773302316666,-0.43093368411064,0.47630015015602,-1.27675461769104
211,1260069729,-54.01020812988281,-84.20674896240234,45.85165405273438,9.72033119201660,-0.96788865327835,0.94590789079666,-0.10494804382324,0.33997657895088,-1.36446535587311
212,1260086396,-53.97946166992188,-84.20776367187500,45.82463455200195,9.74131774902344,-0.95946598052979,0.90877342224121,0.09132848680019,-0.00414925720543,-1.33260309696198
213,1260103063,-53.95140457153320,-84.20932006835938,45.79805755615234,9.74494934082031,-0.95979791879654,0.91315656900406,0.03847667947412,-0.02924970164895,-1.34823977947235
214,1260119730,-53.93126296997070,-84.21047210693359,45.78589630126953,9.76587963104248,-0.97339123487473,0.91316747665405,0.30664163827896,-0.08078245073557,-1.29496526718140
215,1260136397,-53.90479660034180,-84.21131896972656,45.75924682617188,9.75994300842285,-0.93320643901825,0.90114319324493,0.36821457743645,-0.04186395928264,-1.29228866100311
216,1260153064,-53.84972763061523,-84.21151733398438,45.71053695678711,9.74306774139404,-0.91456222534180,0.86176502704620,0.24830870330334,0.13385838270187,-1.37143182754517
217,1260169731,-53.79398345947266,-84.20945739746094,45.65306854248047,9.72691726684570,-0.91284954547882,0.83279258012772,0.01164737436920,0.23492608964443,-1.28276085853577
218,1260186398,-53.72109985351562,-84.20570373535156,45.57294845581055,9.71169376373291,-0.92153728008270,0.87642031908035,-0.46804651618004,0.42312821745872,-1.28550136089325
219,1260203065,-53.65002822875977,-84.20069122314453,45.49709320068359,9.73544692993164,-0.96001660823822,0.88669180870056,-0.17857173085213,0.43409034609795,-1.20483422279358
220,1260219732,-53.58041000366211,-84.19687652587891,45.42337036132812,9.72582912445068,-0.93543225526810,0.93845790624619,-0.21715725958347,0.38889682292938,-1.25841593742371
221,1260236399,-53.51588058471680,-84.19410705566406,45.35806274414062,9.72019672393799,-0.95656663179398,0.90101772546768,-0.03193903714418,0.31050917506218,-1.28519415855408
222,1260253066,-53.43964385986328,-84.19029235839844,45.27929306030273,9.72723484039307,-0.91473674774170,0.87138938903809,-0.31571498513222,0.43050467967987,-1.29432499408722
223,1260269733,-53.38350677490234,-84.18688964843750,45.21833038330078,9.76008987426758,-0.93275511264801,0.87711292505264,-0.28170129656792,0.31543958187103,-1.23665809631348
224,1260286400,-53.35182189941406,-84.18574523925781,45.18183135986328,9.76651191711426,-0.96437299251556,0.93244069814682,-0.10302709043026,0.09414587169886,-1.25385689735413
225,1260303067,-53.31072998046875,-84.18439483642578,45.14656066894531,9.72239494323730,-0.90885049104691,0.93727952241898,0.14425712823868,0.13597141206264,-1.25484299659729
226,1260319734,-53.27692413330078,-84.18227386474609,45.10868835449219,9.72148418426514,-0.88075894117355,0.91076117753983,-0.11028829216957,0.14743310213089,-1.20726740360260
227,1260336401,-53.23796081542969,-84.17799377441406,45.06768035888672,9.77395629882812,-0.90254509449005,0.87038117647171,-0.13067598640919,0.25265002250671,-1.12490963935852
228,1260353068,-53.19444656372070,-84.17506408691406,45.00996780395508,9.78221035003662,-0.88433867692947,0.87802213430405,-0.84462994337082,0.28652286529541,-1.25115478038788
229,1260369735,-53.12567520141602,-84.17193603515625,44.91623687744141,9.73911476135254,-0.98232549428940,0.89675027132034,-1.33876311779022,0.45908838510513,-1.36182725429535
230,1260386402,-53.04916000366211,-84.16988372802734,44.80431365966797,9.72019577026367,-1.02719712257385,0.94912189245224,-2.09447860717773,0.51845872402191,-1.49282348155975
231,1260403069,-52.95715332031250,-84.16904449462891,44.70158004760742,9.70204639434814,-0.97253292798996,0.89070105552673,-0.41893410682678,0.41422778367996,-1.50683355331421
232,1260419736,-52.88827896118164,-84.16830444335938,44.61521148681641,9.76396465301514,-1.00819957256317,0.91151094436646,-1.08184206485748,0.34976059198380,-1.47314000129700
233,1260436403,-52.81091690063477,-84.16712951660156,44.53415298461914,9.74839878082275,-0.93493396043777,0.88983935117722,-0.03711280226707,0.32407107949257,-1.41335999965668
234,1260453070,-52.73686218261719,-84.16662597656250,44.45681381225586,9.72704982757568,-1.00376439094543,0.90079188346863,-0.32161864638329,0.30944624543190,-1.45061373710632
235,1260469737,-52.64257812500000,-84.16619110107422,44.36795425415039,9.75913238525391,-0.94974046945572,0.92945873737335,0.31584936380386,0.35364088416100,-1.49072301387787
236,1260486404,-52.52600479125977,-84.16601562500000,44.25380706787109,9.75340175628662,-0.97760963439941,0.95180356502533,0.28964763879776,0.45154550671577,-1.59387850761414
237,1260503071,-52.41933059692383,-84.16638946533203,44.13993453979492,9.72635936737061,-0.89863884449005,0.92279356718063,-0.38654688000679,0.43981489539146,-1.62506175041199
238,1260519738,-52.30389785766602,-84.16827392578125,44.01355743408203,9.73261356353760,-0.99622470140457,0.90233224630356,-0.34201917052269,0.42763602733612,-1.72025120258331
239,1260536405,-52.17627716064453,-84.16897583007812,43.89463424682617,9.78193187713623,-0.94163793325424,0.90672385692596,0.35916048288345,0.46501779556274,-1.68197321891785
240,1260553072,-52.03082275390625,-84.16497802734375,43.73647308349609,9.76568698883057,-0.92487049102783,0.86731016635895,-0.03380876779556,0.76290631294250,-1.53466188907623
241,1260569739,-51.86456680297852,-84.16011047363281,43.56613540649414,9.70554828643799,-0.93531072139740,0.89470696449280,-0.36466079950333,0.91864424943924,-1.60948920249939
242,1260586406,-51.70148468017578,-84.15645599365234,43.42053604125977,9.71946334838867,-1.04469478130341,0.90279364585876,1.06009042263031,0.74623233079910,-1.56006932258606
243,1260603073,-51.55657577514648,-84.15920257568359,43.29488754272461,9.68969249725342,-0.89884823560715,0.94701182842255,0.94251531362534,0.42709812521935,-1.80540060997009
244,1260619740,-51.43880462646484,-84.16443634033203,43.19738006591797,9.70400714874268,-0.90957826375961,0.91061455011368,0.87104302644730,0.20773819088936,-1.82941257953644
245,1260636407,-51.32655715942383,-84.17129516601562,43.09849929809570,9.72076988220215,-0.88220226764679,0.95003831386566,0.61440378427505,0.14063292741776,-1.89662039279938
246,1260653074,-51.23353576660156,-84.18058776855469,43.01517486572266,9.73566436767578,-0.89751011133194,0.91880822181702,0.60874342918396,-0.04278601706028,-1.93487286567688
247,1260669741,-51.16638946533203,-84.19293212890625,42.94670867919922,9.73672389984131,-0.93684202432632,0.93890309333801,-0.06093261018395,-0.22653149068356,-2.01582169532776
248,1260686408,-51.10876083374023,-84.20803070068359,42.89763641357422,9.74946784973145,-0.93910259008408,0.94426882266998,0.37206929922104,-0.40908610820770,-2.07959747314453
249,1260703075,-51.06821060180664,-84.22521209716797,42.85224151611328,9.74357414245605,-0.90772438049316,0.96648025512695,-0.36016577482224,-0.52467620372772,-2.17317366600037
250,1260719742,-51.04409790039062,-84.24408721923828,42.83717346191406,9.73967647552490,-0.89811879396439,0.94138604402542,0.10620947182178,-0.69040316343307,-2.14657473564148
251,1260736409,-51.03334808349609,-84.26523590087891,42.81122589111328,9.75277423858643,-0.94838267564774,0.94009757041931,-0.49880734086037,-0.79454439878464,-2.23615527153015
252,1260753076,-51.00868606567383,-84.28433990478516,42.79284286499023,9.77011871337891,-0.90812051296234,0.87200218439102,0.26733896136284,-0.71285265684128,-2.15182542800903
253,1260769743,-50.96530151367188,-84.30171203613281,42.75765228271484,9.73420906066895,-0.85637778043747,0.85427057743073,0.01992027647793,-0.54036396741867,-2.15296530723572
254,1260786410,-50.87832260131836,-84.31865692138672,42.64762878417969,9.77251052856445,-0.74310535192490,0.85781377553940,-1.34295070171356,-0.21523633599281,-2.38168644905090
255,1260803077,-50.78924179077148,-84.32777404785156,42.50169754028320,9.76669311523438,-0.98477154970169,0.89988851547241,-3.02564096450806,0.21487131714821,-2.13214206695557
256,1260819744,-50.68368530273438,-84.33552551269531,42.38594055175781,9.72477149963379,-0.93617123365402,0.85998666286469,-0.57076615095139,0.15296542644501,-1.97700572013855
257,1260836411,-50.58097457885742,-84.34203338623047,42.27639770507812,9.69996643066406,-0.99252372980118,0.87786644697189,-0.79213678836823,0.20001599192619,-1.92855966091156
258,1260853078,-50.47711944580078,-84.35108184814453,42.17737579345703,9.71896266937256,-0.94490373134613,0.87459975481033,0.36465439200401,0.02131616882980,-1.96984708309174
259,1260869745,-50.36355972290039,-84.36038208007812,42.06342697143555,9.74158477783203,-0.89711463451385,0.86948472261429,-0.09887782484293,0.09067536145449,-2.04806804656982
260,1260886412,-50.30778121948242,-84.37335968017578,42.01727676391602,9.72868919372559,-0.97797560691833,0.95817565917969,0.61736208200455,-0.37271597981453,-1.95686137676239
261,1260903079,-50.26792526245117,-84.38887786865234,42.02059555053711,9.74986553192139,-0.94803839921951,0.92390573024750,2.61960887908936,-0.69475716352463,-1.88654184341431
262,1260919746,-50.21642684936523,-84.40553283691406,42.00532531738281,9.74822616577148,-0.86931985616684,0.90642571449280,1.85499322414398,-0.62267023324966,-2.02600264549255
263,1260936413,-50.22479248046875,-84.42356872558594,42.04336929321289,9.71107769012451,-0.96902817487717,0.97501623630524,1.72092342376709,-0.93681007623672,-1.86871504783630
264,1260953080,-50.26113510131836,-84.44564819335938,42.16097259521484,9.72128582000732,-1.02226233482361,0.87034434080124,4.73519325256348,-1.45149755477905,-1.77802109718323
265,1260969747,-50.27478408813477,-84.46714019775391,42.24819564819336,9.74641609191895,-0.82562470436096,0.84989959001541,4.07187557220459,-1.26425576210022,-1.86561620235443
266,1260986414,-50.23732757568359,-84.48661804199219,42.27359008789062,9.74616146087646,-0.76994216442108,0.87864243984222,3.60337996482849,-0.92913901805878,-1.99773919582367
267,1261003081,-50.19955062866211,-84.50409698486328,42.24644851684570,9.77815437316895,-0.75611019134521,0.85884410142899,0.55413722991943,-0.62151777744293,-2.09547758102417
268,1261019748,-50.16188049316406,-84.51966857910156,42.20975494384766,9.76430892944336,-0.81490248441696,0.87309157848358,-0.24314136803150,-0.48828050494194,-2.05394673347473
269,1261036415,-50.10541152954102,-84.53259277343750,42.14145278930664,9.77738285064697,-0.79934948682785,0.86505866050720,-0.85913962125778,-0.26013538241386,-2.03895020484924
270,1261053082,-50.00089263916016,-84.54084777832031,42.01163864135742,9.76650619506836,-0.81117838621140,0.81612384319305,-1.58394074440002,0.18094731867313,-2.04992532730103
271,1261069749,-49.92981338500977,-84.54882049560547,41.90224838256836,9.70035076141357,-0.96058058738708,0.92347824573517,-2.54747748374939,0.11754307150841,-1.96718335151672
272,1261086416,-49.88266372680664,-84.56034088134766,41.88381958007812,9.71694278717041,-1.04869306087494,0.85877066850662,1.86240839958191,-0.45178243517876,-1.77122056484222
273,1261103083,-49.89686965942383,-84.57495117187500,41.92114639282227,9.72380065917969,-0.91658014059067,0.89465045928955,1.24512946605682,-0.79189348220825,-1.72536122798920
274,1261119750,-49.91128540039062,-84.58676910400391,41.97967910766602,9.74970626831055,-0.94464409351349,0.93111759424210,2.60723829269409,-0.78194296360016,-1.51097011566162
275,1261136417,-49.91904449462891,-84.59862518310547,42.04568862915039,9.75546073913574,-0.87373691797256,0.89763319492340,3.52117681503296,-0.82164275646210,-1.48339819908142
276,1261153084,-49.89688491821289,-84.60984039306641,42.07876968383789,9.79556846618652,-0.72098404169083,0.84537440538406,3.39079475402832,-0.65366166830063,-1.56864976882935
277,1261169751,-49.87173843383789,-84.61679077148438,42.06448364257812,9.75844192504883,-0.74158871173859,0.85780429840088,0.60076516866684,-0.28302034735680,-1.56607592105865
278,1261186418,-49.83369064331055,-84.62528228759766,42.02597045898438,9.72740840911865,-0.80671322345734,0.85978913307190,-0.16221804916859,-0.22216457128525,-1.71850979328156
279,1261203085,-49.81352615356445,-84.63644409179688,41.98328399658203,9.70628452301025,-0.84252947568893,0.82066684961319,-1.33109200000763,-0.32001790404320,-1.84658610820770
280,1261219752,-49.76663208007812,-84.64466857910156,41.91486358642578,9.73570251464844,-0.76860821247101,0.87389707565308,-1.47453594207764,-0.08299795538187,-1.82325267791748
281,1261236419,-49.80091094970703,-84.65276336669922,41.92488861083984,9.74967670440674,-0.98100906610489,0.89447218179703,-1.58150744438171,-0.41634723544121,-1.52401983737946
282,1261253086,-49.79303741455078,-84.65969848632812,41.92920303344727,9.76394271850586,-0.88198602199554,0.85552930831909,0.82153379917145,-0.36742702126503,-1.48419201374054
283,1261269753,-49.75562667846680,-84.66590118408203,41.89675140380859,9.73672866821289,-0.87983870506287,0.82104218006134,0.19070576131344,-0.16228204965591,-1.59071505069733
284,1261286420,-49.72422027587891,-84.67248535156250,41.85265350341797,9.73591804504395,-0.81585484743118,0.88051635026932,-0.87574934959412,-0.13395442068577,-1.66129076480865
285,1261303087,-49.73199462890625,-84.67792510986328,41.86485290527344,9.76075172424316,-0.95738655328751,0.91068667173386,-0.11988023668528,-0.29869526624680,-1.40586817264557
286,1261319754,-49.75442886352539,-84.68300628662109,41.92866897583008,9.76984596252441,-0.89484602212906,0.87375962734222,2.43880939483643,-0.53570240736008,-1.18918478488922
287,1261336421,-49.83792495727539,-84.68964385986328,42.05044174194336,9.71722030639648,-0.95721453428268,0.91125285625458,2.06672072410583,-0.83155471086502,-1.06609034538269
288,1261353088,-49.88516235351562,-84.69378662109375,42.16230010986328,9.74374771118164,-0.85041093826294,0.86880278587341,3.78124833106995,-0.69762611389160,-0.97494751214981
289,1261369755,-49.90704345703125,-84.69803619384766,42.21853637695312,9.76916313171387,-0.77895855903625,0.80281001329422,2.13381314277649,-0.48095530271530,-1.17869639396667
290,1261386422,-49.88895034790039,-84.69673919677734,42.22175598144531,9.74633216857910,-0.72680026292801,0.79150831699371,1.19919300079346,-0.02214217744768,-1.11367869377136
291,1261403089,-49.84836959838867,-84.69448089599609,42.16559600830078,9.72519493103027,-0.78409373760223,0.76658689975739,-0.94857913255692,0.25691458582878,-1.28769123554230
292,1261419756,-49.77865600585938,-84.69352722167969,42.07581329345703,9.69675540924072,-0.80172353982925,0.86645728349686,-1.18687963485718,0.35552346706390,-1.46198558807373
293,1261436423,-49.71403884887695,-84.69696044921875,41.98426437377930,9.72710323333740,-0.86935633420944,0.90821444988251,-1.70411527156830,0.20221866667271,-1.67153608798981
294,1261453090,-49.64134597778320,-84.69615173339844,41.87950515747070,9.79301166534424,-0.71123439073563,0.86457067728043,-2.16875505447388,0.42338424921036,-1.55200135707855
295,1261469757,-49.55455398559570,-84.69023895263672,41.70766448974609,9.81607246398926,-0.78733485937119,0.91315382719040,-5.11908245086670,0.90198326110840,-1.53226709365845
296,1261486424,-49.74976730346680,-84.69540405273438,41.92126846313477,9.63907146453857,-1.64053833484650,0.91058754920959,1.16060757637024,-1.18700790405273,-0.65462225675583
297,1261503091,-49.87571334838867,-84.70639038085938,42.17287445068359,9.75843334197998,-0.78718757629395,0.94589024782181,7.32965803146362,-1.54019439220428,-0.79021596908569
298,1261519758,-50.00256729125977,-84.71910095214844,42.36817169189453,9.71194362640381,-0.82565844058990,0.86915391683578,4.09332513809204,-1.38012742996216,-1.06233775615692
299,1261536425,-50.09946823120117,-84.72720336914062,42.50692367553711,9.74732780456543,-0.75621330738068,0.82546013593674,2.32375717163086,-0.95868343114853,-1.08376300334930
300,1261553092,-50.13504791259766,-84.73735046386719,42.57856750488281,9.76043701171875,-0.74739217758179,0.75124663114548,2.14756727218628,-0.74863362312317,-1.38810586929321
301,1261569759,-50.17627716064453,-84.74197387695312,42.61892318725586,9.78210830688477,-0.71591496467590,0.83460503816605,-0.18602505326271,-0.40655040740967,-1.27032601833344
302,1261586426,-50.14175033569336,-84.73698425292969,42.56300735473633,9.81597328186035,-0.71529519557953,0.83778154850006,-1.33273136615753,0.37493792176247,-1.15154707431793
303,1261603093,-50.08477401733398,-84.73072814941406,42.44761657714844,9.81585216522217,-0.76229995489120,0.85618484020233,-3.52187490463257,0.66647458076477,-1.31608319282532
304,1261619760,-50.18565750122070,-84.73095703125000,42.52809906005859,9.66732597351074,-1.39459776878357,0.86272656917572,-1.37769436836243,-0.39822629094124,-0.91608953475952
305,1261636427,-50.17814636230469,-84.73366546630859,42.58293533325195,9.73967838287354,-0.77315557003021,0.85336446762085,3.85617852210999,-0.40438616275787,-1.10586690902710
306,1261653094,-50.13232803344727,-84.73467254638672,42.54567718505859,9.70446491241455,-0.82018673419952,0.76347112655640,0.23702634871006,0.07427042722702,-1.39093613624573
307,1261669761,-50.04748535156250,-84.73377990722656,42.43684005737305,9.74490261077881,-0.76306837797165,0.77344369888306,-1.28486096858978,0.42556133866310,-1.52382731437683
308,1261686428,-49.92162322998047,-84.73292541503906,42.30932617187500,9.76882553100586,-0.84198254346848,0.78966361284256,-0.56122553348541,0.54932200908661,-1.62969779968262
309,1261703095,-49.79521179199219,-84.72850036621094,42.15652847290039,9.75779628753662,-0.73143142461777,0.82835459709167,-1.90575146675110,0.78467708826065,-1.55131018161774
310,1261719762,-49.63961029052734,-84.72325897216797,41.96035766601562,9.75042533874512,-0.79929310083389,0.82389605045319,-2.41458630561829,0.97492831945419,-1.64944529533386
311,1261736429,-49.54753112792969,-84.72032928466797,41.78531265258789,9.71205902099609,-0.91034471988678,1.07412755489349,-4.77752447128296,0.77819705009460,-1.67769598960876
312,1261753096,-49.61902236938477,-84.72786712646484,41.91838836669922,9.66193962097168,-1.30543577671051,0.83727425336838,3.76086068153381,-0.91032677888870,-1.03767323493958
313,1261769763,-49.71953964233398,-84.74372100830078,42.05847930908203,9.72402763366699,-0.74638676643372,0.89980226755142,2.49852538108826,-1.26526749134064,-1.39033436775208
314,1261786430,-49.86430740356445,-84.76452636718750,42.25334548950195,9.70839023590088,-0.84815138578415,0.87879067659378,2.68955731391907,-1.66947412490845,-1.47653365135193
315,1261803097,-50.05751419067383,-84.79109954833984,42.45854949951172,9.74224567413330,-0.85916697978973,0.90300142765045,0.77208840847015,-1.94368386268616,-1.67097258567810
316,1261819764,-50.22541427612305,-84.81541442871094,42.64546966552734,9.75266933441162,-0.74116498231888,0.79410177469254,1.25392735004425,-1.77982664108276,-1.63907194137573
317,1261836431,-50.38224029541016,-84.83612823486328,42.78841018676758,9.80642318725586,-0.76232826709747,0.79349732398987,-0.95495671033859,-1.44003570079803,-1.65473413467407
318,1261853098,-50.49949645996094,-84.85186004638672,42.89545822143555,9.75197315216064,-0.68859207630157,0.80254960060120,-1.16180491447449,-1.06173610687256,-1.57588553428650
319,1261869765,-50.58841323852539,-84.86943054199219,42.91278076171875,9.84957027435303,-0.43815371394157,0.78447723388672,-4.35260915756226,-0.79088175296783,-1.94337642192841
320,1261886432,-50.71929931640625,-84.87734985351562,42.84400939941406,9.73661994934082,-0.81911784410477,0.97928059101105,-11.97322654724121,-0.07038373500109,-1.79283869266510
321,1261903099,-51.08640289306641,-84.89255523681641,43.16406631469727,9.68765544891357,-1.56066393852234,0.90227288007736,-2.92987537384033,-1.95792460441589,-0.81310081481934
322,1261919766,-51.45874023437500,-84.91426849365234,43.62902832031250,9.68159008026123,-1.07266664505005,0.79560762643814,5.34792518615723,-2.79228377342224,-0.64581143856049
323,1261936433,-51.76264572143555,-84.93759918212891,43.99279022216797,9.74846935272217,-0.80705857276917,0.77818137407303,3.46297168731689,-2.43662571907043,-1.08829641342163
324,1261953100,-52.00693893432617,-84.95834350585938,44.25585937500000,9.71978473663330,-0.89535856246948,0.70308583974838,1.19249522686005,-1.92948150634766,-1.30432677268982
325,1261969767,-52.16287612915039,-84.98206329345703,44.44204330444336,9.72601985931396,-0.78158324956894,0.63362067937851,1.64487957954407,-1.69255113601685,-1.71712648868561
326,1261986434,-52.28137207031250,-85.00476074218750,44.56074905395508,9.71660137176514,-0.71988391876221,0.67385572195053,-0.00991211552173,-1.36913955211639,-1.87094354629517
327,1262003101,-52.32456207275391,-85.02378082275391,44.58832168579102,9.77478313446045,-0.78333693742752,0.77064824104309,-1.23442971706390,-0.83980208635330,-2.01805019378662
328,1262019768,-52.24434280395508,-85.03221893310547,44.47978210449219,9.78569030761719,-0.75332909822464,0.75528395175934,-1.93332326412201,0.10312312096357,-1.95623385906219
329,1262036435,-52.10652160644531,-85.03450012207031,44.28673934936523,9.77901744842529,-0.75714194774628,0.66802197694778,-3.46190285682678,0.68235445022583,-1.91326904296875
330,1262053102,-51.90786743164062,-85.03153991699219,44.01701736450195,9.73463535308838,-0.76557201147079,0.72316759824753,-4.22372674942017,1.16250288486481,-1.92566537857056
331,1262069769,-51.76363372802734,-85.03221893310547,43.80584716796875,9.67896366119385,-0.91072636842728,0.72233551740646,-4.01344633102417,0.79461491107941,-1.90611028671265
332,1262086436,-51.70963668823242,-85.03932189941406,43.73729705810547,9.67939853668213,-1.04262793064117,0.78784358501434,-0.98792004585266,-0.01824904605746,-1.74690103530884
333,1262103103,-51.64487075805664,-85.04638671875000,43.68966293334961,9.73737907409668,-0.78654062747955,0.79815858602524,1.17856180667877,-0.12347880005836,-1.66522228717804
334,1262119770,-51.57932662963867,-85.05161285400391,43.62201309204102,9.76409626007080,-0.85559004545212,0.79085183143616,0.12265280634165,0.01506667025387,-1.64629471302032
335,1262136437,-51.51070022583008,-85.05858612060547,43.56266784667969,9.75438785552979,-0.85446614027023,0.81042528152466,0.00891962274909,-0.02558708935976,-1.74092090129852
336,1262153104,-51.48307418823242,-85.06748199462891,43.53350830078125,9.72185993194580,-0.77974760532379,0.77456623315811,-0.05090524256229,-0.26210758090019,-1.69889044761658
337,1262169771,-51.47212219238281,-85.07797241210938,43.52020263671875,9.70413875579834,-0.81672799587250,0.77982288599014,-0.28278982639313,-0.36816978454590,-1.72647535800934
338,1262186438,-51.49570465087891,-85.09080505371094,43.54038619995117,9.72782230377197,-0.79759460687637,0.81709283590317,-0.19605240225792,-0.60982555150986,-1.73140561580658
339,1262203105,-51.52697372436523,-85.10327148437500,43.56828308105469,9.73702430725098,-0.76867604255676,0.81026452779770,-0.24848161637783,-0.61936628818512,-1.68937540054321
340,1262219772,-51.58546066284180,-85.11441040039062,43.60803985595703,9.76205253601074,-0.77142065763474,0.76707714796066,-1.09531414508820,-0.62124872207642,-1.58276224136353
341,1262236439,-51.59302139282227,-85.12231445312500,43.59497833251953,9.76730346679688,-0.75792765617371,0.75063854455948,-1.38747835159302,-0.27080306410789,-1.60448205471039
342,1262253106,-51.57062911987305,-85.12702178955078,43.52560806274414,9.78170108795166,-0.66039121150970,0.73328471183777,-2.86827659606934,0.06356431543827,-1.63797044754028
343,1262269773,-51.56224822998047,-85.13538360595703,43.45067977905273,9.71647834777832,-0.45826297998428,0.72520834207535,-3.87459945678711,-0.05937023460865,-1.81053614616394
344,1262286440,-51.60896301269531,-85.13912963867188,43.33178710937500,9.85473728179932,-0.54695409536362,0.80517280101776,-10.17021751403809,0.30719244480133,-1.76440823078156
345,1262303107,-51.70636367797852,-85.13832092285156,43.26086044311523,9.79017353057861,-1.07096803188324,0.83249688148499,-10.03235721588135,0.27274334430695,-1.36668121814728
346,1262319774,-51.79501724243164,-85.14380645751953,43.28222656250000,9.76499748229980,-1.00419461727142,0.79308664798737,-4.00760650634766,-0.33126184344292,-1.37719476222992
347,1262336441,-51.88092803955078,-85.15596771240234,43.27470016479492,9.78022575378418,-0.65814530849457,0.81304007768631,-5.79539775848389,-0.45062974095345,-1.80314648151398
348,1262353108,-51.97779464721680,-85.16954040527344,43.21220397949219,9.75654983520508,-0.82840627431870,0.76991039514542,-9.06511878967285,-0.32524293661118,-1.99981451034546
349,1262369775,-52.10689926147461,-85.19058990478516,43.19630050659180,9.69577980041504,-1.03146636486053,0.81938391923904,-8.61365509033203,-0.75426858663559,-2.22585940361023
350,1262386442,-52.30134963989258,-85.22509002685547,43.32031250000000,9.68249034881592,-0.98085325956345,0.80576616525650,-4.36117744445801,-1.79457974433899,-2.45611739158630
351,1262403109,-52.51749420166016,-85.26530456542969,43.47393417358398,9.71546554565430,-0.92651855945587,0.81391853094101,-4.21112489700317,-2.08078885078430,-2.64851975440979
352,1262419776,-52.68858337402344,-85.30886077880859,43.59403610229492,9.70974636077881,-0.96901881694794,0.72906064987183,-3.18291616439819,-2.08790946006775,-2.91098642349243
353,1262436443,-52.80890274047852,-85.35510253906250,43.68588256835938,9.66428852081299,-0.90799826383591,0.64713859558105,-2.13227009773254,-2.04176759719849,-3.14280605316162
354,1262453110,-52.87619781494141,-85.40594482421875,43.72265625000000,9.65907192230225,-0.81288266181946,0.62892943620682,-1.77288556098938,-2.02240443229675,-3.50867128372192
355,1262469777,-52.99581909179688,-85.47039031982422,43.82604217529297,9.66787719726562,-0.74418669939041,0.68987506628036,-0.93584966659546,-2.75618267059326,-3.96438479423523
356,1262486444,-53.16678619384766,-85.53823089599609,43.95648956298828,9.73188018798828,-0.64911192655563,0.72531992197037,-2.46974325180054,-2.97398018836975,-4.08394527435303
357,1262503111,-53.39500427246094,-85.60934448242188,44.13999557495117,9.80063724517822,-0.71910166740417,0.72077786922455,-2.79164361953735,-3.25507950782776,-4.09180831909180
358,1262519778,-53.53867340087891,-85.67976379394531,44.23424148559570,9.82623481750488,-0.56314915418625,0.70285767316818,-2.94620347023010,-2.89008617401123,-4.31907033920288
359,1262536445,-53.65336990356445,-85.74191284179688,44.19308471679688,9.87872028350830,-0.50375074148178,0.62550532817841,-9.41343975067139,-2.08753800392151,-4.29783821105957
360,1262553112,-53.73084640502930,-85.79495239257812,44.06277084350586,9.73679161071777,-0.72279095649719,0.54604721069336,-12.66753768920898,-1.43022692203522,-4.10270929336548
361,1262569779,-53.68022155761719,-85.84848022460938,43.80632019042969,9.78488922119141,-0.77783942222595,0.58605319261551,-11.86118412017822,-1.04763698577881,-4.41787338256836
362,1262586446,-53.51894378662109,-85.90480804443359,43.48482894897461,9.74067211151123,-0.91102081537247,0.63762366771698,-9.97042655944824,-0.88675057888031,-4.75446176528931
363,1262603113,-53.22453689575195,-85.96371459960938,43.07518386840820,9.75125789642334,-0.75892901420593,0.66043823957443,-6.85887718200684,-0.72682458162308,-5.06483602523804
364,1262619780,-52.94816970825195,-86.03005218505859,42.65754318237305,9.77718353271484,-0.56827235221863,0.72256767749786,-8.33832073211670,-1.00878214836121,-5.41379690170288
365,1262636447,-52.74757003784180,-86.10610198974609,42.30319213867188,9.66235446929932,-0.78736436367035,0.68859249353409,-8.93292045593262,-1.62189924716949,-5.69149017333984
366,1262653114,-52.85279083251953,-86.19069671630859,42.20026779174805,9.59840488433838,-0.67382031679153,0.88914048671722,-12.52157115936279,-2.75483965873718,-5.48285007476807
367,1262669781,-53.22198867797852,-86.28084564208984,42.30039978027344,9.55730056762695,-0.76077336072922,0.63607972860336,-16.22270393371582,-3.57976245880127,-5.26278734207153
368,1262686448,-53.61454391479492,-86.39408111572266,42.48598480224609,9.75736713409424,-0.72023659944534,0.72321009635925,-12.50590991973877,-4.63261127471924,-6.20803689956665
369,1262703115,-53.93212127685547,-86.52740478515625,42.63082885742188,9.81702327728271,-0.59395557641983,0.68801683187485,-10.51261043548584,-5.15487813949585,-7.29681921005249
370,1262719782,-54.33382034301758,-86.68637084960938,42.86340332031250,9.84720897674561,-0.73472452163696,0.77760463953018,-10.35766792297363,-6.25093698501587,-8.40710544586182
371,1262736449,-54.99566268920898,-86.87770843505859,43.41810989379883,9.78064346313477,-0.76380473375320,0.84102147817612,-6.54255056381226,-8.15152835845947,-9.40985488891602
372,1262753116,-56.08028411865234,-87.10890197753906,44.45775604248047,9.68772506713867,-0.74437665939331,0.73145174980164,-2.77376770973206,-10.54473114013672,-10.69409179687500
373,1262769783,-57.97558212280273,-87.38192749023438,46.32318496704102,9.68348789215088,-0.70486694574356,0.80379569530487,-1.98031198978424,-13.40454864501953,-11.84674453735352
374,1262786450,-60.87271118164062,-87.68218231201172,49.25455474853516,9.76503849029541,-0.62650305032730,0.68827205896378,1.86250042915344,-15.69915962219238,-12.66585636138916
375,1262803117,-64.94641113281250,-87.99787902832031,53.34751510620117,9.77490997314453,-0.60224360227585,0.57949227094650,0.99241030216217,-16.88883399963379,-13.52990341186523
376,1262819784,-71.05806732177734,-88.31507110595703,59.46646118164062,9.80814075469971,-0.34079602360725,0.59172147512436,0.22274763882160,-18.17677497863770,-13.94736957550049
377,1262836451,-80.08825683593750,-88.61605834960938,68.48505401611328,9.85993957519531,-0.43789467215538,0.56384640932083,-0.80534172058105,-18.83068466186523,-14.43361568450928
378,1262853118,-93.89868164062500,-88.86719512939453,82.25987243652344,9.98756122589111,-0.22826577723026,0.60852110385895,-2.21978044509888,-19.66727828979492,-14.51737213134766
379,1262869785,-113.45732879638672,-89.00672912597656,101.61479187011719,9.89909744262695,-0.12735594809055,0.57755488157272,-12.21351242065430,-20.28280067443848,-14.19424819946289
380,1262886452,-137.90742492675781,-88.95920562744141,125.83937835693359,9.64806938171387,-0.34725022315979,0.35063850879669,-13.52825260162354,-23.71255111694336,-15.01000308990479
381,1262903119,-159.71510314941406,-88.66294860839844,147.54946899414062,9.46960735321045,-0.30782395601273,0.42824137210846,-6.15149021148682,-28.80937957763672,-16.71230125427246
382,1262919786,-174.36842346191406,-88.13827514648438,162.05187988281250,9.37240791320801,-0.17567066848278,0.76771575212479,-9.53452396392822,-35.22973251342773,-18.63151550292969
383,1262936453,177.73655700683594,-87.45508575439453,169.83296203613281,9.90053367614746,-0.83026570081711,1.24095821380615,-7.32492733001709,-40.85130310058594,-18.20055580139160
384,1262953120,173.91323852539062,-86.73385620117188,173.77119445800781,10.53962898254395,-0.01528977788985,0.22294607758522,6.48125743865967,-41.92545318603516,-16.36646652221680
385,1262969787,171.35882568359375,-86.01262664794922,176.22035217285156,10.63343429565430,0.98059654235840,-0.08166856318712,-6.68818902969360,-41.50787734985352,-15.98406314849854
386,1262986454,169.53369140625000,-85.29751586914062,177.71154785156250,10.65242862701416,0.61563932895660,0.06644603610039,-20.35443687438965,-41.03430557250977,-15.00242900848389
387,1263003121,168.27281188964844,-84.61457061767578,177.77009582519531,11.18410301208496,0.76387965679169,2.17106628417969,-72.18872070312500,-40.08074951171875,-9.37541007995605
388,1263019788,167.47976684570312,-84.32998657226562,176.82151794433594,11.28036880493164,-1.48137855529785,-0.80182313919067,-104.24483489990234,-17.84542846679688,0.58307683467865
389,1263036455,166.55380249023438,-83.74862670898438,177.25633239746094,9.54363822937012,0.15908536314964,-0.62089693546295,-29.65304374694824,-33.34761428833008,-11.68017101287842
390,1263053122,165.10102844238281,-82.92759704589844,178.40821838378906,9.79534435272217,0.02398654632270,-0.33507046103477,-18.57002067565918,-45.74215316772461,-21.03879165649414
391,1263069789,163.78373718261719,-81.92576599121094,179.63008117675781,9.63701915740967,0.00506636872888,-0.70853722095490,-6.41379976272583,-55.27101135253906,-26.63392448425293
392,1263086456,162.73904418945312,-80.85813140869141,-179.50198364257812,9.81464290618896,-0.28425031900406,-0.97565078735352,-11.23694992065430,-59.06514739990234,-27.11559295654297
393,1263103123,162.19477844238281,-79.82704925537109,-179.07147216796875,9.62082386016846,-1.15243232250214,-1.69425880908966,-7.23367834091187,-57.67046356201172,-23.97513961791992
394,1263119790,162.07649230957031,-78.93959808349609,-179.12968444824219,9.48770236968994,-1.55110001564026,-1.52694988250732,-10.56879425048828,-50.87983322143555,-16.93241310119629
395,1263136457,162.08648681640625,-78.30757141113281,-179.47660827636719,9.24632167816162,-0.71094083786011,0.57186329364777,-19.84387779235840,-37.35158157348633,-8.97542762756348
396,1263153124,161.49798583984375,-78.04272460937500,-179.62290954589844,8.83638954162598,0.34254989027977,2.12453579902649,-43.93138504028320,-15.68447780609131,-4.48242282867432
397,1263169791,160.51124572753906,-78.16652679443359,-179.71170043945312,8.78861236572266,-1.03591346740723,1.58491039276123,-64.43991851806641,6.62627506256104,2.22290134429932
398,1263186458,159.61781311035156,-78.65702056884766,-179.58343505859375,9.10930442810059,-0.46656724810600,2.14751672744751,-46.08959960937500,28.14507102966309,7.33894014358521
399,1263203125,158.57611083984375,-79.46424865722656,-179.26809692382812,8.91033172607422,-0.19722685217857,2.02362895011902,-43.94111251831055,46.45723342895508,12.67314052581787
400,1263219792,157.59757995605469,-80.54044342041016,-178.81994628906250,9.15497684478760,-0.72020059823990,1.84196376800537,-32.23896789550781,61.55749893188477,18.50024223327637
401,1263236459,156.90786743164062,-81.83038330078125,-178.19584655761719,9.42221450805664,-0.64577668905258,1.73294138908386,-4.38298892974854,73.48758697509766,23.35651397705078
402,1263253126,156.22534179687500,-83.30475616455078,-177.10240173339844,9.65652942657471,-0.38195091485977,1.47098171710968,24.11408996582031,84.38149261474609,26.08549118041992
403,1263269793,154.60539245605469,-84.94840240478516,-174.61865234375000,9.84190368652344,-0.18434196710587,1.01640093326569,51.08617782592773,95.75805664062500,25.78409576416016
404,1263286460,150.38844299316406,-86.71968078613281,-169.31008911132812,9.96873283386230,-0.14005205035210,0.64813387393951,64.76617431640625,104.43550109863281,26.96931266784668
405,1263303127,133.07092285156250,-88.60184478759766,-151.22717285156250,10.53221321105957,0.48486843705177,0.55984711647034,45.45971679687500,113.88275146484375,31.62670707702637
406,1263319794,25.42467308044434,-88.98702239990234,-43.11590576171875,10.56641197204590,0.62770640850067,0.06230731308460,25.36051559448242,118.19331359863281,34.34154891967773
407,1263336461,-3.22474098205566,-87.06909179687500,-14.18708992004395,10.71242618560791,0.33920633792877,0.25021642446518,16.48783874511719,118.46678924560547,37.18869018554688
408,1263353128,-9.56041240692139,-85.02877807617188,-7.60871648788452,10.58398532867432,0.24187800288200,0.54324501752853,13.83289241790771,117.75156402587891,39.47618484497070
409,1263369795,-12.37194919586182,-83.01559448242188,-4.56079816818237,10.56411647796631,0.06709968298674,0.65782999992371,13.26535701751709,114.60121917724609,40.43816375732422
410,1263386462,-13.72827434539795,-81.07784271240234,-2.78347110748291,10.52209949493408,-0.06985849142075,0.51910853385925,24.26502609252930,109.71685791015625,39.38987350463867
411,1263403129,-14.37424945831299,-79.25213623046875,-1.56675434112549,10.52177810668945,-0.17326635122299,0.28032487630844,33.17990112304688,103.08639526367188,37.46112060546875
412,1263419796,-14.61001205444336,-77.56935119628906,-0.70231121778488,10.39921092987061,0.01992803066969,0.15677627921104,36.65910720825195,95.02863311767578,34.12789154052734
413,1263436463,-14.68404483795166,-76.05574798583984,-0.08340502530336,9.95446205139160,0.23805056512356,0.22027841210365,31.70472145080566,85.62334442138672,29.93739891052246
414,1263453130,-14.70186424255371,-74.74041748046875,0.39115393161774,9.88761425018311,0.14660005271435,0.32876574993134,26.46920967102051,74.43264007568359,25.74240875244141
415,1263469797,-14.71317195892334,-73.61808776855469,0.78154200315475,9.66838932037354,0.24290674924850,0.43800982832909,21.84059333801270,63.44228744506836,22.05836868286133
416,1263486464,-14.86054897308350,-72.69187164306641,1.15375447273254,9.49329376220703,0.40054088830948,0.46973097324371,12.51256847381592,52.01692962646484,19.23094749450684
417,1263503131,-15.23493194580078,-71.96517181396484,1.52511322498322,9.32712459564209,0.49090826511383,0.58696097135544,-1.25317370891571,40.29463195800781,16.64358139038086
418,1263519798,-15.84069824218750,-71.44329833984375,1.90278851985931,9.18577766418457,0.36486324667931,0.61529940366745,-14.85519886016846,28.21767616271973,14.03615951538086
419,1263536465,-16.55931854248047,-71.13448333740234,2.25888490676880,9.30719375610352,0.02792444080114,0.70299249887466,-22.90627479553223,15.84167671203613,10.54677104949951
420,1263553132,-17.24179840087891,-71.02124786376953,2.56246876716614,9.54743194580078,-0.23392638564110,0.97259819507599,-23.74438285827637,4.74941873550415,6.42312240600586
421,1263569799,-17.75442695617676,-71.07305145263672,2.80315709114075,9.46923732757568,-0.36677280068398,1.25178301334381,-17.12549018859863,-4.40117597579956,2.33588743209839
422,1263586466,-18.06033515930176,-71.23561096191406,2.98563718795776,9.55102443695068,-0.45678457617760,1.52444148063660,-8.01923942565918,-10.39077091217041,-0.83678013086319
423,1263603133,-18.18954849243164,-71.46017456054688,3.13352084159851,9.62841606140137,-0.44730159640312,1.61566746234894,0.62639111280441,-13.70418834686279,-2.69584107398987
424,1263619800,-18.23133850097656,-71.71498870849609,3.29278326034546,9.62007999420166,-0.45803269743919,1.66909885406494,6.53153276443481,-15.47738456726074,-3.11006331443787
425,1263636467,-18.22275733947754,-71.97054290771484,3.48294234275818,9.66683673858643,-0.44401940703392,1.79698431491852,11.32997894287109,-15.69164276123047,-2.61906862258911
426,1263653134,-18.25661849975586,-72.20078277587891,3.71848869323730,9.55008697509766,-0.41443064808846,1.98552358150482,11.38846492767334,-14.49227333068848,-1.39316606521606
427,1263669801,-18.41062736511230,-72.40575408935547,4.01787233352661,9.54937839508057,-0.37838295102119,2.15137290954590,7.84404277801514,-13.39873123168945,0.11977148056030
428,1263686468,-18.70394897460938,-72.60034179687500,4.37011671066284,9.58843517303467,-0.54213786125183,2.32729005813599,2.52941584587097,-13.10105800628662,1.11255872249603
429,1263703135,-19.11266517639160,-72.78836059570312,4.76600694656372,9.68857765197754,-0.57870692014694,2.45500516891479,-1.87419772148132,-12.96656608581543,1.83547782897949
430,1263719802,-19.62541198730469,-72.97670745849609,5.18723392486572,9.64388561248779,-0.52788394689560,2.49836492538452,-6.64139032363892,-13.13288307189941,2.07814550399780
431,1263736469,-20.23957824707031,-73.18366241455078,5.63757705688477,9.55301666259766,-0.46818456053734,2.46424651145935,-11.02876377105713,-14.35999488830566,1.96634685993195
432,1263753136,-20.95104026794434,-73.42929840087891,6.12482023239136,9.46717453002930,-0.34183657169342,2.52560424804688,-14.71586513519287,-16.75328254699707,1.48486673831940
433,1263769803,-21.67864990234375,-73.72377777099609,6.60160493850708,9.43190765380859,-0.29096654057503,2.64735412597656,-16.24947547912598,-19.40024185180664,-0.07674863189459
434,1263786470,-22.37734985351562,-74.07998657226562,7.06795549392700,9.56636524200439,-0.17257665097713,2.70938134193420,-15.07153797149658,-22.71841049194336,-2.01172924041748
435,1263803137,-23.05949783325195,-74.49687957763672,7.50642681121826,9.58323478698730,-0.09058377891779,2.86313915252686,-15.63698768615723,-25.82203674316406,-4.27682256698608
436,1263819804,-23.67640113830566,-74.96684265136719,7.91925764083862,9.43130779266357,-0.11844545602798,2.77743458747864,-13.15348815917969,-28.46641731262207,-6.38289976119995
437,1263836471,-24.14028549194336,-75.50183868408203,8.27998256683350,8.94617652893066,0.03508933261037,2.72167563438416,-6.93716239929199,-31.57844352722168,-9.15258026123047
438,1263853138,-24.59902572631836,-76.11859130859375,8.66377067565918,7.98332643508911,-0.17281740903854,2.57982563972473,-5.23527526855469,-36.02779769897461,-11.30969142913818
439,1263869805,-24.71806144714355,-76.81582641601562,8.98550033569336,6.54461717605591,-0.01204010471702,2.59158015251160,11.58835887908936,-39.88598251342773,-14.52501010894775
440,1263886472,-24.98883438110352,-77.63948822021484,9.57865428924561,4.44407224655151,0.19875597953796,2.43667697906494,18.42801666259766,-48.14158630371094,-14.80872154235840
441,1263903139,-25.38868713378906,-78.56595611572266,10.40536880493164,1.60212397575378,1.36085069179535,2.66831827163696,24.50960540771484,-54.63448715209961,-15.57110500335693
442,1263919806,-26.10007476806641,-79.61935424804688,11.56491565704346,-0.64751499891281,2.18217658996582,3.21171140670776,25.59516334533691,-62.62236404418945,-16.75051879882812
443,1263936473,-27.25356864929199,-80.80332946777344,13.20931243896484,-0.07889081537724,2.01908707618713,3.22533488273621,27.97920989990234,-70.97364044189453,-18.04428291320801
444,1263953140,-29.75293922424316,-82.16060638427734,15.98166942596436,2.29134416580200,0.88486665487289,2.22698307037354,14.50593566894531,-83.26085662841797,-18.31140899658203
445,1263969807,-34.90368270874023,-83.55764770507812,20.56592941284180,4.85623264312744,0.80260753631592,3.10150146484375,-36.16179275512695,-89.00434875488281,-16.97251701354980
446,1263986474,-44.08826828002930,-84.91300201416016,28.61570549011230,4.58536291122437,0.17249341309071,2.09637594223022,-70.55904388427734,-93.39814758300781,-15.17370796203613
447,1264003141,-59.37254714965820,-86.02186584472656,42.42603302001953,3.91745400428772,-1.54750072956085,1.98072969913483,-91.02648162841797,-92.27504730224609,-12.25346279144287
448,1264019808,-81.36020660400391,-86.71306610107422,63.34803771972656,2.48836088180542,-2.10112953186035,2.84345722198486,-66.36688995361328,-88.57383728027344,-12.68342399597168
449,1264036475,-105.42196655273438,-86.88209533691406,86.72882080078125,1.23662745952606,-1.82867097854614,5.40967082977295,-42.87697982788086,-77.67788696289062,-15.68816471099854
450,1264053142,-127.38158416748047,-86.70693969726562,108.69058990478516,0.53728997707367,0.14931729435921,7.52492618560791,-1.78944098949432,-70.61539459228516,-24.83015060424805
451,1264069809,-145.95602416992188,-86.41838073730469,127.05000305175781,1.11384880542755,1.38175284862518,10.34490489959717,-14.81130313873291,-57.78814697265625,-37.64906692504883
452,1264086476,-161.51828002929688,-86.21716308593750,142.58045959472656,-0.29228472709656,-5.77854633331299,10.32308387756348,-3.81053066253662,-37.25345611572266,-49.69283676147461
453,1264103143,-179.03729248046875,-85.04931640625000,162.40663146972656,1.84225499629974,-25.69685745239258,-81.18051147460938,134.96174621582031,-83.13221740722656,-78.72198486328125
454,1264119810,-175.96485900878906,-75.91939544677734,169.22570800781250,44.15176773071289,22.45048904418945,44.99383163452148,587.61218261718750,-549.29516601562500,-45.10078430175781
455,1264136477,-176.84655761718750,-72.93191528320312,168.73315429687500,44.56476593017578,-25.91192626953125,-5.20171451568604,-81.40847015380859,-178.24697875976562,17.96283721923828
456,1264153144,-177.83314514160156,-69.17720794677734,171.45512390136719,66.11593627929688,22.62171554565430,-9.93781089782715,95.24146270751953,-227.29039001464844,-43.75370407104492
457,1264169811,175.88865661621094,-65.62944030761719,174.03329467773438,-7.87168931961060,-3.03426194190979,-8.01992130279541,-233.77120971679688,-211.67221069335938,-64.25537109375000
458,1264186478,176.32862854003906,-62.96004867553711,175.16184997558594,-7.83101701736450,-2.47229814529419,-9.90915584564209,87.34299468994141,-157.65898132324219,-41.36940765380859
459,1264203145,175.45626831054688,-61.13468170166016,174.24519348144531,17.71265792846680,5.36563062667847,-9.85130596160889,-100.97732543945312,-110.95524597167969,16.67792701721191
460,1264219812,174.88557434082031,-60.28062057495117,174.37513732910156,15.41948699951172,-1.24781167507172,-8.73876667022705,-27.49770927429199,-50.61297988891602,-9.30178546905518
461,1264236479,175.16284179687500,-59.66557693481445,173.87213134765625,7.88129377365112,4.62254619598389,-7.44865751266479,-9.55191421508789,-37.94836807250977,10.65643692016602
462,1264253146,175.69412231445312,-59.48458862304688,172.64044189453125,16.26527404785156,5.06397438049316,-9.06493473052979,-31.90021133422852,-13.68242073059082,35.25682449340820
463,1264269813,176.78820800781250,-59.82705688476562,171.34405517578125,16.71551322937012,3.58245921134949,-9.91043663024902,-1.53222584724426,18.04779434204102,39.37926101684570
464,1264286480,178.78898620605469,-60.79917526245117,169.71728515625000,15.70048046112061,4.98574590682983,-10.43191528320312,35.19820404052734,56.52906417846680,49.37908172607422
465,1264303147,-178.99125671386719,-62.47486114501953,167.93870544433594,15.11239147186279,5.02587127685547,-10.85692787170410,39.22380828857422,100.55244445800781,49.70413589477539
466,1264319814,-176.77095031738281,-65.34904479980469,165.76214599609375,16.04260253906250,4.16109561920166,-10.75020694732666,15.85197257995605,174.52795410156250,49.85401153564453
467,1264336481,-174.86558532714844,-69.98133850097656,163.00828552246094,23.61821937561035,1.57976031303406,-9.61909580230713,-38.64324188232422,281.77859497070312,41.21989059448242
468,1264353148,-172.76734924316406,-76.58621215820312,159.12033081054688,35.95504760742188,3.26618194580078,-2.42910122871399,-97.79096984863281,401.01760864257812,22.93156623840332
469,1264369815,-170.28602600097656,-84.78413391113281,152.46853637695312,39.36816024780273,-4.25274848937988,5.44589185714722,-245.41110229492188,494.93768310546875,-9.48870086669922
470,1264386482,-82.68713378906250,-89.30142211914062,63.74488067626953,52.65251541137695,2.41606402397156,-6.38750648498535,-66.06861114501953,316.34539794921875,-3.85482430458069
471,1264403149,-36.19338989257812,-84.30956268310547,10.22861671447754,0.27713823318481,-14.76818084716797,-70.84918212890625,-418.94348144531250,285.14355468750000,136.23251342773438
472,1264419816,-30.60134124755859,-81.40225982666016,0.60219633579254,-29.90703392028809,8.21865940093994,27.06556701660156,-237.67520141601562,184.63282775878906,34.38329696655273
473,1264436483,-55.14859008789062,-83.40219116210938,16.95552444458008,11.25455951690674,-16.53816795349121,-28.75952339172363,-500.01547241210938,-175.07357788085938,13.00015354156494
474,1264453150,-58.73994827270508,-85.79975128173828,22.31259155273438,-7.74263191223145,-3.16409397125244,16.22050476074219,104.39043426513672,-103.44186401367188,-104.79644012451172
475,1264469817,-87.37612915039062,-86.93880462646484,53.60269165039062,5.02737998962402,-12.96642017364502,4.13364648818970,155.84909057617188,-131.92152404785156,-29.40576362609863
476,1264486484,-109.01307678222656,-87.33054351806641,81.92386627197266,2.09564852714539,3.17655992507935,14.22168731689453,399.25784301757812,-80.64505004882812,-35.71424102783203
477,1264503151,-101.25601959228516,-87.64749145507812,79.50571441650391,2.53501081466675,0.79559302330017,6.85033321380615,320.36605834960938,11.24632549285889,-17.67089653015137
478,1264519818,-63.87891387939453,-87.79513549804688,45.55088043212891,0.65525299310684,7.73911046981812,8.72121715545654,206.49668884277344,79.30587005615234,-19.91551780700684
479,1264536485,-40.38800811767578,-87.10186767578125,21.84486389160156,0.48228037357330,4.44755125045776,3.99297618865967,-11.61262798309326,75.05246734619141,-8.39719390869141
480,1264553152,-32.84554290771484,-85.73239898681641,12.70586299896240,-0.71419024467468,-1.12539851665497,1.84309065341949,-94.69812774658203,86.02716827392578,19.76774597167969
481,1264569819,-33.27149200439453,-84.38978576660156,11.18320751190186,-0.56211429834366,-1.64376580715179,-0.62755650281906,-116.55630493164062,71.74460601806641,36.03470611572266
482,1264586486,-35.82524108886719,-83.20722198486328,11.62254333496094,-0.42327407002449,-0.40779608488083,0.96656423807144,-127.01138305664062,56.83692932128906,41.34057617187500
483,1264603153,-38.24371337890625,-82.29426574707031,12.27841377258301,0.09793135523796,0.97418791055679,2.15881252288818,-106.08458709716797,40.80428695678711,35.74885559082031
484,1264619820,-39.30963897705078,-81.53524780273438,12.22510147094727,0.94034111499786,-0.37587451934814,2.55351209640503,-67.13775634765625,35.87019348144531,26.96452331542969
485,1264636487,-37.84496307373047,-80.88958740234375,11.11607265472412,0.94682425260544,-1.94208049774170,2.79410791397095,22.10581970214844,36.73006820678711,15.00767135620117
486,1264653154,-33.76194381713867,-80.26617431640625,8.66350555419922,1.30449378490448,2.29203104972839,2.63587880134583,99.79767608642578,44.54002761840820,1.13388991355896
487,1264669821,-30.08280754089355,-79.61679840087891,6.09823322296143,0.69570636749268,3.38921952247620,2.08849787712097,69.18045043945312,47.39571762084961,-3.41738200187683
488,1264686488,-27.53383064270020,-78.93002319335938,3.77505755424500,0.56531995534897,2.44017362594604,0.80967313051224,15.96081161499023,48.71559524536133,-4.07035732269287
489,1264703155,-26.21490478515625,-78.19644927978516,1.82219827175140,0.19640655815601,0.68899816274643,0.32086375355721,-35.73573684692383,49.87190246582031,-2.01551556587219
490,1264719822,-26.10707473754883,-77.46209716796875,0.49179646372795,0.25210925936699,-0.93504053354263,0.04969815164804,-71.58465576171875,47.07635879516602,3.14044809341431
491,1264736489,-26.50694084167480,-76.70203399658203,-0.20333924889565,0.45207494497299,-2.39127516746521,0.20736040174961,-64.67090606689453,45.12694168090820,10.67847537994385
492,1264753156,-26.59418678283691,-75.89024353027344,-0.62761586904526,0.75488281250000,-1.09788310527802,0.38619083166122,-29.98966979980469,46.38088226318359,15.20293235778809
493,1264769823,-26.68758010864258,-75.01569366455078,-0.85076117515564,0.54111576080322,0.82253438234329,0.44323083758354,-18.58554649353027,48.52463150024414,19.34984016418457
494,1264786490,-26.81840133666992,-74.16457366943359,-1.02539205551147,-0.74621015787125,2.60506677627563,0.80247747898102,-17.97294807434082,46.97146224975586,19.33095169067383
495,1264803157,-27.12760162353516,-73.63308715820312,-1.24533307552338,-2.13677334785461,1.14256954193115,0.37745872139931,-31.25993919372559,30.20673370361328,10.03819179534912
496,1264819824,-26.82427215576172,-73.63850402832031,-1.36717784404755,-1.20019686222076,-0.87290775775909,-2.11802482604980,11.15388202667236,0.78078436851501,-3.14169383049011
497,1264836491,-25.52115440368652,-74.24564361572266,-1.54184734821320,0.39621102809906,0.33024984598160,-3.93086028099060,68.08731079101562,-31.27554893493652,-19.83090019226074
498,1264853158,-24.69430923461914,-75.39507293701172,-1.44578897953033,-0.46820363402367,2.98719406127930,-3.13872981071472,55.13247299194336,-62.93022918701172,-29.04890823364258
499,1264869825,-26.45415496826172,-77.40882873535156,0.20344087481499,-1.78843426704407,3.69889116287231,-7.01333189010620,-9.44598484039307,-118.84286499023438,-32.29896926879883
500,1264886492,-32.18996810913086,-80.02381896972656,5.50670719146729,0.17351937294006,3.53388953208923,-14.28931522369385,-32.08099365234375,-166.93838500976562,-23.57039451599121
501,1264903159,-50.10194015502930,-83.88435363769531,24.00882720947266,3.72923088073730,5.13809204101562,-24.69895172119141,25.14187431335449,-273.77960205078125,-34.75294876098633
502,1264919826,-129.05903625488281,-85.62162780761719,105.09932708740234,20.28299522399902,-10.13806915283203,-76.49673461914062,114.31696319580078,-410.51467895507812,-77.26776885986328
503,1264936493,-148.34599304199219,-81.81163024902344,125.03913879394531,64.73427581787109,-45.93782806396484,51.90060043334961,32.66608810424805,-254.81193542480469,49.05083465576172
504,1264953160,-162.62854003906250,-75.57965087890625,143.06506347656250,72.55029296875000,-23.83682250976562,32.06998062133789,205.10054016113281,-423.45132446289062,-40.37786865234375
505,1264969827,-171.83090209960938,-77.72966003417969,154.96261596679688,47.15805053710938,36.27677154541016,9.33477687835693,142.58366394042969,88.85792541503906,-190.06636047363281
506,1264986494,-172.86157226562500,-73.93360137939453,160.20281982421875,-19.44677734375000,-6.17431974411011,-41.79222869873047,242.99452209472656,-235.58712768554688,-47.17519378662109
507,1265003161,-176.67036437988281,-73.31296539306641,162.66493225097656,0.49158936738968,20.11083030700684,8.91133499145508,-86.83003997802734,-40.73291778564453,-39.27186203002930
508,1265019828,-178.24084472656250,-72.78044891357422,161.75646972656250,-18.97633552551270,-4.79726552963257,-26.68422698974609,-146.39315795898438,-31.07530784606934,16.13451576232910
509,1265036495,-175.70886230468750,-73.04950714111328,158.68739318847656,17.33986854553223,9.23460292816162,-3.40143799781799,-24.13445281982422,19.10627555847168,52.00403976440430
510,1265053162,-172.28784179687500,-74.36428070068359,153.98846435546875,25.69642829895020,2.17055916786194,0.23263975977898,-65.39540100097656,86.77841186523438,69.25786590576172
511,1265069829,-169.37026977539062,-75.77619171142578,149.89299011230469,18.75344276428223,-0.84882968664169,-2.13521718978882,-62.41451644897461,93.77679443359375,47.85393524169922
512,1265086496,-167.55361938476562,-76.63866424560547,146.84140014648438,10.51098060607910,1.09705531597137,-1.14120125770569,-68.84430694580078,59.54174423217773,31.27404022216797
513,1265103163,-167.10171508789062,-77.31990814208984,144.80836486816406,7.32604074478149,-2.19234633445740,-2.82579350471497,-91.74914550781250,46.02381515502930,16.70269584655762
514,1265119830,-166.14709472656250,-78.16227722167969,143.50885009765625,4.56624507904053,-5.04942846298218,-5.69422197341919,-18.94039535522461,53.10938262939453,3.26773715019226
515,1265136497,-164.46423339843750,-79.24197387695312,142.43695068359375,4.44756364822388,-2.93570113182068,-4.89420652389526,37.87191772460938,65.96119689941406,-5.39476013183594
516,1265153164,-162.59465026855469,-80.48078918457031,140.86215209960938,4.62976551055908,-1.09167349338531,-3.44986057281494,19.13667297363281,76.07578277587891,-6.26523399353027
517,1265169831,-159.38359069824219,-81.76975250244141,137.76387023925781,5.86108732223511,-0.99225199222565,-2.43215870857239,8.96500205993652,82.51175689697266,0.80450809001923
518,1265186498,-153.29466247558594,-83.01860046386719,131.73728942871094,7.78236627578735,1.16932761669159,-0.93449062108994,6.87930822372437,87.81395721435547,12.70318508148193
519,1265203165,-144.71928405761719,-84.08189392089844,122.67351531982422,9.45530414581299,2.52133989334106,1.07959783077240,-25.91351890563965,86.03601074218750,18.53781127929688
520,1265219832,-134.50465393066406,-84.85262298583984,111.80552673339844,10.06512928009033,0.54610472917557,1.51706254482269,-36.22702407836914,75.88047790527344,17.00350189208984
521,1265236499,-123.39640045166016,-85.31575775146484,100.55707550048828,10.32646179199219,-1.44690704345703,1.04034662246704,-6.01109409332275,62.49657821655273,13.80950069427490
522,1265253166,-112.83523559570312,-85.59407043457031,90.32649230957031,9.49956321716309,-1.72575652599335,1.28652763366699,21.67280197143555,50.93950653076172,7.19416809082031
523,1265269833,-103.58249664306641,-85.73014831542969,81.47853088378906,9.49375915527344,-2.30793881416321,1.35608661174774,25.72230911254883,40.91809082031250,3.73087263107300
524,1265286500,-95.51782989501953,-85.78541564941406,73.68068695068359,11.03446102142334,-1.01584041118622,1.53697299957275,17.20781135559082,34.92304611206055,1.36404371261597
525,1265303167,-89.30752563476562,-85.82777404785156,67.72575378417969,11.12197685241699,-0.54073834419250,1.00810897350311,16.21339988708496,26.44457054138184,-2.58915829658508
526,1265319834,-84.99327087402344,-85.86331939697266,63.88188552856445,10.23012256622314,0.12226741760969,0.39237341284752,28.77355575561523,16.78858375549316,-4.11098241806030
527,1265336501,-81.92119598388672,-85.90012359619141,61.44983291625977,10.17949485778809,-0.31638270616531,-0.02615682221949,38.73239135742188,10.34221744537354,-4.54873847961426
528,1265353168,-77.70116424560547,-85.84480285644531,57.35822296142578,10.36974906921387,0.91769260168076,1.75881445407867,8.28880119323730,18.18766212463379,-1.02845382690430
529,1265369835,-73.45014190673828,-85.68947601318359,52.55474090576172,9.07796382904053,-0.67208278179169,0.80218225717545,-32.40402221679688,23.12503433227539,2.49171328544617
530,1265386502,-70.64894866943359,-85.56531524658203,49.47120666503906,9.32183742523193,-2.00395536422729,0.73759347200394,-16.44603347778320,15.89679908752441,1.54819464683533
531,1265403169,-68.43110656738281,-85.50481414794922,47.38515090942383,9.24701881408691,-0.77696681022644,0.79663652181625,8.24937629699707,10.56558513641357,-1.18478024005890
532,1265419836,-67.31278228759766,-85.49620056152344,46.34128570556641,9.25691127777100,-0.38170909881592,0.60072749853134,4.62640285491943,4.89812803268433,-2.54422497749329
533,1265436503,-67.26213073730469,-85.54692840576172,46.42941284179688,9.31975841522217,-0.66290622949600,0.54788243770599,8.27777767181396,-1.41718959808350,-3.80337214469910
534,1265453170,-67.66192626953125,-85.61354064941406,46.80545425415039,9.94975471496582,-0.71417152881622,1.46990907192230,-1.52642738819122,-3.00133466720581,-4.17119503021240
535,1265469837,-66.49003601074219,-85.57637023925781,45.57661819458008,9.59398841857910,-1.36682736873627,0.00782828591764,-3.23407721519470,6.23870992660522,-1.32358753681183
536,1265486504,-65.04591369628906,-85.53678131103516,44.15625000000000,9.78743267059326,-0.38664364814758,0.17698019742966,1.64386820793152,7.15285348892212,-1.72057187557220
537,1265503171,-63.00341415405273,-85.43923950195312,41.91656112670898,9.81442737579346,-0.22380666434765,0.27671372890472,-11.45082187652588,12.22899436950684,-0.56050890684128
538,1265519838,-60.57843017578125,-85.29526519775391,39.26219940185547,9.87756538391113,-0.59244441986084,0.32873636484146,-13.27825641632080,15.57819652557373,0.32218903303146
539,1265536505,-58.15922546386719,-85.12432098388672,36.66237258911133,9.76880073547363,-0.21232753992081,0.46372386813164,-10.32764244079590,16.59330368041992,0.98578923940659
540,1265553172,-55.99645233154297,-84.94856262207031,34.22430419921875,9.61356830596924,-0.26696589589119,0.37669479846954,-15.99704074859619,16.50341415405273,0.76148611307144
541,1265569839,-54.62335205078125,-84.82210540771484,32.53305435180664,9.56120681762695,-0.60796725749969,0.89055025577545,-18.71887969970703,11.90345191955566,-0.09914692491293
542,1265586506,-53.71484375000000,-84.77101135253906,31.45733451843262,9.64001560211182,-1.22772908210754,0.84572029113770,-9.80355930328369,6.69098186492920,-2.10713219642639
543,1265603173,-52.84066390991211,-84.77186584472656,30.61729240417480,9.81688404083252,-1.16350877285004,0.83943885564804,2.22576284408569,3.79323482513428,-3.96114516258240
544,1265619840,-52.11748886108398,-84.79113006591797,29.88340377807617,9.78183650970459,-0.49618250131607,1.32912874221802,-0.49353110790253,2.62078785896301,-4.51883602142334
545,1265636507,-51.68640518188477,-84.81692504882812,29.27007675170898,9.84455204010010,-0.99912881851196,0.96619212627411,-10.82129383087158,1.81247711181641,-4.43712043762207
546,1265653174,-51.14048767089844,-84.86569213867188,28.77835083007812,9.61534023284912,-0.99888867139816,0.48857635259628,3.34117031097412,0.39551767706871,-5.09992361068726
547,1265669841,-50.29424285888672,-84.90246582031250,28.06122398376465,9.89063358306885,-0.17974804341793,0.53007453680038,7.88026666641235,1.72568798065186,-5.29392862319946
548,1265686508,-49.76553726196289,-84.92128753662109,27.41606712341309,9.93145465850830,-0.04751261323690,0.94910120964050,-6.86918687820435,2.04982972145081,-4.23667526245117
549,1265703175,-49.05635452270508,-84.90541839599609,26.51916313171387,9.97026729583740,-0.53335589170456,0.52735322713852,-11.08570575714111,4.39014053344727,-3.54698944091797
550,1265719842,-48.18759155273438,-84.87390899658203,25.51390647888184,9.80123043060303,-0.32403472065926,0.65195488929749,-7.98788690567017,5.42894029617310,-3.30081200599670
551,1265736509,-47.36106491088867,-84.82180786132812,24.59163284301758,9.92652034759521,-0.50341528654099,0.65210521221161,-5.54850530624390,5.91889715194702,-2.20051527023315
552,1265753176,-46.53587722778320,-84.75234222412109,23.72091674804688,9.95164680480957,-0.24623873829842,1.04299426078796,-2.54257321357727,6.44801712036133,-1.37398076057434
553,1265769843,-45.82643890380859,-84.67387390136719,22.87217140197754,9.79941463470459,-0.50096625089645,0.63740640878677,-8.17319583892822,6.78220176696777,-1.02461087703705
554,1265786510,-45.11846160888672,-84.60301208496094,22.08708953857422,9.63272380828857,-0.60688650608063,0.81775271892548,-4.45343446731567,6.25957155227661,-1.22437691688538
555,1265803177,-44.47821426391602,-84.53456878662109,21.40604400634766,9.76543045043945,-0.53117102384567,0.94374942779541,-2.29669094085693,5.77448034286499,-1.02019238471985
556,1265819844,-43.84859085083008,-84.47476196289062,20.77362632751465,9.77450656890869,-0.49030438065529,1.11798799037933,-0.02338439598680,5.24529600143433,-1.27136325836182
557,1265836511,-43.45220947265625,-84.42680358886719,20.29373359680176,9.72168827056885,-0.44625183939934,1.12769329547882,-4.90339851379395,4.13316679000854,-1.19954538345337
558,1265853178,-43.07153701782227,-84.39895629882812,19.89712715148926,9.70873546600342,-0.64590406417847,0.99411457777023,-0.87492978572845,2.94099736213684,-1.70531904697418
559,1265869845,-42.71667861938477,-84.36312866210938,19.54459762573242,9.85575771331787,-0.51612812280655,0.73217272758484,0.21146486699581,3.12010693550110,-1.21607816219330
560,1265886512,-42.35067749023438,-84.29978942871094,19.08723449707031,9.74055862426758,-0.37630489468575,0.81386274099350,-5.37947368621826,4.76695251464844,-0.59152531623840
561,1265903179,-41.97786331176758,-84.22497558593750,18.65305519104004,9.82896995544434,-0.59730356931686,0.94589096307755,-3.58540701866150,5.21207666397095,-0.07809313386679
562,1265919846,-41.47949981689453,-84.14137268066406,18.13726615905762,9.79311275482178,-0.36563333868980,0.81814312934875,-0.91288799047470,5.95772600173950,-0.17403830587864
563,1265936513,-41.08280944824219,-84.06076812744141,17.67076492309570,9.69274806976318,-0.42378169298172,0.96757352352142,-4.07140827178955,5.66721487045288,-0.13267381489277
564,1265953180,-40.74998092651367,-84.00090026855469,17.32805061340332,9.68442249298096,-0.68063384294510,1.10773861408234,-0.50576120615005,4.23711538314819,-0.43567204475403
565,1265969847,-40.38689422607422,-83.97579193115234,17.07041931152344,9.68735599517822,-0.72117775678635,1.21908330917358,6.38024663925171,2.33507847785950,-1.40518999099731
566,1265986514,-40.04174041748047,-83.96457672119141,16.88625335693359,9.76480007171631,-0.62814074754715,1.05121409893036,9.68880748748779,1.40144419670105,-1.60644173622131
567,1266003181,-39.77995300292969,-83.96295166015625,16.76613426208496,9.69067382812500,-0.37630093097687,0.93412762880325,8.50909709930420,0.70055228471756,-1.67099857330322
568,1266019848,-39.64697265625000,-83.97087860107422,16.74005889892578,9.74771213531494,-0.53329491615295,1.03920042514801,6.39574098587036,-0.13460753858089,-1.59236717224121
569,1266036515,-39.59821319580078,-83.99822235107422,16.85885810852051,9.73181247711182,-0.63030654191971,0.99940842390060,9.97970390319824,-1.60011553764343,-1.61759626865387
570,1266053182,-39.55843353271484,-84.06356811523438,17.11734771728516,9.69023418426514,-0.63800638914108,0.71468967199326,17.78081130981445,-3.91275382041931,-2.40178227424622
571,1266069849,-39.41375732421875,-84.17643737792969,17.42798995971680,9.70970726013184,-0.42338779568672,0.71128720045090,27.19113540649414,-6.30088186264038,-3.97817492485046
572,1266086516,-39.28167343139648,-84.30088806152344,17.70872306823730,9.83068180084229,-0.27235212922096,0.99656289815903,24.64551544189453,-6.69531679153442,-4.56296491622925
573,1266103183,-39.22058486938477,-84.42254638671875,17.98044395446777,9.77627563476562,-0.63025909662247,0.93504750728607,19.86144638061523,-6.53101873397827,-4.52671909332275
574,1266119850,-38.92749404907227,-84.52811431884766,18.08176231384277,9.91529464721680,-0.52796745300293,0.85546863079071,23.60198020935059,-5.14320755004883,-4.68310022354126
575,1266136517,-38.49250411987305,-84.58380126953125,17.91641235351562,9.88685321807861,-0.35629174113274,0.95748758316040,16.18997573852539,-1.87578642368317,-3.97348141670227
576,1266153184,-38.04475784301758,-84.59474182128906,17.61759948730469,9.86240577697754,-0.49296924471855,0.99871224164963,8.98417663574219,0.66806274652481,-2.89107322692871
577,1266169851,-37.61153030395508,-84.57902526855469,17.25790405273438,9.77667903900146,-0.47038188576698,1.05509567260742,4.47774696350098,2.13332676887512,-2.18471240997314
578,1266186518,-37.27195358276367,-84.55130004882812,16.93264007568359,9.74402141571045,-0.55683863162994,1.05811262130737,0.91936129331589,2.56739759445190,-1.62340962886810
579,1266203185,-36.99098968505859,-84.51666259765625,16.67447090148926,9.76455974578857,-0.71058195829391,1.09219634532928,1.40610516071320,2.68270611763000,-1.07767987251282
580,1266219852,-36.75692367553711,-84.49600982666016,16.49221611022949,9.76884555816650,-0.60451716184616,1.15376687049866,3.12951970100403,1.75278604030609,-1.25083470344543
581,1266236519,-36.62374496459961,-84.48490905761719,16.42620468139648,9.74643421173096,-0.57011842727661,1.04209625720978,4.01813936233521,0.88961225748062,-1.06474554538727
582,1266253186,-36.55736541748047,-84.47557830810547,16.39821624755859,9.76049518585205,-0.46622553467751,1.01035904884338,2.28152179718018,0.67652750015259,-0.95043611526489
583,1266269853,-36.48109817504883,-84.46707153320312,16.35976791381836,9.73640918731689,-0.52673333883286,0.89442420005798,2.24881410598755,0.67020106315613,-1.03203809261322
584,1266286520,-36.45917129516602,-84.46834564208984,16.36738967895508,9.73005294799805,-0.59836411476135,1.00999593734741,1.73467767238617,0.05427971109748,-1.15688717365265
585,1266303187,-36.44145584106445,-84.47571563720703,16.41952514648438,9.77743625640869,-0.57973659038544,0.91527241468430,4.14562702178955,-0.40109488368034,-1.17119193077087
586,1266319854,-36.43232727050781,-84.48754119873047,16.44816207885742,9.72212028503418,-0.33879259228706,1.03692317008972,2.22575020790100,-0.53624022006989,-1.44132900238037
587,1266336521,-36.53034973144531,-84.50545501708984,16.56644821166992,9.80119037628174,-0.68058842420578,1.09088432788849,1.15139973163605,-1.13699877262115,-1.24290740489960
588,1266353188,-36.57662582397461,-84.52886199951172,16.68554306030273,9.82056236267090,-0.59703981876373,0.92379587888718,4.30353021621704,-1.40524101257324,-1.44030487537384
589,1266369855,-36.58635330200195,-84.54878234863281,16.75380134582520,9.79072666168213,-0.36967071890831,0.90399634838104,3.46343326568604,-1.05717706680298,-1.54910755157471
590,1266386522,-36.61025619506836,-84.56105804443359,16.78602027893066,9.75086498260498,-0.40521374344826,0.82381820678711,0.45874267816544,-0.57444167137146,-1.44871830940247
591,1266403189,-36.61913681030273,-84.57429504394531,16.79874992370605,9.77010154724121,-0.55552256107330,0.94391751289368,0.19491904973984,-0.54977655410767,-1.56870102882385
592,1266419856,-36.64921951293945,-84.59188079833984,16.87121200561523,9.76942634582520,-0.59369701147079,1.00316190719604,2.49277544021606,-0.95772296190262,-1.45011425018311
593,1266436523,-36.70896911621094,-84.62061309814453,16.98080635070801,9.74322986602783,-0.46591615676880,1.04351472854614,2.93222498893738,-1.62032330036163,-1.68541800975800
594,1266453190,-36.84123611450195,-84.65635681152344,17.15444374084473,9.72103404998779,-0.57563716173172,0.95686250925064,2.40110754966736,-2.16314649581909,-1.64808773994446
595,1266469857,-36.97559356689453,-84.69108581542969,17.33154296875000,9.82446956634521,-0.59657984972000,0.98291331529617,2.48347806930542,-2.12061643600464,-1.60723543167114
596,1266486524,-37.01562881469727,-84.72385406494141,17.47098922729492,9.81907176971436,-0.52109915018082,0.83601027727127,5.89728069305420,-1.90636646747589,-1.71843314170837
597,1266503191,-37.05292129516602,-84.74771118164062,17.55345726013184,9.83378219604492,-0.31163626909256,0.76027834415436,2.65742635726929,-1.28131377696991,-1.64684545993805
598,1266519858,-37.02355957031250,-84.75857543945312,17.52463340759277,9.78849220275879,-0.34630110859871,0.79223513603210,0.00882997922599,-0.29865691065788,-1.67507076263428
599,1266536525,-37.00401306152344,-84.76355743408203,17.47574615478516,9.71249771118164,-0.54340016841888,0.84872293472290,-1.78068470954895,0.05471513047814,-1.54637956619263
600,1266553192,-36.96753692626953,-84.77468109130859,17.44976997375488,9.76378154754639,-0.55612194538116,0.98356723785400,0.60246837139130,-0.31127116084099,-1.66296863555908
601,1266569859,-36.97227096557617,-84.79162597656250,17.47098922729492,9.77425765991211,-0.55161428451538,0.98116153478622,0.94971239566803,-0.74969649314880,-1.67011451721191
602,1266586526,-36.99923706054688,-84.81276702880859,17.52273368835449,9.79802036285400,-0.39956423640251,0.95760881900787,1.44306433200836,-1.05051767826080,-1.68849170207977
603,1266603193,-37.07747650146484,-84.82872772216797,17.60074043273926,9.82012844085693,-0.55407434701920,0.89426368474960,-0.06220043823123,-0.89477962255478,-1.39431691169739
604,1266619860,-37.10263061523438,-84.84311676025391,17.65045928955078,9.80913066864014,-0.44131764769554,0.86041122674942,1.42823457717896,-0.71846187114716,-1.45599246025085
605,1266636527,-37.12459182739258,-84.85463714599609,17.68576431274414,9.75347232818604,-0.45131927728653,0.84309947490692,0.76030659675598,-0.53446018695831,-1.41507589817047
606,1266653194,-37.19260787963867,-84.86764526367188,17.75514221191406,9.74391841888428,-0.49268430471420,0.88408595323563,0.03245769813657,-0.71910220384598,-1.32646894454956
607,1266669861,-37.27719497680664,-84.88029479980469,17.85763168334961,9.75665664672852,-0.48196873068810,0.86295598745346,1.01875150203705,-0.80544257164001,-1.17046201229095
608,1266686528,-37.37409973144531,-84.89592742919922,17.97263526916504,9.77390098571777,-0.57604825496674,0.91934776306152,1.02776718139648,-0.99005889892578,-1.23083102703094
609,1266703195,-37.43412399291992,-84.91142272949219,18.07039260864258,9.79089164733887,-0.47682482004166,0.89991426467896,2.20729589462280,-0.92874205112457,-1.30350708961487
610,1266719862,-37.51475143432617,-84.92638397216797,18.14857673645020,9.78773307800293,-0.37636494636536,0.84582549333572,-0.20178967714310,-0.82407581806183,-1.35683262348175
611,1266736529,-37.61075973510742,-84.94409942626953,18.21457481384277,9.68163013458252,-0.51633793115616,0.86522841453552,-1.84855806827545,-0.92756384611130,-1.52175295352936
612,1266753196,-37.70716094970703,-84.96526336669922,18.32809448242188,9.72776794433594,-0.61874181032181,0.85191917419434,0.97499233484268,-1.24855506420135,-1.45601809024811
613,1266769863,-37.81388092041016,-84.98800659179688,18.47592544555664,9.80084228515625,-0.45237955451012,0.87072551250458,2.39238643646240,-1.41093969345093,-1.35788297653198
614,1266786530,-37.93195343017578,-85.00813293457031,18.61502456665039,9.79773807525635,-0.44006130099297,0.85260242223740,1.20055055618286,-1.28156995773315,-1.32377958297729
615,1266803197,-38.03920745849609,-85.02629852294922,18.71985435485840,9.77947235107422,-0.46797880530357,0.85407173633575,-0.20137986540794,-1.06569325923920,-1.38768339157104
616,1266819864,-38.11626434326172,-85.04338073730469,18.78875350952148,9.76374626159668,-0.51566189527512,0.85169595479965,-0.53549742698669,-0.90008151531219,-1.50200545787811
617,1266836531,-38.20153808593750,-85.06132507324219,18.86228179931641,9.77182674407959,-0.50294607877731,0.83880418539047,-0.75580507516861,-0.94513416290283,-1.50915145874023
618,1266853198,-38.28070068359375,-85.07765960693359,18.93237876892090,9.75160789489746,-0.45105913281441,0.83191388845444,-0.59084665775299,-0.87229180335999,-1.47741758823395
619,1266869865,-38.36436462402344,-85.09443664550781,19.00105094909668,9.74077796936035,-0.51389718055725,0.88610786199570,-0.94670927524567,-0.87921977043152,-1.49573016166687
620,1266886532,-38.43160247802734,-85.10823822021484,19.08519172668457,9.79961013793945,-0.54369473457336,0.78381818532944,0.96440148353577,-0.78515732288361,-1.32313930988312
621,1266903199,-38.44556427001953,-85.11405181884766,19.09702682495117,9.79621219635010,-0.38886511325836,0.80707246065140,-0.16210277378559,-0.18566645681858,-1.32160258293152
622,1266919866,-38.42414855957031,-85.11293029785156,19.04508018493652,9.76030826568604,-0.48746699094772,0.82158219814301,-1.85775315761566,0.35460144281387,-1.31057631969452
623,1266936533,-38.38689041137695,-85.10916137695312,18.97712326049805,9.75782680511475,-0.48798546195030,0.84159672260284,-1.85355281829834,0.51516747474670,-1.28764009475708
624,1266953200,-38.32373428344727,-85.10555267333984,18.88546943664551,9.74296760559082,-0.51392531394958,0.85604763031006,-1.72186505794525,0.58396321535110,-1.39075696468353
625,1266969867,-38.26887893676758,-85.10539245605469,18.81050109863281,9.78168678283691,-0.44531029462814,0.86529588699341,-1.22195613384247,0.37730705738068,-1.44424879550934
626,1266986534,-38.25808334350586,-85.10663604736328,18.76694297790527,9.77482604980469,-0.51734274625778,0.85273814201355,-1.99076008796692,0.20942865312099,-1.37066364288330
627,1267003201,-38.24797058105469,-85.10752105712891,18.73984718322754,9.80433464050293,-0.48752823472023,0.87494564056396,-1.04314124584198,0.16039313375950,-1.30188071727753
628,1267019868,-38.25510787963867,-85.11012268066406,18.72986221313477,9.78273868560791,-0.47515723109245,0.84284967184067,-1.05847060680389,0.04785092920065,-1.27774095535278
629,1267036535,-38.26171112060547,-85.11693572998047,18.71425247192383,9.72082233428955,-0.51852190494537,0.86871302127838,-1.36184000968933,-0.15058986842632,-1.47249972820282
630,1267053202,-38.28037643432617,-85.12987518310547,18.71716308593750,9.73739337921143,-0.50662356615067,0.86995494365692,-0.97837936878204,-0.48831883072853,-1.61609709262848
631,1267069869,-38.30697631835938,-85.14711761474609,18.72600555419922,9.74812126159668,-0.48844709992409,0.89108747243881,-1.10094916820526,-0.71168732643127,-1.75517439842224
632,1267086536,-38.33869934082031,-85.16418457031250,18.74045753479004,9.76651859283447,-0.49335882067680,0.83925241231918,-1.07041883468628,-0.72258549928665,-1.72756397724152
633,1267103203,-38.36355590820312,-85.17744445800781,18.76941871643066,9.76938152313232,-0.47829109430313,0.80368536710739,0.20540742576122,-0.58453291654587,-1.52704179286957
634,1267119870,-38.39258193969727,-85.18838500976562,18.80129814147949,9.78101634979248,-0.43658584356308,0.81139916181564,0.13019575178623,-0.48876711726189,-1.43149375915527
635,1267136537,-38.40699386596680,-85.19984436035156,18.82466888427734,9.76949787139893,-0.49542152881622,0.85355609655380,0.50452530384064,-0.48936903476715,-1.48800814151764
636,1267153204,-38.42610168457031,-85.21144866943359,18.83962440490723,9.77325439453125,-0.48493680357933,0.83162850141525,-0.28503093123436,-0.46548518538475,-1.52334094047546
637,1267169871,-38.42142486572266,-85.21996307373047,18.83270263671875,9.76199817657471,-0.49706655740738,0.81271797418594,-0.16290958225727,-0.25726675987244,-1.49863743782043
638,1267186538,-38.37677383422852,-85.22406005859375,18.78659629821777,9.76797103881836,-0.40250042080879,0.80771034955978,-0.11455279588699,0.08660294115543,-1.47586774826050
639,1267203205,-38.35197448730469,-85.22771453857422,18.75523185729980,9.74770355224609,-0.48411509394646,0.81150412559509,-0.41844749450684,0.05273014307022,-1.40821182727814
640,1267219872,-38.29643249511719,-85.23169708251953,18.70444679260254,9.75775527954102,-0.50396698713303,0.83818364143372,0.26566129922867,0.09214808791876,-1.50059676170349
641,1267236539,-38.26542663574219,-85.23782348632812,18.68408584594727,9.78703975677490,-0.48001730442047,0.88341999053955,0.60780858993530,-0.09657268971205,-1.45417380332947
642,1267253206,-38.26519775390625,-85.24692535400391,18.67752075195312,9.75566101074219,-0.47041258215904,0.89605718851089,-0.40872746706009,-0.28952595591545,-1.51860249042511
643,1267269873,-38.25754928588867,-85.25888824462891,18.67344665527344,9.78664207458496,-0.47499850392342,0.84299868345261,0.18304754793644,-0.42222538590431,-1.60745286941528
644,1267286540,-38.25999832153320,-85.27436828613281,18.67772674560547,9.71660041809082,-0.49629181623459,0.81416660547256,0.07671644538641,-0.61932796239853,-1.70922517776489
645,1267303207,-38.26870346069336,-85.29293823242188,18.70593261718750,9.74995613098145,-0.45917513966560,0.82576179504395,1.13251042366028,-0.82937771081924,-1.72429823875427
646,1267319874,-38.30463790893555,-85.31291198730469,18.75837516784668,9.74830532073975,-0.44384980201721,0.88270056247711,0.94695919752121,-0.97668910026550,-1.69064319133759
647,1267336541,-38.35379409790039,-85.33544921875000,18.82684707641602,9.77389049530029,-0.48476704955101,0.84311783313751,1.10875463485718,-1.13587200641632,-1.71792078018188
648,1267353208,-38.40101242065430,-85.35645294189453,18.89034271240234,9.80207347869873,-0.40614742040634,0.78318637609482,0.93420404195786,-1.05649828910828,-1.69000291824341
649,1267369875,-38.42486953735352,-85.37297058105469,18.91727447509766,9.75055694580078,-0.48019844293594,0.76012843847275,0.14776606857777,-0.73769688606262,-1.66514563560486
650,1267386542,-38.40961074829102,-85.38607788085938,18.91655731201172,9.75683498382568,-0.45460423827171,0.76893895864487,0.83829706907272,-0.48615455627441,-1.63844418525696
651,1267403209,-38.38931274414062,-85.39640808105469,18.90100479125977,9.76015663146973,-0.45428195595741,0.76635396480560,0.25688898563385,-0.31292316317558,-1.59252083301544
652,1267419876,-38.35412597656250,-85.40386199951172,18.87876319885254,9.76746082305908,-0.42351785302162,0.77468329668045,0.74719291925430,-0.15902927517891,-1.50952291488647
653,1267436543,-38.36317062377930,-85.40943908691406,18.88883781433105,9.76122856140137,-0.44357016682625,0.80270838737488,0.03006290458143,-0.16931274533272,-1.32033443450928
654,1267453210,-38.36635208129883,-85.41371917724609,18.91281127929688,9.76179409027100,-0.51536309719086,0.81386911869049,1.21098780632019,-0.15226750075817,-1.22063744068146
655,1267469877,-38.38893127441406,-85.41790008544922,18.96452903747559,9.78789806365967,-0.45813858509064,0.81401193141937,1.70718216896057,-0.22551977634430,-1.10826134681702
656,1267486544,-38.43394088745117,-85.42234802246094,19.02718925476074,9.78802013397217,-0.42512291669846,0.81263589859009,1.01680505275726,-0.27586159110069,-1.08140671253204
657,1267503211,-38.50833511352539,-85.42359161376953,19.11438751220703,9.75352382659912,-0.43543189764023,0.80862247943878,0.71695703268051,-0.19543769955635,-0.86743801832199
658,1267519878,-38.57624816894531,-85.42508697509766,19.19633483886719,9.78568267822266,-0.50107747316360,0.81967478990555,0.79438436031342,-0.19242821633816,-0.89753305912018
659,1267536545,-38.62849807739258,-85.42610931396484,19.27725982666016,9.75557804107666,-0.45751532912254,0.83659595251083,1.67621660232544,-0.16717408597469,-0.88266479969025
660,1267553212,-38.71604156494141,-85.42800140380859,19.38721275329590,9.77164077758789,-0.42160993814468,0.78357249498367,1.29180836677551,-0.30222985148430,-0.81310081481934
661,1267569879,-38.79503631591797,-85.42821502685547,19.47093582153320,9.78306961059570,-0.43578979372978,0.82731086015701,0.23605301976204,-0.13910254836082,-0.84416890144348
662,1267586546,-38.89066696166992,-85.42628479003906,19.57149124145508,9.78881645202637,-0.51679414510727,0.80953532457352,0.24406979978085,-0.08817171305418,-0.69917541742325
663,1267603213,-38.97342681884766,-85.42265319824219,19.68185234069824,9.78818035125732,-0.46224319934845,0.80865293741226,1.60561525821686,-0.04397700354457,-0.60129648447037
664,1267619880,-39.05375289916992,-85.41880035400391,19.79018402099609,9.75744247436523,-0.46189767122269,0.78470534086227,1.62797510623932,-0.02357648871839,-0.59636604785919
665,1267636547,-39.12956619262695,-85.41059112548828,19.88339042663574,9.78749847412109,-0.44773197174072,0.74908715486526,0.99507254362106,0.21320649981499,-0.49688634276390
666,1267653214,-39.18678665161133,-85.39968109130859,19.94665527343750,9.75467014312744,-0.50842940807343,0.79563105106354,0.32042121887207,0.42939049005508,-0.50528728961945
667,1267669881,-39.25701141357422,-85.38926696777344,20.02259063720703,9.75367259979248,-0.46426323056221,0.81002885103226,0.29862484335899,0.36580696702003,-0.47587108612061
668,1267686548,-39.29747009277344,-85.37996673583984,20.08992767333984,9.75932216644287,-0.53352147340775,0.75807309150696,1.56542897224426,0.35188651084900,-0.53817409276962
669,1267703215,-39.33179473876953,-85.37017822265625,20.15915679931641,9.77126979827881,-0.48395708203316,0.80428344011307,2.05213451385498,0.35501125454903,-0.52343398332596
670,1267719882,-39.35597991943359,-85.36126708984375,20.21384811401367,9.78654003143311,-0.46041810512543,0.84703892469406,1.78841304779053,0.36610150337219,-0.60412669181824
671,1267736549,-39.39533996582031,-85.35109710693359,20.26449203491211,9.76658821105957,-0.47028529644012,0.79760187864304,0.63795471191406,0.43306595087051,-0.57334029674530
672,1267753216,-39.41773605346680,-85.34394073486328,20.30003929138184,9.75483703613281,-0.51760208606720,0.78037202358246,0.74897301197052,0.34112915396690,-0.74247372150421
673,1267769883,-39.41662979125977,-85.33683776855469,20.32546424865723,9.74908542633057,-0.49426013231277,0.80500698089600,1.55499196052551,0.37121129035950,-0.78193014860153
674,1267786550,-39.46029663085938,-85.33570098876953,20.38105201721191,9.76973152160645,-0.49383774399757,0.84250551462173,0.67222446203232,-0.00403399998322,-0.89840382337570
675,1267803217,-39.53108978271484,-85.33935546875000,20.46142005920410,9.75902843475342,-0.54962927103043,0.88916170597076,0.52569419145584,-0.29813182353973,-0.98515403270721
676,1267819884,-39.61587524414062,-85.35017395019531,20.57920646667480,9.79659271240234,-0.55466574430466,0.84579998254776,1.92814338207245,-0.75247550010681,-1.12310409545898
