sep=,
DeviceTag:,Xsens_DOT_4
FirmwareVersion:,3.0.0
AppVersion:,2023.6.0
StartTime: ,2025-04-09_10:49:13_000 CEST
© Movella Technologies B. V. 2005-2025

PacketCounter,SampleTimeFine,Euler_X,Euler_Y,Euler_Z,Acc_X,Acc_Y,Acc_Z,Gyr_X,Gyr_Y,Gyr_Z
0,1607860018,-34.95073699951172,-86.53898620605469,66.92284393310547,0.00000000000000,0.00000000000000,0.00000000000000,0.00000000000000,0.00000000000000,0.00000000000000
1,1607876685,-34.95709991455078,-86.54299926757812,66.93344116210938,9.74260330200195,-0.37964838743210,0.48855316638947,0.15416924655437,-0.11895819008350,-1.37045896053314
2,1607893352,-34.94863891601562,-86.54407501220703,66.92259216308594,9.76574325561523,-0.40880694985390,0.51351261138916,0.62381654977798,0.03419935330749,-1.29149472713470
3,1607910019,-34.95122146606445,-86.54215240478516,66.93653869628906,9.75792026519775,-0.40696352720261,0.53770661354065,0.62659555673599,0.15021207928658,-1.16443014144897
4,1607926686,-34.93185424804688,-86.53881072998047,66.92466735839844,9.78346824645996,-0.40321636199951,0.47835788130760,0.52272313833237,0.27046370506287,-1.18677723407745
5,1607943353,-34.89524459838867,-86.53592681884766,66.88114166259766,9.76277542114258,-0.39311948418617,0.49822619557381,-0.59598195552826,0.33701831102371,-1.30113804340363
6,1607960020,-34.84722518920898,-86.53479766845703,66.82670593261719,9.72385311126709,-0.43327385187149,0.50886052846909,-0.34982463717461,0.25424447655678,-1.38958501815796
7,1607976687,-34.83343124389648,-86.53891754150391,66.80322265625000,9.73955821990967,-0.41442033648491,0.53320318460464,-0.53376221656799,-0.05722517147660,-1.46760118007660
8,1607993354,-34.84566879272461,-86.54776000976562,66.82996368408203,9.71406745910645,-0.40965014696121,0.56706619262695,0.76737570762634,-0.39005580544472,-1.48868691921234
9,1608010021,-34.90338897705078,-86.55633544921875,66.90415954589844,9.74542903900146,-0.35649210214615,0.54049378633499,0.85794216394424,-0.47660109400749,-1.34078633785248
10,1608026688,-34.96079635620117,-86.56145477294922,66.97072601318359,9.77364921569824,-0.39142599701881,0.45570549368858,0.54510873556137,-0.30162796378136,-1.24441862106323
11,1608043355,-35.00663757324219,-86.56789398193359,67.02067565917969,9.76753234863281,-0.41101601719856,0.48004969954491,0.18793319165707,-0.32450652122498,-1.33873105049133
12,1608060022,-35.02386093139648,-86.57263183593750,67.03785705566406,9.74090862274170,-0.39850795269012,0.48814961314201,-0.04528325051069,-0.16931276023388,-1.37456953525543
13,1608076689,-35.07444381713867,-86.57783508300781,67.08647155761719,9.73263931274414,-0.38082900643349,0.52679324150085,-0.17108005285263,-0.25849619507790,-1.29853844642639
14,1608093356,-35.16958618164062,-86.58293151855469,67.20513916015625,9.74632930755615,-0.36736717820168,0.48580768704414,0.89034223556519,-0.39689439535141,-1.12238693237305
15,1608110023,-35.28432846069336,-86.58689117431641,67.33306884765625,9.73408317565918,-0.35868597030640,0.47113159298897,1.05788779258728,-0.36831060051918,-1.00335192680359
16,1608126690,-35.36508941650391,-86.58711242675781,67.42117309570312,9.76460266113281,-0.41135177016258,0.45414227247238,0.55589157342911,-0.10149031132460,-1.00259625911713
17,1608143357,-35.42354583740234,-86.58413696289062,67.48039245605469,9.76312637329102,-0.41436436772346,0.43949326872826,-0.11482812464237,0.10766297578812,-1.00394737720490
18,1608160024,-35.44972610473633,-86.58087158203125,67.50265502929688,9.74003791809082,-0.35204848647118,0.47107514739037,-0.59280592203140,0.21241253614426,-1.10616135597229
19,1608176691,-35.51858520507812,-86.57835388183594,67.55933380126953,9.75285148620605,-0.39766320586205,0.51157420873642,-0.56093096733093,0.09255789220333,-0.99895936250687
20,1608193358,-35.59887313842773,-86.57646179199219,67.64280700683594,9.73019123077393,-0.39970433712006,0.53144341707230,0.29669749736786,0.00946389138699,-0.94465392827988
21,1608210025,-35.71674346923828,-86.57406616210938,67.76776123046875,9.77294826507568,-0.36844903230667,0.51808148622513,0.40129336714745,-0.05659126117826,-0.81521373987198
22,1608226692,-35.82628250122070,-86.57080078125000,67.87902832031250,9.75604724884033,-0.42319408059120,0.48710447549820,0.05121899396181,0.01669307611883,-0.82609915733337
23,1608243359,-35.90558242797852,-86.56721496582031,67.95781707763672,9.73466396331787,-0.42961111664772,0.45807135105133,0.06417902559042,0.10596615076065,-0.89335823059082
24,1608260026,-35.96319961547852,-86.56419372558594,68.01111602783203,9.73543548583984,-0.41585123538971,0.47116535902023,-0.36011457443237,0.12586721777916,-1.00923001766205
25,1608276693,-36.01659774780273,-86.56196594238281,68.06703948974609,9.75107574462891,-0.42081290483475,0.53846949338913,0.19149973988533,0.06658660620451,-1.02939975261688
26,1608293360,-36.07273864746094,-86.55844116210938,68.12903594970703,9.76622581481934,-0.40184268355370,0.50831586122513,0.38931944966316,0.13276982307434,-0.95318949222565
27,1608310027,-36.13615417480469,-86.55605316162109,68.19214630126953,9.74887275695801,-0.40090388059616,0.49866887927055,0.12468901276588,0.06741902232170,-0.98730546236038
28,1608326694,-36.16609573364258,-86.55281066894531,68.22724914550781,9.73910808563232,-0.43281495571136,0.45022058486938,0.35992884635925,0.17797623574734,-1.03896629810333
29,1608343361,-36.19232940673828,-86.55014038085938,68.25811004638672,9.74920845031738,-0.40782701969147,0.47785669565201,0.26557165384293,0.15186409652233,-1.08136820793152
30,1608360028,-36.22667312622070,-86.54906463623047,68.28964996337891,9.74498748779297,-0.43545764684677,0.48741668462753,-0.14563381671906,0.06877650320530,-1.13834357261658
31,1608376695,-36.25234985351562,-86.54622650146484,68.32740783691406,9.76186847686768,-0.43508681654930,0.51117587089539,0.47811859846115,0.16184023022652,-1.06293976306915
32,1608393362,-36.25590896606445,-86.54186248779297,68.33668518066406,9.74821567535400,-0.39371246099472,0.48344188928604,0.53504294157028,0.26902940869331,-1.07732141017914
33,1608410029,-36.21575546264648,-86.53530883789062,68.30568695068359,9.74838256835938,-0.43465763330460,0.45547387003899,0.54690158367157,0.48121777176857,-1.11964631080627
34,1608426696,-36.16678619384766,-86.52745819091797,68.26586151123047,9.78140258789062,-0.40102052688599,0.47206860780716,0.43280982971191,0.55294620990753,-1.11744368076324
35,1608443363,-36.10507965087891,-86.51991271972656,68.19819641113281,9.74877166748047,-0.43602204322815,0.51519888639450,-0.15998974442482,0.60222506523132,-1.18299961090088
36,1608460030,-36.08586883544922,-86.51586151123047,68.18524932861328,9.70921325683594,-0.43411654233932,0.52191007137299,0.61162489652634,0.30513051152229,-1.14899849891663
37,1608476697,-36.05498504638672,-86.51176452636719,68.16781616210938,9.74606990814209,-0.41285294294357,0.48298841714859,0.85951089859009,0.32802185416222,-1.16794550418854
38,1608493364,-36.00195693969727,-86.50531768798828,68.11450195312500,9.77887535095215,-0.38312676548958,0.48417791724205,0.13285948336124,0.50831609964371,-1.19155406951904
39,1608510031,-35.93592834472656,-86.49725341796875,68.03947448730469,9.75953960418701,-0.40035834908485,0.47130933403969,-0.34542566537857,0.64360225200653,-1.19090068340302
40,1608526698,-35.86298751831055,-86.48709869384766,67.96966552734375,9.71334934234619,-0.44846826791763,0.49077975749969,0.27320429682732,0.72846996784210,-1.11653447151184
41,1608543365,-35.75080490112305,-86.47508239746094,67.86023712158203,9.72951602935791,-0.40024247765541,0.48238611221313,0.26472648978233,0.90235465764999,-1.17485451698303
42,1608560032,-35.67694091796875,-86.46559143066406,67.78394317626953,9.72847366333008,-0.37845098972321,0.48474290966988,-0.11251660436392,0.72327059507370,-1.15750205516815
43,1608576699,-35.57469177246094,-86.45657348632812,67.67637634277344,9.73607444763184,-0.43267908692360,0.50354069471359,0.14279720187187,0.73932981491089,-1.25807023048401
44,1608593366,-35.49000930786133,-86.44934082031250,67.60592651367188,9.75379467010498,-0.40875166654587,0.54097044467926,0.57330828905106,0.61389160156250,-1.23605608940125
45,1608610033,-35.42644119262695,-86.44168853759766,67.54998779296875,9.75531101226807,-0.40448579192162,0.53734385967255,0.32222700119019,0.58982849121094,-1.17820990085602
46,1608626700,-35.35013580322266,-86.43135833740234,67.47315216064453,9.77792453765869,-0.41941025853157,0.51422888040543,0.01715410687029,0.77205008268356,-1.13154351711273
47,1608643367,-35.24258041381836,-86.42029571533203,67.36363983154297,9.76514148712158,-0.44340464472771,0.51841217279434,-0.07852853834629,0.86224514245987,-1.22189223766327
48,1608660034,-35.13479232788086,-86.41073608398438,67.25799560546875,9.71881484985352,-0.40835502743721,0.51283061504364,-0.00817045010626,0.78991478681564,-1.27316892147064
49,1608676701,-35.05826568603516,-86.40326690673828,67.17510986328125,9.72714805603027,-0.40528663992882,0.51168501377106,-0.36309841275215,0.64068245887756,-1.26010644435883
50,1608693368,-34.95124816894531,-86.39483642578125,67.07329559326172,9.75601291656494,-0.43262097239494,0.51694464683533,0.27176994085312,0.72309130430222,-1.29838466644287
51,1608710035,-34.86828613281250,-86.38665008544922,66.98624420166016,9.75197410583496,-0.43140718340874,0.51992571353912,-0.17788021266460,0.68019002676010,-1.25436913967133
52,1608726702,-34.76187133789062,-86.37577819824219,66.87305450439453,9.75899410247803,-0.40816068649292,0.50111621618271,-0.30005913972855,0.87125432491302,-1.24062144756317
53,1608743369,-34.64003753662109,-86.36643981933594,66.74519348144531,9.74767017364502,-0.41018840670586,0.50034749507904,-0.27832043170929,0.82070142030716,-1.35010957717896
54,1608760036,-34.52258682250977,-86.35476684570312,66.63252258300781,9.76089191436768,-0.38854104280472,0.53172159194946,-0.35702821612358,0.93877577781677,-1.25521433353424
55,1608776703,-34.41516494750977,-86.34285736083984,66.52581024169922,9.74627971649170,-0.39721712470055,0.54606956243515,-0.49219927191734,0.92612320184708,-1.23293137550354
56,1608793370,-34.32120132446289,-86.33088684082031,66.43271636962891,9.77064704895020,-0.45104476809502,0.54991018772125,0.13312840461731,0.89404326677322,-1.14601469039917
57,1608810037,-34.24435806274414,-86.32145690917969,66.35666656494141,9.76493740081787,-0.44680768251419,0.55450397729874,0.13211670517921,0.72310411930084,-1.18559908866882
58,1608826704,-34.12373352050781,-86.31071472167969,66.23791503906250,9.74478912353516,-0.40027251839638,0.53620183467865,0.19304931163788,0.86869949102402,-1.28929197788239
59,1608843371,-34.04882049560547,-86.30106353759766,66.15694427490234,9.75572013854980,-0.40363121032715,0.52700710296631,-0.36484012007713,0.75186729431152,-1.19857180118561
60,1608860038,-33.98393249511719,-86.29234313964844,66.08806610107422,9.74309539794922,-0.42829388380051,0.55344724655151,-0.17732314765453,0.67445927858353,-1.19193196296692
61,1608876705,-33.87729263305664,-86.28290557861328,65.99156951904297,9.76675605773926,-0.42628097534180,0.55978226661682,0.39528080821037,0.77597516775131,-1.27699160575867
62,1608893372,-33.77303695678711,-86.27406311035156,65.88816833496094,9.73215293884277,-0.40818691253662,0.50139427185059,-0.05046983063221,0.76355940103531,-1.31035852432251
63,1608910039,-33.68729400634766,-86.26288604736328,65.79047393798828,9.75893115997314,-0.39457678794861,0.51433730125427,-0.15704427659512,0.84507191181183,-1.17812025547028
64,1608926706,-33.60298919677734,-86.25090789794922,65.69607543945312,9.75892353057861,-0.40072491765022,0.51890373229980,-0.56765431165695,0.88121140003204,-1.18593215942383
65,1608943373,-33.49499893188477,-86.23849487304688,65.59027099609375,9.75540256500244,-0.43780329823494,0.60915547609329,-0.01680193096399,0.95546245574951,-1.20637083053589
66,1608960040,-33.42164611816406,-86.22975921630859,65.51311492919922,9.75372886657715,-0.44164606928825,0.58981168270111,-0.02248795144260,0.69845193624496,-1.21424686908722
67,1608976707,-33.34685134887695,-86.22192382812500,65.43900299072266,9.76194286346436,-0.46220973134041,0.56429946422577,0.23157083988190,0.63068073987961,-1.24777400493622
68,1608993374,-33.26243591308594,-86.21421051025391,65.34920501708984,9.79358196258545,-0.38423064351082,0.56518262624741,-0.08777472376823,0.66302955150604,-1.29924261569977
69,1609010041,-33.15184783935547,-86.20594787597656,65.23332214355469,9.75640773773193,-0.40763092041016,0.53155827522278,-0.16103985905647,0.75088113546371,-1.37488973140717
70,1609026708,-33.05132675170898,-86.19816589355469,65.12617492675781,9.72193527221680,-0.43032553792000,0.54554438591003,-0.26568055152893,0.71168088912964,-1.36285173892975
71,1609043375,-32.93994522094727,-86.19065093994141,65.02507019042969,9.74316596984863,-0.41802451014519,0.55673009157181,0.57342350482941,0.69343185424805,-1.36110997200012
72,1609060042,-32.82534027099609,-86.18032836914062,64.90550231933594,9.76960277557373,-0.38588279485703,0.55845844745636,-0.11442472040653,0.86702173948288,-1.32166635990143
73,1609076709,-32.70887756347656,-86.17070770263672,64.78335571289062,9.77299499511719,-0.39967444539070,0.56374740600586,-0.49939644336700,0.85344725847244,-1.37444162368774
74,1609093376,-32.58322525024414,-86.15931701660156,64.64729309082031,9.73550987243652,-0.43172994256020,0.53392350673676,-0.39848235249519,0.95178711414337,-1.35040390491486
75,1609110043,-32.45935440063477,-86.14715576171875,64.53165435791016,9.74656963348389,-0.40226668119431,0.54287058115005,0.39263626933098,0.96376103162766,-1.27365553379059
76,1609126710,-32.35952377319336,-86.13674926757812,64.42681884765625,9.75712871551514,-0.38964536786079,0.58534419536591,-0.09917237609625,0.84042310714722,-1.27957201004028
77,1609143377,-32.26405715942383,-86.12546539306641,64.32074737548828,9.73079681396484,-0.41728821396828,0.57217711210251,-0.38144996762276,0.87713885307312,-1.26010632514954
78,1609160044,-32.21020126342773,-86.11975097656250,64.27050018310547,9.72610473632812,-0.41057401895523,0.55358254909515,0.42980027198792,0.48207581043243,-1.24339401721954
79,1609176711,-32.17544937133789,-86.11506652832031,64.23741149902344,9.76042461395264,-0.39783722162247,0.60742849111557,0.47893831133842,0.39008781313896,-1.20607626438141
80,1609193378,-32.14111709594727,-86.10962677001953,64.20941925048828,9.77801036834717,-0.43563148379326,0.59979474544525,0.42116239666939,0.42899993062019,-1.18504190444946
81,1609210045,-32.10005187988281,-86.10670471191406,64.17364501953125,9.75507831573486,-0.44870269298553,0.61574625968933,0.58124178647995,0.30568754673004,-1.28245997428894
82,1609226712,-32.07215118408203,-86.10675811767578,64.15513610839844,9.73941135406494,-0.40099555253983,0.60247337818146,0.42625933885574,0.13998620212078,-1.33807790279388
83,1609243379,-32.05027770996094,-86.10590362548828,64.13333129882812,9.75198745727539,-0.40120452642441,0.56509029865265,0.11854839324951,0.17433282732964,-1.31028807163239
84,1609260046,-32.01129913330078,-86.10419464111328,64.08829498291016,9.76583480834961,-0.39406755566597,0.56217765808105,-0.05266612023115,0.27255755662918,-1.34350788593292
85,1609276713,-31.96080589294434,-86.09896850585938,64.03707885742188,9.76672363281250,-0.41543036699295,0.54804193973541,0.21400052309036,0.46792483329773,-1.25703299045563
86,1609293380,-31.90646743774414,-86.09349822998047,63.97779464721680,9.76231861114502,-0.41261082887650,0.55048602819443,-0.14312377572060,0.48645561933517,-1.29413294792175
87,1609310047,-31.85495376586914,-86.08874511718750,63.90675354003906,9.73885822296143,-0.42079094052315,0.56786853075027,-0.49902504682541,0.45778223872185,-1.32562375068665
88,1609326714,-31.81170845031738,-86.08173370361328,63.86214828491211,9.75769710540771,-0.36650869250298,0.58276534080505,-0.28380790352821,0.56458073854446,-1.20534002780914
89,1609343381,-31.79977226257324,-86.07589721679688,63.84855270385742,9.76011753082275,-0.41961792111397,0.59707254171371,-0.00431573949754,0.41714760661125,-1.12125992774963
90,1609360048,-31.79620742797852,-86.06965637207031,63.85297393798828,9.75485610961914,-0.42587992548943,0.58855116367340,0.40179279446602,0.39439073204994,-1.06299102306366
91,1609376715,-31.79442787170410,-86.06582641601562,63.85458374023438,9.73825550079346,-0.43084001541138,0.58331304788589,0.32095915079117,0.28494769334793,-1.12946891784668
92,1609393382,-31.77234268188477,-86.06299591064453,63.83613204956055,9.74672031402588,-0.38901183009148,0.58668589591980,0.16931913793087,0.27687966823578,-1.24575042724609
93,1609410049,-31.76169776916504,-86.05931091308594,63.83129501342773,9.77564525604248,-0.43907123804092,0.60223913192749,0.26677548885345,0.29943168163300,-1.16682505607605
94,1609426716,-31.73315238952637,-86.05612945556641,63.81116104125977,9.77871704101562,-0.43435645103455,0.61993652582169,0.46085575222969,0.30443894863129,-1.23633790016174
95,1609443383,-31.68489265441895,-86.05300903320312,63.77187347412109,9.75136661529541,-0.43269675970078,0.57079339027405,0.32076704502106,0.34015586972237,-1.32278072834015
96,1609460050,-31.64023780822754,-86.05112457275391,63.71217727661133,9.74919319152832,-0.40265846252441,0.57746922969818,-0.16807053983212,0.29696005582809,-1.36933183670044
97,1609476717,-31.59780693054199,-86.04507446289062,63.66589355468750,9.75521850585938,-0.41016560792923,0.57499134540558,-0.15417563915253,0.49513828754425,-1.23879659175873
98,1609493384,-31.54058837890625,-86.03775787353516,63.60775756835938,9.77056789398193,-0.41582223773003,0.62746644020081,-0.18871438503265,0.59785807132721,-1.25004076957703
99,1609510051,-31.49621200561523,-86.03276062011719,63.56701278686523,9.72594451904297,-0.43632712960243,0.60753375291824,0.33820289373398,0.43442979454994,-1.24533426761627
100,1609526718,-31.46595382690430,-86.02862548828125,63.54306030273438,9.71843624114990,-0.40255457162857,0.54353457689285,0.30230671167374,0.36268866062164,-1.22454977035522
101,1609543385,-31.45312118530273,-86.02271270751953,63.53611373901367,9.76893901824951,-0.41335523128510,0.57488542795181,-0.00039059371920,0.42012515664101,-1.12988507747650
102,1609560052,-31.39964103698730,-86.01483917236328,63.48143005371094,9.78524398803711,-0.40302017331123,0.58561182022095,0.11037152260542,0.61057472229004,-1.20306682586670
103,1609576719,-31.35608100891113,-86.00879669189453,63.43836212158203,9.72934818267822,-0.45238605141640,0.61686766147614,0.19440676271915,0.48175567388535,-1.22682273387909
104,1609593386,-31.31847953796387,-86.00502777099609,63.39815139770508,9.72756576538086,-0.42050188779831,0.59090530872345,0.40905407071114,0.35001674294472,-1.25828802585602
105,1609610053,-31.28191757202148,-86.00183868408203,63.36369323730469,9.76745128631592,-0.38434627652168,0.60574758052826,0.11943842470646,0.33873435854912,-1.28665399551392
106,1609626720,-31.25806045532227,-85.99953460693359,63.33036804199219,9.75563621520996,-0.42079025506973,0.62672662734985,-0.22367569804192,0.26972094178200,-1.29327487945557
107,1609643387,-31.22545242309570,-85.99904632568359,63.29720687866211,9.74590396881104,-0.44272041320801,0.61425346136093,-0.01299844589084,0.19257549941540,-1.36819207668304
108,1609660054,-31.21102142333984,-86.00164794921875,63.27462005615234,9.72648429870605,-0.41001060605049,0.60886448621750,-0.12999723851681,-0.00078118732199,-1.40340936183929
109,1609676721,-31.19768905639648,-86.00433349609375,63.25692367553711,9.73965549468994,-0.44056817889214,0.58533793687820,-0.06045877933502,-0.01266547944397,-1.40013098716736
110,1609693388,-31.20302009582520,-86.00875091552734,63.26242828369141,9.76152706146240,-0.42333894968033,0.62322014570236,0.16986982524395,-0.15134544670582,-1.37340414524078
111,1609710055,-31.19817733764648,-86.01356506347656,63.26254653930664,9.75474071502686,-0.40801972150803,0.60601162910461,0.45551550388336,-0.15819683670998,-1.40486943721771
112,1609726722,-31.19345664978027,-86.02034759521484,63.26808929443359,9.77591323852539,-0.41929897665977,0.55578678846359,0.59625726938248,-0.25739482045174,-1.45117712020874
113,1609743389,-31.20301628112793,-86.03005218505859,63.28223800659180,9.74801158905029,-0.37880492210388,0.55870008468628,0.06133601441979,-0.42397984862328,-1.52795124053955
114,1609760056,-31.24624061584473,-86.04047393798828,63.32510375976562,9.76270866394043,-0.43284040689468,0.57844686508179,0.03454513102770,-0.54289960861206,-1.43770480155945
115,1609776723,-31.25421524047852,-86.05220794677734,63.33876419067383,9.75248146057129,-0.43753284215927,0.60451221466064,0.29455247521400,-0.53184771537781,-1.58236551284790
116,1609793390,-31.26037597656250,-86.06522369384766,63.35446548461914,9.76027488708496,-0.43635460734367,0.61290138959885,0.53152114152908,-0.60174477100372,-1.61404848098755
117,1609810057,-31.28397750854492,-86.07983398437500,63.38346099853516,9.77698230743408,-0.42186012864113,0.60320037603378,0.26180022954941,-0.70187127590179,-1.61329925060272
118,1609826724,-31.33403968811035,-86.09024047851562,63.43517684936523,9.79189968109131,-0.41224625706673,0.56632089614868,0.03850869089365,-0.55224180221558,-1.41364812850952
119,1609843391,-31.34241294860840,-86.09676361083984,63.44239044189453,9.76790332794189,-0.40365201234818,0.56453013420105,-0.08316443860531,-0.24907068908215,-1.44068861007690
120,1609860058,-31.33502578735352,-86.09876251220703,63.44163131713867,9.75965118408203,-0.43128877878189,0.57728475332260,0.28483244776726,-0.01011701580137,-1.34268176555634
121,1609876725,-31.32925415039062,-86.09997558593750,63.43484878540039,9.73525333404541,-0.34725341200829,0.55083644390106,0.06018344685435,0.03896331787109,-1.32134628295898
122,1609893392,-31.31778335571289,-86.10072326660156,63.41316986083984,9.73371982574463,-0.41348990797997,0.56710898876190,-0.78946661949158,0.12012355029583,-1.36876177787781
123,1609910059,-31.32157135009766,-86.10137939453125,63.41658782958984,9.75034809112549,-0.43163701891899,0.62205588817596,0.09617569297552,0.04483503475785,-1.26942312717438
124,1609926726,-31.34773063659668,-86.10067749023438,63.46779251098633,9.78201198577881,-0.43623194098473,0.60982441902161,1.17758238315582,0.02899357676506,-1.08401274681091
125,1609943393,-31.37831306457520,-86.10057067871094,63.50934600830078,9.77062034606934,-0.40963643789291,0.56032699346542,0.42758479714394,0.02823159657419,-1.12489700317383
126,1609960060,-31.39319229125977,-86.10122680664062,63.52619171142578,9.74250888824463,-0.42610135674477,0.55853956937790,-0.01637932285666,0.02835966274142,-1.23577439785004
127,1609976727,-31.41442680358887,-86.10218048095703,63.54291534423828,9.76659679412842,-0.38727098703384,0.57431602478027,-0.22326588630676,0.00474475231022,-1.23523640632629
128,1609993394,-31.45088958740234,-86.10670471191406,63.58010864257812,9.74595928192139,-0.43205571174622,0.59787589311600,0.04352238401771,-0.20864106714725,-1.27150404453278
129,1610010061,-31.50282096862793,-86.11284637451172,63.64001464843750,9.74487209320068,-0.42372536659241,0.56689351797104,0.48303630948067,-0.35654157400131,-1.25351119041443
130,1610026728,-31.56420707702637,-86.11965179443359,63.70856475830078,9.75706100463867,-0.40382066369057,0.56782394647598,0.41178178787231,-0.39579302072525,-1.23903989791870
131,1610043395,-31.60213470458984,-86.12601470947266,63.74577331542969,9.79893207550049,-0.41864305734634,0.59151422977448,0.19020628929138,-0.31757184863091,-1.32060348987579
132,1610060062,-31.62320518493652,-86.12879943847656,63.76243209838867,9.77353858947754,-0.40941211581230,0.57655751705170,0.38650208711624,-0.10114455223083,-1.25029671192169
133,1610076729,-31.66580200195312,-86.12965393066406,63.79971694946289,9.71731185913086,-0.36959707736969,0.55239319801331,-0.23826216161251,-0.03254093602300,-1.15916681289673
134,1610093396,-31.71689224243164,-86.13147735595703,63.85573196411133,9.73305034637451,-0.39994338154793,0.52334201335907,0.05153915286064,-0.11967534571886,-1.14862716197968
135,1610110063,-31.74577331542969,-86.13224029541016,63.89142608642578,9.79160404205322,-0.40942183136940,0.57483923435211,0.35891711711884,-0.01523955632001,-1.16692733764648
136,1610126730,-31.81011009216309,-86.13391113281250,63.96068572998047,9.78376102447510,-0.43667030334473,0.64042431116104,0.26207554340363,-0.13642604649067,-1.07967782020569
137,1610143397,-31.86089324951172,-86.13355255126953,64.01735687255859,9.74923706054688,-0.45298415422440,0.60134673118591,0.41412532329559,-0.01214041933417,-1.05471813678741
138,1610160064,-31.88909149169922,-86.13254547119141,64.04511260986328,9.75963783264160,-0.37079939246178,0.55090487003326,0.45852497220039,0.07320750504732,-1.10591804981232
139,1610176731,-31.91895675659180,-86.12905120849609,64.07608032226562,9.77701091766357,-0.36436486244202,0.53833836317062,0.03815651684999,0.19900424778461,-1.05485904216766
140,1610193398,-31.95476722717285,-86.12510681152344,64.10688781738281,9.74270153045654,-0.41661548614502,0.58475476503372,-0.49878168106079,0.23570726811886,-1.04615068435669
141,1610210065,-32.01940536499023,-86.12409973144531,64.16548156738281,9.71918678283691,-0.42196476459503,0.57952415943146,-0.13085527718067,0.02227664180100,-1.00816702842712
142,1610226732,-32.09199905395508,-86.12702941894531,64.24612426757812,9.72622871398926,-0.47907367348671,0.55778169631958,0.56691795587540,-0.23778828978539,-1.07915270328522
143,1610243399,-32.15637969970703,-86.13016510009766,64.32283782958984,9.75833606719971,-0.38842573761940,0.61652857065201,0.87834274768829,-0.23178215324879,-1.08980762958527
144,1610260066,-32.22024917602539,-86.13162994384766,64.38186645507812,9.78450965881348,-0.42576861381531,0.58798503875732,0.18553200364113,-0.12805069983006,-1.08107376098633
145,1610276733,-32.29214477539062,-86.13274383544922,64.44986724853516,9.75101375579834,-0.39747166633606,0.54320955276489,0.11298401653767,-0.12719267606735,-1.04986453056335
146,1610293400,-32.35287475585938,-86.13436889648438,64.50823211669922,9.75528335571289,-0.42099878191948,0.56742370128632,0.22480906546116,-0.11845873296261,-1.08834755420685
147,1610310067,-32.41268920898438,-86.13558197021484,64.57466888427734,9.75837898254395,-0.38424515724182,0.57803916931152,0.23458029329777,-0.11337460577488,-1.09071671962738
148,1610326734,-32.48579406738281,-86.13694763183594,64.64279174804688,9.76314735412598,-0.41202771663666,0.59197509288788,-0.52805703878403,-0.11341303586960,-1.08775854110718
149,1610343401,-32.58553695678711,-86.14065551757812,64.73529815673828,9.74245738983154,-0.43790271878242,0.59959447383881,-0.39403855800629,-0.29873368144035,-1.06612861156464
150,1610360068,-32.67004394531250,-86.14624023437500,64.82299041748047,9.76417350769043,-0.42520621418953,0.54823994636536,0.14127966761589,-0.37064778804779,-1.14470207691193
151,1610376735,-32.73986434936523,-86.14868164062500,64.87922668457031,9.78032779693604,-0.37352013587952,0.54127526283264,-0.36717727780342,-0.16828185319901,-1.12550520896912
152,1610393402,-32.77000427246094,-86.14639282226562,64.89246368408203,9.76694202423096,-0.41097530722618,0.52458566427231,-1.13167154788971,0.17957705259323,-1.15660560131073
153,1610410069,-32.76588821411133,-86.14121246337891,64.86501312255859,9.75939369201660,-0.43232238292694,0.55156975984573,-1.30369937419891,0.42033642530441,-1.18029737472534
154,1610426736,-32.78046035766602,-86.13477325439453,64.86372375488281,9.75995540618896,-0.43964496254921,0.56790715456009,-0.87847709655762,0.41439428925514,-1.05995607376099
155,1610443403,-32.79817581176758,-86.12910461425781,64.86451721191406,9.75093746185303,-0.39311757683754,0.53917652368546,-0.99664133787155,0.37881821393967,-1.07742369174957
156,1610460070,-32.81888198852539,-86.12313079833984,64.86663818359375,9.78336620330811,-0.40944445133209,0.55184292793274,-1.06688416004181,0.39886015653610,-1.05560183525085
157,1610476737,-32.82645797729492,-86.11698150634766,64.85074615478516,9.74795627593994,-0.45458734035492,0.62226217985153,-1.32781362533569,0.43337333202362,-1.11860907077789
158,1610493404,-32.83629989624023,-86.11465454101562,64.84280395507812,9.73285198211670,-0.51694262027740,0.60541987419128,-0.97633039951324,0.21918706595898,-1.21721780300140
159,1610510071,-32.86011886596680,-86.11934661865234,64.86260986328125,9.73451900482178,-0.44742497801781,0.60757219791412,-0.48335003852844,-0.16728936135769,-1.35954773426056
160,1610526738,-32.88393402099609,-86.12581634521484,64.88667297363281,9.75655651092529,-0.43207061290741,0.57416862249374,-0.02138660475612,-0.29107552766800,-1.40177035331726
161,1610543405,-32.91936111450195,-86.13228607177734,64.92546081542969,9.75761508941650,-0.41608962416649,0.57918798923492,-0.00195296842139,-0.30865222215652,-1.35736417770386
162,1610560072,-32.92803573608398,-86.14105224609375,64.94362640380859,9.72447204589844,-0.42534539103508,0.57825070619583,0.60666882991791,-0.38290989398956,-1.48407673835754
163,1610576739,-32.94907379150391,-86.15137481689453,64.97351837158203,9.73421669006348,-0.40655913949013,0.52683883905411,0.63161563873291,-0.48863911628723,-1.49151718616486
164,1610593406,-32.97772979736328,-86.16008758544922,64.99975585937500,9.74383258819580,-0.39056941866875,0.54005253314972,0.12207653373480,-0.41037946939468,-1.44494044780731
165,1610610073,-32.98588562011719,-86.16702270507812,64.99710845947266,9.76976871490479,-0.42023172974586,0.55103337764740,-0.49150767922401,-0.25120934844017,-1.49010848999023
166,1610626740,-32.98201370239258,-86.17285156250000,64.97077178955078,9.75340557098389,-0.42773047089577,0.56800150871277,0.06968574970961,-0.19255626201630,-1.46271550655365
167,1610643407,-32.98046875000000,-86.17766571044922,64.96757507324219,9.77255821228027,-0.41425946354866,0.56839835643768,0.00979045405984,-0.14868171513081,-1.43058454990387
168,1610660074,-32.97256469726562,-86.18499755859375,64.96256256103516,9.77576637268066,-0.42698392271996,0.56835377216339,0.21432067453861,-0.25884196162224,-1.51798784732819
169,1610676741,-32.95146942138672,-86.19342041015625,64.94526672363281,9.74691963195801,-0.41177049279213,0.52706086635590,0.13402485847473,-0.28910335898399,-1.60550653934479
170,1610693408,-32.95589447021484,-86.20336914062500,64.94574737548828,9.73600769042969,-0.41241684556007,0.58892393112183,0.13693188130856,-0.41797363758087,-1.56669032573700
171,1610710075,-32.96096038818359,-86.21353912353516,64.96295166015625,9.72111797332764,-0.43823212385178,0.54335302114487,0.61814326047897,-0.43800273537636,-1.53790163993835
172,1610726742,-32.96628189086914,-86.22368621826172,64.97868347167969,9.78016662597656,-0.37990808486938,0.57144242525101,0.64448601007462,-0.44777402281761,-1.54411292076111
173,1610743409,-32.95089721679688,-86.22898101806641,64.96335601806641,9.77598190307617,-0.38904017210007,0.54760217666626,-0.12089195102453,-0.13652850687504,-1.50067365169525
174,1610760076,-32.91328811645508,-86.23121643066406,64.92736053466797,9.76878452301025,-0.41505014896393,0.51341170072556,0.07669082283974,0.05845458060503,-1.46240818500519
175,1610776743,-32.85435867309570,-86.23079681396484,64.87053680419922,9.72798442840576,-0.39885976910591,0.49955818057060,0.54327738285065,0.22735752165318,-1.41565215587616
176,1610793410,-32.80005264282227,-86.23101043701172,64.82423400878906,9.74650669097900,-0.42671293020248,0.52898132801056,0.18647967278957,0.19973425567150,-1.44177722930908
177,1610810077,-32.73791885375977,-86.23350524902344,64.76688385009766,9.73824691772461,-0.42093145847321,0.57402396202087,0.14209926128387,0.09188555926085,-1.55136752128601
178,1610826744,-32.70076370239258,-86.23849487304688,64.73067474365234,9.74202060699463,-0.41439351439476,0.59531581401825,0.07600568234921,-0.06796970218420,-1.54009795188904
179,1610843411,-32.66654205322266,-86.24563598632812,64.70098876953125,9.74612712860107,-0.45008060336113,0.56776529550552,0.27082869410515,-0.20443415641785,-1.59928894042969
180,1610860078,-32.66049194335938,-86.25576782226562,64.70194244384766,9.75850200653076,-0.40463000535965,0.59360665082932,0.42336514592171,-0.41900458931923,-1.59247612953186
181,1610876745,-32.63952255249023,-86.26298522949219,64.68491363525391,9.76990413665771,-0.41973134875298,0.54644840955734,0.19169184565544,-0.22537893056870,-1.55580508708954
182,1610893412,-32.60497665405273,-86.26870727539062,64.66274261474609,9.75464153289795,-0.41028255224228,0.54312980175018,0.97888541221619,-0.15156315267086,-1.50892114639282
183,1610910079,-32.56716537475586,-86.27416992187500,64.63201904296875,9.72516918182373,-0.37597951292992,0.48063290119171,0.36599907279015,-0.11140244454145,-1.54796755313873
184,1610926746,-32.52101516723633,-86.28000640869141,64.58648681640625,9.74697208404541,-0.40647411346436,0.51770102977753,0.01624485477805,-0.10645917803049,-1.60927140712738
185,1610943413,-32.46682357788086,-86.28427124023438,64.52881622314453,9.73576164245605,-0.40595513582230,0.54848146438599,-0.03734331950545,-0.00158798752818,-1.58295464515686
186,1610960080,-32.44631195068359,-86.28990936279297,64.50876617431641,9.76394176483154,-0.40791070461273,0.59345060586929,-0.09389615803957,-0.14988553524017,-1.52632474899292
187,1610976747,-32.43325424194336,-86.29667663574219,64.49919891357422,9.72741508483887,-0.39371365308762,0.55921709537506,0.15775504708290,-0.22028203308582,-1.51665616035461
188,1610993414,-32.42045593261719,-86.30175781250000,64.50159454345703,9.74437999725342,-0.36987584829330,0.52466905117035,0.77930480241776,-0.15643596649170,-1.42537879943848
189,1611010081,-32.41879653930664,-86.30350494384766,64.50268554687500,9.78036308288574,-0.33403468132019,0.49393659830093,0.06194432079792,0.00864428654313,-1.32406771183014
190,1611026748,-32.39194107055664,-86.30275726318359,64.47488403320312,9.76030731201172,-0.40312808752060,0.52671110630035,-0.20914050936699,0.19746752083302,-1.34232318401337
191,1611043415,-32.35136032104492,-86.30377197265625,64.43226623535156,9.74246311187744,-0.43378680944443,0.55577015876770,-0.06519713252783,0.13585616648197,-1.43408071994781
192,1611060082,-32.30526351928711,-86.30483245849609,64.37837219238281,9.76835155487061,-0.41266864538193,0.59493696689606,-0.28043341636658,0.14473095536232,-1.47065556049347
193,1611076749,-32.26455307006836,-86.30838012695312,64.33467864990234,9.73952960968018,-0.40601810812950,0.53974694013596,-0.26401567459106,0.00935503933579,-1.52933430671692
194,1611093416,-32.26100921630859,-86.31507110595703,64.32122039794922,9.72799110412598,-0.40891721844673,0.54140925407410,-0.05274935066700,-0.23320363461971,-1.49167084693909
195,1611110083,-32.24279403686523,-86.32453918457031,64.30563354492188,9.73523139953613,-0.40318712592125,0.55957955121994,0.07816995680332,-0.34666150808334,-1.62103426456451
196,1611126750,-32.24455642700195,-86.33382415771484,64.30854034423828,9.75421333312988,-0.37335726618767,0.53154283761978,0.04895867779851,-0.37733271718025,-1.55424904823303
197,1611143417,-32.22666549682617,-86.34387969970703,64.29233551025391,9.76234817504883,-0.39144629240036,0.51999312639236,0.14183673262596,-0.37421438097954,-1.63505077362061
198,1611160084,-32.21427154541016,-86.34821319580078,64.28152465820312,9.75545692443848,-0.36764800548553,0.51409846544266,0.04597479850054,-0.10238037258387,-1.44506227970123
199,1611176751,-32.18706893920898,-86.34966278076172,64.24938201904297,9.74342060089111,-0.36056819558144,0.51790171861649,-0.31247493624687,0.08525826781988,-1.42181217670441
200,1611193418,-32.15346908569336,-86.35245513916016,64.22211456298828,9.77418708801270,-0.41857400536537,0.52433645725250,0.06699641793966,0.02383901923895,-1.45869445800781
201,1611210085,-32.12006378173828,-86.35626983642578,64.18748474121094,9.75681781768799,-0.37238585948944,0.52315932512283,0.09053448587656,-0.03168290853500,-1.49083840847015
202,1611226752,-32.10905838012695,-86.36267089843750,64.16423034667969,9.73244094848633,-0.41038563847542,0.54971760511398,-0.32181072235107,-0.20331360399723,-1.52665770053864
203,1611243419,-32.14095687866211,-86.37167358398438,64.19011688232422,9.73022556304932,-0.39028444886208,0.51324862241745,-0.02369174547493,-0.41511780023575,-1.44409513473511
204,1611260086,-32.14001846313477,-86.37767028808594,64.19393157958984,9.78544330596924,-0.38917517662048,0.56750756502151,0.23116102814674,-0.20116215944290,-1.44068872928619
205,1611276753,-32.11823654174805,-86.38139343261719,64.17372131347656,9.79663944244385,-0.39518806338310,0.52797824144363,0.18563443422318,-0.06424946337938,-1.45253455638885
206,1611293420,-32.08142471313477,-86.38485717773438,64.12042999267578,9.76070213317871,-0.34548845887184,0.50700443983078,-0.37972107529640,0.01041796524078,-1.51262187957764
207,1611310087,-32.03258895874023,-86.38708496093750,64.06262969970703,9.72386264801025,-0.40920874476433,0.51274311542511,-0.59772354364395,0.09403061866760,-1.53405988216400
208,1611326754,-31.97756576538086,-86.38794708251953,64.00489807128906,9.74958419799805,-0.37617206573486,0.52469122409821,-0.15518735349178,0.17270003259182,-1.47791671752930
209,1611343421,-31.96215820312500,-86.39272308349609,63.98611450195312,9.75303173065186,-0.39795640110970,0.59867620468140,-0.09059212356806,-0.11561573296785,-1.47565007209778
210,1611360088,-31.95752716064453,-86.39810180664062,63.98544692993164,9.73177337646484,-0.38472655415535,0.54419362545013,0.21628642082214,-0.16840989887714,-1.43616163730621
211,1611376755,-31.96874237060547,-86.40833282470703,63.99393463134766,9.72770595550537,-0.36861068010330,0.54457128047943,0.00482799392194,-0.44078812003136,-1.55149579048157
212,1611393422,-31.96100044250488,-86.41854858398438,63.99076080322266,9.76667594909668,-0.39173415303230,0.52557432651520,0.22694133222103,-0.40779900550842,-1.59871268272400
213,1611410089,-31.97358703613281,-86.43087005615234,63.99889373779297,9.75660610198975,-0.42335143685341,0.55272430181503,-0.06435190886259,-0.56190419197083,-1.62612462043762
214,1611426756,-31.98556137084961,-86.44614410400391,64.01841735839844,9.76637268066406,-0.42061585187912,0.56559288501740,0.51770305633545,-0.71018886566162,-1.67866909503937
215,1611443423,-31.98485374450684,-86.46177673339844,64.02415466308594,9.74809741973877,-0.35885745286942,0.53866326808929,0.41951677203178,-0.70320945978165,-1.73902535438538
216,1611460090,-31.99940872192383,-86.47824859619141,64.04276275634766,9.75259590148926,-0.39019545912743,0.50527393817902,0.19206321239471,-0.77706360816956,-1.73479926586151
217,1611476757,-31.97380638122559,-86.49279022216797,64.01692199707031,9.74075984954834,-0.35971847176552,0.51115787029266,-0.05185290798545,-0.58772170543671,-1.81134295463562
218,1611493424,-31.94303321838379,-86.50312805175781,63.98675537109375,9.76473426818848,-0.40420812368393,0.51782029867172,-0.08855591714382,-0.37449613213539,-1.70132374763489
219,1611510091,-31.89617156982422,-86.51204681396484,63.94141769409180,9.77172470092773,-0.39278101921082,0.47154378890991,0.01114792842418,-0.25957190990448,-1.69059205055237
220,1611526758,-31.80307197570801,-86.51709747314453,63.84221649169922,9.75034427642822,-0.34821054339409,0.47915983200073,-0.36980894207954,0.03153563290834,-1.73821854591370
221,1611543425,-31.67624855041504,-86.51822662353516,63.70199966430664,9.75836563110352,-0.37683647871017,0.49577769637108,-0.86659282445908,0.31291675567627,-1.74474990367889
222,1611560092,-31.55596542358398,-86.52046966552734,63.56872177124023,9.75253009796143,-0.36223709583282,0.54549980163574,-0.62696033716202,0.23842221498489,-1.74328994750977
223,1611576759,-31.48410606384277,-86.52497863769531,63.49018859863281,9.72848796844482,-0.35080695152283,0.53730374574661,-0.26726853847504,0.00728041073307,-1.65041828155518
224,1611593426,-31.43008232116699,-86.53191375732422,63.43339538574219,9.75489902496338,-0.38024264574051,0.53427720069885,-0.24470375478268,-0.13841103017330,-1.66006159782410
225,1611610093,-31.36017227172852,-86.53711700439453,63.36079025268555,9.74905109405518,-0.34626141190529,0.50100558996201,-0.28839901089668,-0.02759768441319,-1.66248202323914
226,1611626760,-31.32337379455566,-86.54316711425781,63.32293701171875,9.72609806060791,-0.37356474995613,0.49533185362816,-0.06859081238508,-0.13707916438580,-1.57224833965302
227,1611643427,-31.30466651916504,-86.54889678955078,63.30640792846680,9.73216247558594,-0.33432877063751,0.47933295369148,0.11845234036446,-0.16654658317566,-1.49943161010742
228,1611660094,-31.29148674011230,-86.55389404296875,63.29699707031250,9.75267410278320,-0.36505487561226,0.50478744506836,0.34867206215858,-0.13655412197113,-1.43961298465729
229,1611676761,-31.28046989440918,-86.55883789062500,63.28587722778320,9.74452018737793,-0.34590628743172,0.49982428550720,0.14261791110039,-0.14802859723568,-1.45212483406067
230,1611693428,-31.26472282409668,-86.56066131591797,63.27777099609375,9.76860332489014,-0.36715599894524,0.53225338459015,0.15218424797058,0.02401830628514,-1.36720585823059
231,1611710095,-31.25629425048828,-86.56298828125000,63.27306365966797,9.74860286712646,-0.37450975179672,0.52882194519043,0.21660658717155,-0.00735724857077,-1.35158860683441
232,1611726762,-31.24409675598145,-86.56544494628906,63.26607513427734,9.74601364135742,-0.37807807326317,0.51443964242935,0.32273921370506,-0.01033472456038,-1.35979115962982
233,1611743429,-31.23687362670898,-86.56636047363281,63.26195907592773,9.76094913482666,-0.36532849073410,0.49170896410942,0.19974704086781,0.05990170687437,-1.30627334117889
234,1611760096,-31.24708747863770,-86.56658172607422,63.27363586425781,9.74888324737549,-0.33852067589760,0.48246487975121,0.02184123173356,0.06471689045429,-1.24171650409698
235,1611776763,-31.26700401306152,-86.56641387939453,63.29801940917969,9.72848033905029,-0.37488323450089,0.49293774366379,0.10924456268549,0.06583104282618,-1.19330859184265
236,1611793430,-31.29026794433594,-86.56607055664062,63.33013534545898,9.74429416656494,-0.35429060459137,0.46769672632217,0.68840527534485,0.03379595652223,-1.15782833099365
237,1611810097,-31.30303764343262,-86.56447601318359,63.34523010253906,9.76468372344971,-0.31216502189636,0.48530030250549,0.09079060703516,0.16692434251308,-1.16240680217743
238,1611826764,-31.32049560546875,-86.55906677246094,63.36154174804688,9.76367473602295,-0.36089056730270,0.49755492806435,-0.06769435852766,0.34162855148315,-1.04926264286041
239,1611843431,-31.34062385559082,-86.55036926269531,63.38888931274414,9.73681163787842,-0.35836389660835,0.46078020334244,0.59119868278503,0.48345887660980,-0.90476858615875
240,1611860098,-31.34340667724609,-86.53965759277344,63.39937973022461,9.75161266326904,-0.30995672941208,0.51190537214279,0.44151809811592,0.61175292730331,-0.91078770160675
241,1611876765,-31.34605026245117,-86.52938079833984,63.39443588256836,9.76569843292236,-0.38888838887215,0.51542270183563,-0.48901045322418,0.63605934381485,-0.96331924200058
242,1611893432,-31.35448265075684,-86.52154541015625,63.40081405639648,9.75548648834229,-0.41796740889549,0.54034930467606,-0.03682465851307,0.48716640472412,-0.99571299552917
243,1611910099,-31.35311889648438,-86.51681518554688,63.41048049926758,9.72957038879395,-0.38454118371010,0.53572970628738,0.28505015373230,0.32579997181892,-1.11246204376221
244,1611926766,-31.42122268676758,-86.51648712158203,63.48087310791016,9.71986103057861,-0.34125196933746,0.53669625520706,0.07973872870207,-0.02015719376504,-1.04054141044617
245,1611943433,-31.46126556396484,-86.51395416259766,63.52489852905273,9.77086639404297,-0.37344813346863,0.49547103047371,0.33694145083427,0.13525426387787,-1.04662442207336
246,1611960100,-31.52574920654297,-86.51052856445312,63.59259414672852,9.76606845855713,-0.40073797106743,0.52880609035492,0.27022042870522,0.13019576668739,-0.94902735948563
247,1611976767,-31.58021926879883,-86.50615692138672,63.64607238769531,9.74742126464844,-0.38250452280045,0.50566679239273,0.27587437629700,0.21280311048031,-0.93883979320526
248,1611993434,-31.62764930725098,-86.50481414794922,63.69102478027344,9.72163867950439,-0.35440391302109,0.47839528322220,-0.30796709656715,0.09130287170410,-1.08755362033844
249,1612010101,-31.66807937622070,-86.50038909912109,63.73056411743164,9.75225734710693,-0.37128165364265,0.50450867414474,-0.05341527983546,0.24342949688435,-1.00560581684113
250,1612026768,-31.71516418457031,-86.49474334716797,63.77821731567383,9.74413967132568,-0.36148318648338,0.52057129144669,0.08428500592709,0.28941711783409,-0.93823158740997
251,1612043435,-31.74031639099121,-86.48854827880859,63.80461502075195,9.76058101654053,-0.38862729072571,0.53562128543854,0.12070625275373,0.35294944047928,-0.99058407545090
252,1612060102,-31.78982925415039,-86.48509216308594,63.85144424438477,9.71958160400391,-0.39499938488007,0.49002245068550,-0.09010547399521,0.18286827206612,-1.00467085838318
253,1612076769,-31.84192276000977,-86.48230743408203,63.90558624267578,9.74028015136719,-0.38212540745735,0.49129849672318,0.46905177831650,0.11258702725172,-0.99527114629745
254,1612093436,-31.89699745178223,-86.47853088378906,63.96920394897461,9.76809406280518,-0.31527930498123,0.50411802530289,0.09998558461666,0.17978194355965,-0.96872359514236
255,1612110103,-31.96716690063477,-86.47469329833984,64.03579711914062,9.75592041015625,-0.37058410048485,0.54418957233429,-0.09506152570248,0.15304227173328,-0.93332666158676
256,1612126770,-32.03260803222656,-86.47374725341797,64.10581970214844,9.73216152191162,-0.41189974546432,0.52210557460785,0.22997003793716,0.01210840418935,-1.01633763313293
257,1612143437,-32.08634185791016,-86.47225189208984,64.15983581542969,9.75187587738037,-0.39193537831306,0.51269471645355,0.13164286315441,0.07252874970436,-1.03596961498260
258,1612160104,-32.12387084960938,-86.47142028808594,64.19355773925781,9.75520992279053,-0.36669936776161,0.52097082138062,0.01344026345760,0.05841616168618,-1.12583172321320
259,1612176771,-32.18191528320312,-86.47230529785156,64.24699401855469,9.74163627624512,-0.36251431703568,0.54516422748566,-0.26748621463776,-0.05787189304829,-1.12939190864563
260,1612193438,-32.23891830444336,-86.47418975830078,64.30064392089844,9.74825191497803,-0.41701754927635,0.49942931532860,-0.01462485082448,-0.10474312305450,-1.14318430423737
261,1612210105,-32.28892135620117,-86.47608184814453,64.34586334228516,9.72787380218506,-0.36806330084801,0.45186680555344,-0.08617392182350,-0.09540730714798,-1.17536687850952
262,1612226772,-32.30849075317383,-86.47530364990234,64.36300659179688,9.73824787139893,-0.40432608127594,0.50712382793427,-0.18872718513012,0.10474954545498,-1.19060635566711
263,1612243439,-32.34147644042969,-86.47196960449219,64.39958190917969,9.75934600830078,-0.36982509493828,0.49130940437317,-0.36246454715729,0.21013939380646,-1.08023476600647
264,1612260106,-32.35145950317383,-86.47025299072266,64.41436004638672,9.75362110137939,-0.38268908858299,0.52817243337631,0.16410696506500,0.16317212581635,-1.16974484920502
265,1612276773,-32.38048171997070,-86.46997070312500,64.44548797607422,9.79030609130859,-0.38102120161057,0.51515758037567,0.12115445733070,0.04514878243208,-1.16404592990875
266,1612293440,-32.39533996582031,-86.46986389160156,64.46707153320312,9.75141334533691,-0.39045479893684,0.53171288967133,0.08721765130758,0.06752148270607,-1.21530985832214
267,1612310107,-32.41305541992188,-86.47003173828125,64.47783660888672,9.71277046203613,-0.38205301761627,0.51708847284317,-0.03125390037894,0.06293041259050,-1.21171760559082
268,1612326774,-32.45158004760742,-86.47163391113281,64.52306365966797,9.73477458953857,-0.40166017413139,0.52410918474197,0.48244720697403,-0.08596903085709,-1.17835068702698
269,1612343441,-32.47534561157227,-86.47341156005859,64.55274200439453,9.76497364044189,-0.36327791213989,0.47374060750008,0.42586877942085,-0.05173765495420,-1.22716856002808
270,1612360108,-32.48554611206055,-86.47474670410156,64.55724334716797,9.74869918823242,-0.38844004273415,0.51902943849564,-0.09671995788813,0.00697946036234,-1.28605830669403
271,1612376775,-32.45391845703125,-86.47391510009766,64.52204895019531,9.74648666381836,-0.40983924269676,0.50371241569519,-0.19902348518372,0.21321931481361,-1.34934115409851
272,1612393442,-32.41162872314453,-86.47213745117188,64.47483062744141,9.71410655975342,-0.36758318543434,0.49671411514282,-0.31841713190079,0.28595939278603,-1.35848498344421
273,1612410109,-32.39736938476562,-86.47274780273438,64.45472717285156,9.73830509185791,-0.35377362370491,0.51483935117722,-0.45588043332100,0.11053799837828,-1.35702490806580
274,1612426776,-32.39650726318359,-86.47452545166016,64.44821166992188,9.75501346588135,-0.41170090436935,0.52174049615860,-0.49120032787323,0.02864140085876,-1.35291409492493
275,1612443443,-32.37895202636719,-86.47697448730469,64.43340301513672,9.74311542510986,-0.36124372482300,0.53657579421997,0.00593574345112,0.00493684783578,-1.40319168567657
276,1612460110,-32.40922164916992,-86.48297882080078,64.45702362060547,9.73750114440918,-0.36633622646332,0.50804656744003,-0.52147459983826,-0.24406342208385,-1.38957858085632
277,1612476777,-32.42478942871094,-86.48821258544922,64.46289062500000,9.78123760223389,-0.32555559277534,0.47639143466949,0.03695272281766,-0.19870334863663,-1.38308584690094
278,1612493444,-32.47616958618164,-86.49966430664062,64.47326660156250,9.77816295623779,-0.25791174173355,0.51507830619812,-2.29800987243652,-0.49303165078163,-1.58447849750519
279,1612510111,-32.57959747314453,-86.50716400146484,64.54188537597656,9.72538661956787,-0.40271863341331,0.51943981647491,-1.99167573451996,-0.42691889405251,-1.29403686523438
280,1612526778,-32.71990585327148,-86.51181793212891,64.67538452148438,9.68741130828857,-0.28349319100380,0.45470568537712,-0.51998901367188,-0.39735543727875,-1.00805175304413
281,1612543445,-32.88788223266602,-86.51159667968750,64.84578704833984,9.72786998748779,-0.36453354358673,0.41978237032890,0.19112834334373,-0.23458668589592,-0.73339402675629
282,1612560112,-33.02303695678711,-86.49943542480469,64.98757934570312,9.79305744171143,-0.27839702367783,0.41830897331238,-0.05864027142525,0.43222069740295,-0.46200183033943
283,1612576779,-33.01264572143555,-86.47658538818359,64.95761108398438,9.79269599914551,-0.42316561937332,0.42824411392212,-1.16432774066925,1.30844390392303,-0.61246365308762
284,1612593446,-32.85725784301758,-86.44411468505859,64.77231597900391,9.75757598876953,-0.38260802626610,0.42874339222908,-1.78101766109467,2.09767413139343,-0.79695200920105
285,1612610113,-32.60822677612305,-86.41046142578125,64.48662567138672,9.76421451568604,-0.39188164472580,0.49636837840080,-2.26454663276672,2.36468601226807,-1.09687662124634
286,1612626780,-32.35485076904297,-86.38058471679688,64.16648864746094,9.75615787506104,-0.37541642785072,0.52928835153580,-4.02211666107178,2.26235079765320,-1.33426809310913
287,1612643447,-32.06583786010742,-86.35707092285156,63.79534912109375,9.74948883056641,-0.40957623720169,0.57671391963959,-4.82997274398804,2.04733824729919,-1.71186971664429
288,1612660114,-31.78853797912598,-86.34280395507812,63.44022369384766,9.79054260253906,-0.51525449752808,0.68638050556183,-4.47487831115723,1.51884603500366,-1.97904860973358
289,1612676781,-31.50252723693848,-86.33842468261719,63.09600448608398,9.77419281005859,-0.52211838960648,0.70238316059113,-3.24407315254211,1.02125537395477,-2.23959398269653
290,1612693448,-31.22547721862793,-86.34559631347656,62.77313995361328,9.71605110168457,-0.52369374036789,0.63830709457397,-2.84312510490417,0.38273698091507,-2.56042504310608
291,1612710115,-30.96582794189453,-86.36547088623047,62.46264648437500,9.66476058959961,-0.40012791752815,0.61468827724457,-2.95929121971130,-0.30579000711441,-2.90012598037720
292,1612726782,-30.73324966430664,-86.39766693115234,62.18852996826172,9.71114158630371,-0.34935978055000,0.52764666080475,-2.41687846183777,-0.99974048137665,-3.13603162765503
293,1612743449,-30.52483367919922,-86.43262481689453,61.95265197753906,9.77517986297607,-0.37705257534981,0.52720546722412,-1.76659762859344,-1.24108898639679,-3.10597538948059
294,1612760116,-30.28333473205566,-86.46432495117188,61.68804168701172,9.78575706481934,-0.46287217736244,0.53826707601547,-1.46486711502075,-1.03809559345245,-3.09009552001953
295,1612776783,-29.97957229614258,-86.49111938476562,61.36031723022461,9.77875995635986,-0.37663435935974,0.50501948595047,-1.45188152790070,-0.68446099758148,-3.13285589218140
296,1612793450,-29.62932395935059,-86.51867675781250,60.97752380371094,9.72933769226074,-0.43853896856308,0.51273310184479,-1.80857717990875,-0.61311691999435,-3.29234671592712
297,1612810117,-29.26097106933594,-86.54521179199219,60.58885192871094,9.76646709442139,-0.35578715801239,0.51785027980804,-1.18390858173370,-0.57967936992645,-3.28312540054321
298,1612826784,-28.86083412170410,-86.57028961181641,60.15980911254883,9.80540275573730,-0.33376830816269,0.50321781635284,-1.44223833084106,-0.47013387084007,-3.34663224220276
299,1612843451,-28.39965057373047,-86.59682464599609,59.68592834472656,9.76116943359375,-0.38933411240578,0.54012274742126,-0.76647287607193,-0.47418075799942,-3.52811121940613
300,1612860118,-27.93524360656738,-86.63209533691406,59.20418930053711,9.71254634857178,-0.42797914147377,0.58220183849335,-1.01107430458069,-0.94065219163895,-3.77549171447754
301,1612876785,-27.40275955200195,-86.67210388183594,58.66671371459961,9.74156665802002,-0.45120424032211,0.55471068620682,-0.43161243200302,-1.12941765785217,-4.06587553024292
302,1612893452,-26.84473419189453,-86.71461486816406,58.11662673950195,9.74546623229980,-0.41212689876556,0.53380084037781,0.40265083312988,-1.27890610694885,-4.13569545745850
303,1612910119,-26.25803565979004,-86.75466156005859,57.55931091308594,9.67613315582275,-0.25114455819130,0.50899106264114,1.70373785495758,-1.17987477779388,-4.06141901016235
304,1612926786,-25.64115524291992,-86.79613494873047,56.95637512207031,9.73707866668701,-0.06511867791414,0.42657375335693,0.92773669958115,-1.20833027362823,-4.18124723434448
305,1612943453,-25.02980613708496,-86.83528900146484,56.32738876342773,9.76719665527344,-0.08958233147860,0.46180462837219,-0.37772327661514,-1.13246560096741,-4.14870691299438
306,1612960120,-24.39550590515137,-86.86643218994141,55.68265151977539,9.79681777954102,-0.25558689236641,0.44399681687355,-1.08244395256042,-0.67357558012009,-4.01334333419800
307,1612976787,-23.65201950073242,-86.89247131347656,54.91023254394531,9.75318527221680,-0.13659536838531,0.40461477637291,-1.74906575679779,-0.27304419875145,-4.22227954864502
308,1612993454,-22.87978935241699,-86.90940093994141,54.06293487548828,9.76261615753174,-0.15614956617355,0.44267082214355,-4.18888092041016,0.26304885745049,-4.19852399826050
309,1613010121,-22.07897186279297,-86.92050170898438,53.17447662353516,9.75446033477783,-0.23166611790657,0.49612787365913,-5.10511159896851,0.58808690309525,-4.19203138351440
310,1613026788,-21.26764488220215,-86.93363189697266,52.30995941162109,9.73081398010254,-0.25060546398163,0.52321910858154,-3.38090229034424,0.41746783256531,-4.17529344558716
311,1613043455,-20.43318367004395,-86.94879913330078,51.41648864746094,9.74840354919434,-0.18960030376911,0.50354135036469,-3.42085790634155,0.28428179025650,-4.28103494644165
312,1613060122,-19.54105186462402,-86.95535278320312,50.44786834716797,9.72830104827881,-0.15681415796280,0.44426172971725,-4.29306602478027,0.77527081966400,-4.32510757446289
313,1613076789,-18.57689476013184,-86.97431182861328,49.37874221801758,9.75662326812744,-0.10404267162085,0.44298392534256,-6.14868783950806,0.14548656344414,-4.87195873260498
314,1613093456,-17.55193901062012,-87.00088500976562,48.22635650634766,9.71336650848389,-0.21512591838837,0.52778857946396,-7.47783374786377,-0.26181304454803,-5.23558235168457
315,1613110123,-16.49261474609375,-87.03984832763672,47.04957580566406,9.75221633911133,-0.35383811593056,0.57335495948792,-6.94571876525879,-1.02626287937164,-5.48466730117798
316,1613126790,-15.28476142883301,-87.08704376220703,45.77716827392578,9.72068500518799,-0.20659919083118,0.52030348777771,-3.76352429389954,-1.52181088924408,-5.83282566070557
317,1613143457,-14.03609561920166,-87.14830017089844,44.44045639038086,9.77231884002686,-0.18177695572376,0.50713104009628,-5.11308431625366,-2.39275860786438,-6.12399196624756
318,1613160124,-12.69972801208496,-87.21674346923828,43.01853179931641,9.74960041046143,-0.22081644833088,0.54186892509460,-4.81643056869507,-2.88568091392517,-6.31788539886475
319,1613176791,-11.19558429718018,-87.29650878906250,41.45239639282227,9.71674442291260,-0.25192973017693,0.54318952560425,-3.35103821754456,-3.60078787803650,-6.68172740936279
320,1613193458,-9.51161956787109,-87.38835906982422,39.71870422363281,9.72906684875488,-0.13806012272835,0.56295061111450,-2.85680270195007,-4.40395116806030,-7.04686164855957
321,1613210125,-7.57559490203857,-87.49172973632812,37.73633956909180,9.73417282104492,-0.11440584808588,0.56444233655930,-2.62123012542725,-5.13892078399658,-7.48902750015259
322,1613226792,-5.32415199279785,-87.60526275634766,35.42537689208984,9.75881004333496,-0.10150618851185,0.51954501867294,-3.42315077781677,-5.90920972824097,-7.99275159835815
323,1613243459,-2.69989299774170,-87.72634887695312,32.73745727539062,9.76867198944092,-0.17230017483234,0.56617385149002,-3.45274662971497,-6.58550214767456,-8.40437507629395
324,1613260126,0.35994753241539,-87.85689544677734,29.63393020629883,9.73665904998779,-0.12014755606651,0.55240637063980,-2.54065251350403,-7.46960020065308,-8.71524906158447
325,1613276793,4.05999660491943,-88.00012207031250,25.87975692749023,9.73224353790283,-0.08301946520805,0.57219809293747,-3.02304315567017,-8.65822410583496,-9.22079467773438
326,1613293460,8.50418281555176,-88.14733886718750,21.39741134643555,9.70496749877930,-0.07450217753649,0.52118706703186,-2.17677354812622,-9.50102424621582,-9.49300765991211
327,1613310127,14.00102424621582,-88.29257202148438,15.86777305603027,9.78893852233887,-0.04237503930926,0.49635225534439,-1.61308884620667,-10.31336975097656,-9.94874763488770
328,1613326794,20.84133911132812,-88.43589782714844,9.00113010406494,9.67752933502197,-0.00942571181804,0.42502045631409,-1.23564743995667,-11.46503543853760,-10.30521488189697
329,1613343461,29.35785484313965,-88.56946563720703,0.45829522609711,9.72270584106445,-0.01140151172876,0.42748856544495,-1.18462681770325,-12.79240226745605,-10.50073051452637
330,1613360128,40.10407257080078,-88.67854309082031,-10.29878902435303,9.67338180541992,-0.00027566563222,0.41552382707596,-0.44978514313698,-14.23401737213135,-10.91250801086426
331,1613376795,53.14698028564453,-88.74446105957031,-23.34073257446289,9.70588874816895,-0.00743747781962,0.37416690587997,0.57188749313354,-15.83322715759277,-11.10670471191406
332,1613393462,68.12708282470703,-88.74227905273438,-38.29372024536133,9.70889759063721,0.18166843056679,0.36405962705612,1.42150068283081,-17.73921775817871,-11.48236942291260
333,1613410129,83.56003570556641,-88.64926147460938,-53.75013732910156,9.70706176757812,0.32486167550087,0.35386195778847,-1.78419673442841,-19.92993164062500,-11.71726799011230
334,1613426796,97.96346282958984,-88.46176147460938,-68.20666503906250,9.63766670227051,0.28338786959648,0.30028164386749,-3.30871987342834,-22.62942504882812,-11.71951580047607
335,1613443463,110.18027496337891,-88.18038177490234,-80.49445343017578,9.70391559600830,0.26632919907570,0.32582175731659,-4.38009119033813,-25.35312271118164,-11.75715923309326
336,1613460130,120.15522766113281,-87.80732727050781,-90.56265258789062,9.63355255126953,0.19425104558468,0.35212072730064,-5.39695978164673,-28.66789245605469,-11.90327262878418
337,1613476797,128.34498596191406,-87.34200286865234,-98.88150024414062,9.70292758941650,0.29063931107521,0.56702005863190,-7.65816879272461,-33.06337356567383,-11.98012733459473
338,1613493464,134.58383178710938,-86.82695007324219,-105.34355926513672,10.38097095489502,0.37171554565430,0.79956465959549,-12.51160049438477,-35.03383636474609,-11.02955245971680
339,1613510131,139.39404296875000,-86.31501770019531,-110.34311676025391,10.45187473297119,0.74860227108002,0.41872781515121,-10.86369228363037,-34.51018142700195,-8.86868381500244
340,1613526798,143.78718566894531,-85.70709991455078,-115.06348419189453,10.52818584442139,0.94217008352280,0.41468900442123,-18.69648551940918,-40.59402084350586,-8.30351924896240
341,1613543465,147.48440551757812,-85.05101776123047,-119.21931457519531,10.84138965606689,0.65333002805710,1.01417064666748,-26.61067771911621,-43.64316940307617,-6.77401542663574
342,1613560132,149.63240051269531,-84.63867187500000,-122.21472167968750,11.57388782501221,0.05797975137830,1.64104509353638,-50.04774093627930,-29.37759971618652,-0.31817114353180
343,1613576799,151.36036682128906,-84.48100280761719,-124.28460693359375,10.42846965789795,-0.14710879325867,-0.43515533208847,-19.93148803710938,-13.93204689025879,4.35268926620483
344,1613593466,154.51426696777344,-83.81375885009766,-127.73231506347656,9.59586811065674,0.82559818029404,-1.03455662727356,-16.53501510620117,-45.08897781372070,-0.62345659732819
345,1613610133,156.82872009277344,-82.88639068603516,-130.46534729003906,10.50981330871582,0.44657182693481,-0.36749428510666,-24.00018119812012,-58.33907699584961,-6.81845331192017
346,1613626800,158.48616027832031,-81.98731994628906,-132.77342224121094,10.38305664062500,-0.83202457427979,-0.12616920471191,-37.82039642333984,-56.66187667846680,-4.86870765686035
347,1613643467,159.77397155761719,-81.23505401611328,-134.88584899902344,10.13976478576660,-1.09004330635071,1.15876173973083,-48.11048126220703,-48.63005447387695,-0.04053276404738
348,1613660134,160.15441894531250,-80.78404998779297,-136.23136901855469,9.53698062896729,0.59037101268768,3.53803753852844,-56.90956878662109,-29.63936996459961,1.32521402835846
349,1613676801,159.85943603515625,-80.72816467285156,-137.10052490234375,9.44960784912109,-0.98373597860336,3.49950146675110,-69.17071533203125,-5.93074750900269,5.45917797088623
350,1613693468,159.20835876464844,-81.11051177978516,-137.33763122558594,9.41755008697510,0.42379784584045,4.32086849212646,-53.12114334106445,20.76425933837891,8.84491825103760
351,1613710135,158.05233764648438,-81.87547302246094,-136.90435791015625,9.24993419647217,0.28234073519707,3.68218326568604,-43.66944503784180,44.16393661499023,11.84667205810547
352,1613726802,156.27247619628906,-82.98482513427734,-135.46156311035156,9.47746658325195,0.50517737865448,3.38043117523193,-21.00396919250488,65.75736236572266,14.00290584564209
353,1613743469,153.16499328613281,-84.35465240478516,-132.28323364257812,9.73664283752441,0.68406540155411,2.98081374168396,3.05091452598572,83.19313812255859,14.70180988311768
354,1613760136,146.54327392578125,-85.89310455322266,-125.18984222412109,10.13796329498291,0.77487200498581,2.61361241340637,26.72098159790039,97.67573547363281,13.48719024658203
355,1613776803,128.90122985839844,-87.42314147949219,-106.85989379882812,10.45637798309326,0.99667775630951,2.43277311325073,39.47528076171875,109.85508728027344,11.69521808624268
356,1613793470,80.02334594726562,-88.18673706054688,-57.25960159301758,10.73812103271484,0.95232206583023,1.98717498779297,42.06028747558594,118.93245697021484,10.29757022857666
357,1613810137,34.74535751342773,-87.11717224121094,-11.38124084472656,10.96041679382324,0.82586365938187,1.56214308738708,34.21210861206055,125.30429077148438,9.63587379455566
358,1613826804,18.49429893493652,-85.21386718750000,5.24513101577759,11.07995796203613,0.55713629722595,0.89838135242462,20.22534751892090,130.48381042480469,8.12580299377441
359,1613843471,11.68928718566895,-83.11732482910156,12.35851383209229,10.94437313079834,0.16970440745354,0.29786586761475,16.23965835571289,132.30422973632812,8.07138347625732
360,1613860138,7.82628345489502,-80.99401092529297,16.37056732177734,10.96072292327881,0.07716353237629,0.13507817685604,6.60105752944946,131.01774597167969,9.99576759338379
361,1613876805,5.31828355789185,-78.90657043457031,18.98767280578613,10.75687408447266,-0.16612717509270,0.01277300715446,4.11626911163330,127.47683715820312,11.64545440673828
362,1613893472,3.55844783782959,-76.90322875976562,20.88135910034180,10.60403633117676,-0.19364134967327,0.01067626476288,5.49541187286377,121.65264892578125,13.17907619476318
363,1613910139,2.25366830825806,-75.01956939697266,22.38286209106445,10.54407215118408,-0.25019729137421,0.03026837110519,9.10341739654541,113.98189544677734,14.83310699462891
364,1613926806,1.26766169071198,-73.28336334228516,23.62530708312988,10.36950111389160,0.04473071917892,0.11390940845013,12.54293251037598,104.76139831542969,15.88148975372314
365,1613943473,0.50913840532303,-71.71719360351562,24.66006660461426,9.80453395843506,0.49850001931190,0.17893159389496,13.69192886352539,94.27306365966797,15.94239807128906
366,1613960140,-0.15381395816803,-70.34947204589844,25.47616004943848,9.40959167480469,0.90040510892868,0.32409012317657,6.52386188507080,82.15161132812500,14.39212226867676
367,1613976807,-0.80530077219009,-69.20102691650391,26.12289810180664,9.06741428375244,0.99469953775406,0.39333564043045,-2.68306636810303,68.84067535400391,12.72370529174805
368,1613993474,-1.42291641235352,-68.28425598144531,26.59748268127441,9.03247451782227,1.07714986801147,0.43292510509491,-10.52478694915771,54.84943008422852,10.12410259246826
369,1614010141,-1.95381808280945,-67.62430572509766,26.85982131958008,8.75991153717041,0.88473439216614,0.42195063829422,-17.26969528198242,39.46932601928711,5.80506086349487
370,1614026808,-2.30297303199768,-67.23887634277344,26.93595504760742,8.57133960723877,0.39087536931038,0.32187861204147,-16.73564147949219,23.11436843872070,1.34541976451874
371,1614043475,-2.36021947860718,-67.11454772949219,26.86577033996582,8.56104183197021,0.22826862335205,0.46904808282852,-7.31970310211182,7.59412384033203,-2.59408092498779
372,1614060142,-2.18090605735779,-67.20941162109375,26.67199134826660,9.01113128662109,0.54317522048950,0.91179293394089,0.04198562353849,-5.42644834518433,-5.99966049194336
373,1614076809,-1.78924453258514,-67.44563293457031,26.38840484619141,9.16191101074219,0.40543207526207,1.21065115928650,7.79810810089111,-13.85473155975342,-8.30980587005615
374,1614093476,-1.16414368152618,-67.76411437988281,26.01596260070801,9.31371974945068,0.49087280035019,1.45503187179565,16.84404373168945,-18.79388618469238,-10.26751041412354
375,1614110143,-0.40763771533966,-68.13202667236328,25.59543418884277,9.45497322082520,0.48251324892044,1.67600810527802,22.00233459472656,-21.85355377197266,-11.03874397277832
376,1614126810,0.41388061642647,-68.50911712646484,25.18927001953125,9.67961597442627,0.47725254297256,1.81366395950317,26.64505958557129,-22.53154373168945,-10.26365756988525
377,1614143477,1.19585907459259,-68.87986755371094,24.82848739624023,9.63377380371094,0.53457349538803,1.89978623390198,26.74983596801758,-22.25905799865723,-8.81439304351807
378,1614160144,1.84550523757935,-69.25432586669922,24.52666854858398,9.65322685241699,0.34456831216812,1.96189355850220,22.06464767456055,-22.53185653686523,-7.13373994827271
379,1614176811,2.40083765983582,-69.62733459472656,24.28215789794922,9.63560009002686,0.26743835210800,2.04947233200073,19.58255386352539,-22.45526695251465,-5.57956552505493
380,1614193478,2.84825468063354,-70.00139617919922,24.07629585266113,9.68549919128418,0.11026923358440,2.12362742424011,15.24893856048584,-22.51641273498535,-4.49110889434814
381,1614210145,3.16877889633179,-70.39033508300781,23.92985343933105,9.54146671295166,0.28536754846573,2.15210533142090,10.96323966979980,-23.35596466064453,-3.00791096687317
382,1614226812,3.27145123481750,-70.83154296875000,23.84964370727539,9.35389614105225,0.28591021895409,2.25635552406311,1.61801576614380,-26.41637420654297,-1.36827206611633
383,1614243479,3.32593226432800,-71.32310485839844,23.77037048339844,9.40925216674805,-0.02294374071062,2.53559017181396,-1.23283255100250,-29.42696571350098,-1.10266840457916
384,1614260146,3.48125767707825,-71.84320831298828,23.66582489013672,9.17032623291016,0.12712845206261,2.72035837173462,3.36894583702087,-31.15517807006836,-1.38580548763275
385,1614276813,3.64699053764343,-72.41321563720703,23.55000305175781,8.59465980529785,0.39365369081497,2.81884360313416,3.32705831527710,-34.16265487670898,-1.26262164115906
386,1614293480,3.83359861373901,-73.04091644287109,23.43922424316406,7.51038312911987,0.36167636513710,2.92205333709717,4.84930849075317,-37.59601974487305,-0.77259808778763
387,1614310147,4.21932935714722,-73.72002410888672,23.30487823486328,5.69374895095825,-0.14081057906151,2.96064496040344,15.42083549499512,-40.69441604614258,-0.69852697849274
388,1614326814,5.14626264572144,-74.46025085449219,23.10849761962891,2.89328551292419,-0.33620393276215,2.91923260688782,44.28638076782227,-44.41749572753906,-0.85452836751938
389,1614343481,6.87660217285156,-75.25712585449219,22.70483207702637,-0.62918698787689,0.28476732969284,3.26867389678955,80.44852447509766,-48.09854125976562,-2.54604530334473
390,1614360148,9.33819389343262,-76.07495117187500,21.92288970947266,-2.19264769554138,2.09961080551147,3.69967865943909,102.24861907958984,-50.10544586181641,-5.84417629241943
391,1614376815,12.17591094970703,-76.94277191162109,20.61749649047852,-1.59842801094055,2.57663536071777,3.56478118896484,94.10912322998047,-54.45530700683594,-9.50067901611328
392,1614393482,15.43165493011475,-77.86785888671875,18.69257164001465,0.55450111627579,2.17232584953308,3.04101467132568,82.64194488525391,-59.79590225219727,-12.48443412780762
393,1614410149,18.93338394165039,-78.83586883544922,16.09488677978516,1.95979011058807,2.07977390289307,2.72918415069580,57.46469116210938,-64.66429901123047,-14.18354320526123
394,1614426816,22.27365684509277,-79.85475921630859,12.86572837829590,2.24966645240784,1.72280597686768,2.93815708160400,10.01974678039551,-69.69765472412109,-13.30561542510986
395,1614443483,24.98812675476074,-80.88732147216797,9.49224853515625,2.75612211227417,0.77374029159546,2.89279699325562,-36.67691040039062,-70.19348144531250,-7.48085546493530
396,1614460150,26.62264251708984,-81.85685729980469,6.64275264739990,1.99469482898712,0.07566854357719,3.02882218360901,-70.94429779052734,-63.40137481689453,0.93242806196213
397,1614476817,26.77219963073730,-82.65721893310547,4.86587953567505,1.35973691940308,-0.30857187509537,3.92526602745056,-96.65637207031250,-49.24199295043945,7.45663452148438
398,1614493484,25.52807044982910,-83.11909484863281,4.37536525726318,1.62357795238495,-1.64470338821411,4.74887037277222,-103.84924316406250,-26.37686347961426,7.67045211791992
399,1614510151,23.70502471923828,-83.20280456542969,4.93349742889404,2.50974965095520,-2.27307748794556,4.42381954193115,-76.14762115478516,-2.83346319198608,4.46886157989502
400,1614526818,22.33749198913574,-83.15066528320312,5.24623680114746,2.35713887214661,-2.15328216552734,5.30852413177490,-63.43623733520508,3.81079483032227,-0.42517691850662
401,1614543485,22.43549156188965,-83.15972137451172,4.44120645523071,1.89446246623993,-4.13334226608276,5.72777032852173,-42.08721923828125,-2.64806246757507,-6.38300704956055
402,1614560152,24.09592056274414,-83.39140319824219,2.92816734313965,2.00623965263367,-7.18805885314941,4.82194089889526,9.47524547576904,-16.90882301330566,-5.56399536132812
403,1614576819,27.03590393066406,-83.78807830810547,0.85476404428482,0.94953876733780,-8.05208492279053,5.55177307128906,52.79833602905273,-27.39155197143555,-3.57263755798340
404,1614593486,27.02621459960938,-85.41867065429688,1.80670249462128,8.29165935516357,-12.75545501708984,-52.18262100219727,56.41238403320312,-84.42534637451172,47.87483978271484
405,1614610153,161.06588745117188,-83.19698333740234,-132.03158569335938,30.74225425720215,-7.85501956939697,-37.23910522460938,23.12463378906250,-631.76110839843750,-8.86204338073730
406,1614626820,173.10777282714844,-79.64772796630859,-139.57005310058594,25.65566825866699,4.13923311233521,46.36590576171875,274.96847534179688,-221.91809082031250,17.03199195861816
407,1614643487,175.34617614746094,-74.50214385986328,-136.26498413085938,96.79747009277344,35.51112747192383,8.89898300170898,327.57281494140625,-302.46911621093750,-76.52275848388672
408,1614660154,171.45054626464844,-68.21842956542969,-136.05075073242188,-5.31297826766968,-22.91277885437012,-32.49554061889648,-221.26403808593750,-373.94064331054688,-48.70333480834961
409,1614676821,171.62310791015625,-65.06176757812500,-136.44013977050781,-30.04910850524902,13.56158924102783,-2.79581332206726,-11.11221599578857,-188.57627868652344,-19.99133300781250
410,1614693488,171.82479858398438,-63.02581024169922,-137.13905334472656,3.91221547126770,2.94841289520264,-16.35956382751465,-25.61397933959961,-123.41059112548828,-0.68607455492020
411,1614710155,170.00637817382812,-61.48877716064453,-136.25874328613281,27.68559074401855,2.11629986763000,-9.03855133056641,-62.35835647583008,-87.07020568847656,-40.10361480712891
412,1614726822,169.81758117675781,-60.50555801391602,-136.47833251953125,7.70284557342529,5.39862203598022,-6.66439485549927,-22.86180877685547,-59.09201049804688,-5.30516958236694
413,1614743489,169.66004943847656,-59.81040954589844,-137.53126525878906,14.12521743774414,8.79857158660889,-7.88338613510132,-64.25849914550781,-46.53467941284180,22.24700355529785
414,1614760156,170.37521362304688,-59.65825271606445,-138.75444030761719,14.54283332824707,2.88136243820190,-9.20857048034668,-20.48368644714355,-15.29990100860596,33.59532546997070
415,1614776823,171.86933898925781,-60.07257843017578,-140.58334350585938,12.09308147430420,3.43364262580872,-9.01875019073486,-5.26572895050049,16.15852928161621,57.01559448242188
416,1614793490,173.61224365234375,-60.98646545410156,-142.46174621582031,9.45973587036133,4.28024387359619,-10.74884128570557,6.43799686431885,47.47738647460938,60.68263244628906
417,1614810157,175.41001892089844,-62.41406631469727,-144.01660156250000,12.31882095336914,2.69440364837646,-9.92397880554199,25.70833969116211,81.11750793457031,50.97327804565430
418,1614826824,177.19445800781250,-64.69485473632812,-145.63931274414062,14.57099056243896,1.87804234027863,-9.11068153381348,19.85757064819336,133.83764648437500,50.85692977905273
419,1614843491,178.68360900878906,-68.14183044433594,-147.46554565429688,17.11997604370117,2.66874265670776,-10.37796211242676,-11.12915325164795,205.15696716308594,50.01294708251953
420,1614860158,179.64350891113281,-73.18901824951172,-149.28623962402344,23.19859695434570,5.62864971160889,-10.86930084228516,-45.58472061157227,302.27175903320312,39.36933898925781
421,1614876825,176.89328002929688,-80.37841033935547,-148.35105895996094,38.37998962402344,10.10067844390869,-7.06150341033936,-110.21930694580078,431.45706176757812,-1.02088022232056
422,1614893492,106.30455017089844,-88.26494598388672,-81.15128326416016,55.43684768676758,7.12941360473633,5.35843276977539,-211.01510620117188,542.82580566406250,-54.05440139770508
423,1614910159,18.30405616760254,-81.44216918945312,3.46725010871887,42.89693069458008,3.09991979598999,-23.93660354614258,-210.21371459960938,510.06356811523438,-73.98254394531250
424,1614926826,5.20349550247192,-81.15973663330078,9.19215488433838,-16.85918235778809,-20.88029289245605,-29.16164207458496,-446.55468750000000,27.26949119567871,46.26862716674805
425,1614943493,12.91546535491943,-84.55122375488281,-4.91563081741333,-5.13991355895996,-2.12166476249695,-13.03980350494385,-377.46313476562500,-215.69279479980469,-73.41473388671875
426,1614960160,68.80751800537109,-87.27043151855469,-61.32004547119141,5.14514780044556,-18.47155380249023,5.63539266586304,-24.18688583374023,-260.54058837890625,-83.80435180664062
427,1614976827,127.26317596435547,-85.55194854736328,-114.85871887207031,3.13588190078735,-5.64305686950684,8.70998954772949,299.88482666015625,-205.87295532226562,-64.55111694335938
428,1614993494,143.69854736328125,-83.99681091308594,-124.45101928710938,1.57033300399780,4.09393835067749,21.32698059082031,412.81524658203125,-102.85363769531250,-28.85495758056641
429,1615010161,139.93484497070312,-83.92091369628906,-116.23241424560547,2.76607084274292,6.19816207885742,13.84529876708984,264.51943969726562,28.65817642211914,-44.91406250000000
430,1615026828,124.02931213378906,-84.72492980957031,-98.84873962402344,4.04050779342651,6.39362859725952,11.45271396636963,83.68775177001953,108.49980926513672,-34.80058288574219
431,1615043495,100.38759613037109,-85.17363739013672,-78.65005493164062,-0.59012705087662,9.16892528533936,9.85816764831543,-211.05366516113281,108.65854644775391,-17.03599929809570
432,1615060162,76.59822082519531,-85.49880981445312,-60.49600219726562,-0.60052901506424,-2.69860482215881,2.64779281616211,-341.57049560546875,88.10669708251953,20.25856399536133
433,1615076829,55.23569107055664,-85.69812011718750,-42.35416793823242,-0.56082832813263,-8.92892932891846,-0.35646045207977,-196.36466979980469,71.56957244873047,43.58119583129883
434,1615093496,39.08774566650391,-85.50673675537109,-26.57612037658691,-0.22141705453396,-2.92727732658386,0.48549580574036,-24.94123458862305,61.09740066528320,39.82582473754883
435,1615110163,30.76680183410645,-84.84208679199219,-17.39158058166504,-0.14272752404213,0.90664637088776,1.95793640613556,49.85739135742188,59.18530273437500,14.16513824462891
436,1615126830,28.93199539184570,-83.95017242431641,-13.61007595062256,0.83487921953201,-0.42312762141228,-0.12115643173456,115.70900726318359,57.43810272216797,-8.54866695404053
437,1615143497,30.11968994140625,-83.16218566894531,-12.67568016052246,0.94353371858597,-0.40676790475845,0.13117770850658,126.95991516113281,44.27074432373047,-19.02223777770996
438,1615160164,31.96837615966797,-82.45046234130859,-12.57038879394531,1.27874827384949,0.07145097106695,0.48450046777725,117.17786407470703,37.03604888916016,-22.55994415283203
439,1615176831,32.43646240234375,-81.61161804199219,-11.70306777954102,0.62372648715973,1.28787589073181,0.45401218533516,79.60581970214844,46.48616027832031,-21.92869949340820
440,1615193498,30.01889419555664,-80.81066131591797,-9.13795948028564,0.65914726257324,-1.38643193244934,-1.20785522460938,7.02638530731201,53.34196472167969,-6.00232172012329
441,1615210165,25.88978195190430,-80.06641387939453,-5.20765066146851,0.22570160031319,-2.71705126762390,-1.87518846988678,-15.21828365325928,57.86782836914062,12.46858787536621
442,1615226832,21.63790893554688,-79.35755920410156,-1.20183324813843,-0.20845800638199,-2.23299741744995,-0.97848182916641,-18.64257812500000,56.27359390258789,20.94299697875977
443,1615243499,18.31546974182129,-78.70113372802734,2.04374051094055,-0.39588028192520,-2.34986400604248,0.11893872171640,-8.18395709991455,49.74446105957031,20.15129852294922
444,1615260166,16.26348686218262,-78.11512756347656,4.47943735122681,-0.10883379727602,-1.98699617385864,-0.50125455856323,20.02921867370605,42.36992263793945,16.35806846618652
445,1615276833,14.60160923004150,-77.70806121826172,6.56938505172729,-0.46941077709198,-1.50119650363922,-0.38879773020744,22.89498138427734,30.61935997009277,17.57309150695801
446,1615293500,12.88937664031982,-77.42298126220703,8.58990192413330,-0.30696168541908,-1.12277245521545,0.06954973191023,15.64442539215088,22.90319633483887,20.04729270935059
447,1615310167,10.88303184509277,-77.19887542724609,10.60454559326172,-0.43836718797684,0.19931414723396,1.12232017517090,-2.46502470970154,18.71533584594727,21.96782684326172
448,1615326834,8.54986572265625,-77.06182861328125,12.37966156005859,-0.95618575811386,0.87699007987976,0.98431378602982,-36.17017745971680,12.20270824432373,20.74600982666016
449,1615343501,6.06800460815430,-77.13143920898438,13.99127578735352,-0.52630549669266,0.24610860645771,-0.59083318710327,-54.66737365722656,-1.29919409751892,20.70000267028809
450,1615360168,3.92497348785400,-77.46352386474609,15.25232696533203,-0.06219410523772,-0.19921632111073,-0.91274464130402,-54.77926254272461,-18.29694747924805,17.06049728393555
451,1615376835,2.84028267860413,-77.96122741699219,15.83249092102051,-0.32312917709351,0.30848011374474,0.52107262611389,-31.07405471801758,-29.26362228393555,7.90148639678955
452,1615393502,1.86001479625702,-78.56175994873047,16.31725692749023,-0.05955380201340,2.45725584030151,-0.08342363685369,-30.34210205078125,-35.64708709716797,6.13480758666992
453,1615410169,-0.16255414485931,-79.42002868652344,17.12328529357910,0.02222701162100,5.28925180435181,-1.17028009891510,-73.88387298583984,-51.22423553466797,8.74839115142822
454,1615426836,-2.00672841072083,-80.61246490478516,17.86895942687988,-1.34433662891388,1.06810879707336,-2.60737013816833,-66.58400726318359,-71.53395843505859,5.15800189971924
455,1615443503,-1.44385135173798,-82.56797790527344,19.29974746704102,9.22282505035400,0.89743483066559,-30.83844757080078,118.73795318603516,-117.44017028808594,7.78877544403076
456,1615460170,175.61665344238281,-87.79735565185547,-157.29641723632812,3.34507179260254,0.43146347999573,-95.21165466308594,27.49475479125977,-580.05841064453125,-21.52039337158203
457,1615476837,179.25616455078125,-82.77748870849609,-155.33984375000000,60.79867935180664,-8.37138843536377,87.24107360839844,335.61633300781250,-299.01510620117188,-24.39379692077637
458,1615493504,-174.66621398925781,-75.89821624755859,-158.96771240234375,88.05652618408203,-36.24996566772461,-3.85154199600220,150.27221679687500,-410.23703002929688,55.51104736328125
459,1615510171,173.78985595703125,-73.43489837646484,-151.71722412109375,32.14161682128906,40.73285675048828,21.32136535644531,-272.86993408203125,-146.51167297363281,-117.45103454589844
460,1615526838,179.44599914550781,-71.34649658203125,-150.23793029785156,8.62002944946289,4.99953508377075,-15.14523696899414,423.89062500000000,-123.44338989257812,-35.48217773437500
461,1615543505,175.80068969726562,-69.41175079345703,-149.78956604003906,-15.36619091033936,-3.40618133544922,-20.50451087951660,-193.33975219726562,-115.50183105468750,-15.09872436523438
462,1615560172,177.40084838867188,-69.87554168701172,-152.23884582519531,-8.87257099151611,8.49697303771973,-11.22241020202637,-41.77780914306641,24.83326530456543,51.43114471435547
463,1615576839,179.04298400878906,-71.65502166748047,-155.34423828125000,12.06582641601562,2.02203321456909,-9.43665599822998,-77.41532897949219,104.84883117675781,63.42529296875000
464,1615593506,-179.45491027832031,-73.80046081542969,-157.69433593750000,16.37768554687500,-1.58427774906158,-6.05676221847534,-44.54928970336914,128.61273193359375,41.09591293334961
465,1615610173,-178.32849121093750,-75.71006774902344,-158.90937805175781,12.67593097686768,-0.86409759521484,-5.04955291748047,-2.78035235404968,114.97687530517578,15.71481037139893
466,1615626840,-177.65783691406250,-77.51925659179688,-159.72619628906250,9.43491840362549,1.80655837059021,-3.57783484458923,-7.46681404113770,108.92977142333984,6.30091905593872
467,1615643507,-176.84962463378906,-79.25177001953125,-160.55993652343750,6.44432783126831,0.36183473467827,-2.96547842025757,-0.53764402866364,104.35303497314453,3.84861612319946
468,1615660174,-174.73707580566406,-81.00698089599609,-162.04476928710938,5.39296674728394,-0.80557978153229,-2.68938016891479,38.92520141601562,106.15318298339844,6.28632640838623
469,1615676841,-172.33688354492188,-82.75053405761719,-163.58328247070312,5.69574117660522,-1.46530258655548,-2.16726231575012,52.54917907714844,105.39129638671875,-0.02869402803481
470,1615693508,-169.96025085449219,-84.45384216308594,-164.95909118652344,5.35900306701660,-2.29827332496643,-2.14937710762024,60.45024871826172,102.29863739013672,-7.82565927505493
471,1615710175,-167.44813537597656,-86.13406372070312,-166.51116943359375,6.56431674957275,-2.40409159660339,-0.66732609272003,57.72243499755859,100.09831237792969,-13.39121341705322
472,1615726842,-162.31898498535156,-87.73799896240234,-170.98092651367188,8.87339878082275,-1.29111015796661,0.89673906564713,39.53803634643555,95.92696380615234,-12.14716243743896
473,1615743509,-136.09814453125000,-89.23077392578125,162.68830871582031,11.79880142211914,0.52348011732101,4.10386419296265,-7.30452442169189,94.11592102050781,-7.07441282272339
474,1615760176,-28.64729881286621,-89.14797973632812,55.15125656127930,13.12243366241455,3.86447381973267,3.10987734794617,-1.07793927192688,86.64460754394531,-10.07255363464355
475,1615776843,-12.44593715667725,-88.05630493164062,39.28887557983398,11.33599567413330,1.78538429737091,2.26661610603333,19.90624427795410,66.78657531738281,-2.08935332298279
476,1615793510,-11.21812438964844,-87.21463012695312,38.23639297485352,9.50770187377930,2.73180603981018,2.37995624542236,10.29630279541016,49.39269256591797,6.37066030502319
477,1615810177,-11.39393806457520,-86.63308715820312,38.20597457885742,9.76910209655762,-0.40231585502625,1.79840409755707,-12.50049018859863,34.05800247192383,5.43990087509155
478,1615826844,-10.97893905639648,-86.26011657714844,37.69886779785156,9.18256855010986,-1.64565217494965,1.75851106643677,-5.52130126953125,22.30476570129395,1.21196329593658
479,1615843511,-10.31173896789551,-86.03306579589844,36.87596893310547,9.58734130859375,-0.29002746939659,1.73156046867371,-9.27023124694824,14.03197574615479,-2.02198362350464
480,1615860178,-9.64180755615234,-85.89453887939453,35.84545516967773,10.07428455352783,0.14417648315430,1.68014109134674,-21.50741195678711,8.99667835235596,-4.11932468414307
481,1615876845,-9.21215343475342,-85.81240844726562,35.12926101684570,9.50427627563477,-0.85291659832001,1.49529826641083,-17.10191535949707,5.44469594955444,-3.52227544784546
482,1615893512,-8.66762065887451,-85.79150390625000,34.64176177978516,9.75392055511475,-0.69416373968124,1.31889677047729,3.49391174316406,1.66502404212952,-3.17491197586060
483,1615910179,-7.91723346710205,-85.80838775634766,34.00939178466797,9.72766685485840,-0.14105789363384,1.31967067718506,7.18670129776001,-0.49268600344658,-4.15234470367432
484,1615926846,-7.28981637954712,-85.88382720947266,33.34946823120117,9.56024551391602,-0.03440051525831,1.04885220527649,-1.84539520740509,-3.98702692985535,-4.69737005233765
485,1615943513,-6.66274213790894,-86.01680755615234,32.49897384643555,9.21109867095947,-0.28932711482048,0.84217000007629,-13.26828670501709,-7.33663606643677,-5.80262660980225
486,1615960180,-5.91328716278076,-86.18196868896484,31.72894477844238,9.97908210754395,-0.63137799501419,0.79151439666748,-1.11495971679688,-9.37249755859375,-5.46617460250854
487,1615976847,-5.14399814605713,-86.29499053955078,31.05698966979980,10.10264492034912,1.04185545444489,0.41756477952003,5.93856763839722,-6.36038970947266,-4.54322004318237
488,1615993514,-4.71850919723511,-86.39516448974609,30.41533470153809,9.40663528442383,0.10980635881424,0.13485457003117,-12.88546562194824,-5.63597679138184,-4.21694231033325
489,1616010181,-4.07191514968872,-86.42127990722656,29.74829483032227,9.86588764190674,-0.13538125157356,0.08216291666031,-1.14563667774200,-1.26172637939453,-3.87911367416382
490,1616026848,-3.61672449111938,-86.34526824951172,29.10729980468750,9.95126152038574,0.92282581329346,0.45365592837334,-11.09492301940918,4.78263616561890,-3.37773418426514
491,1616043515,-3.48282432556152,-86.27153778076172,28.61542510986328,9.71224498748779,0.36971062421799,0.65735495090485,-21.44063377380371,4.60425519943237,-2.88039636611938
492,1616060182,-3.44786882400513,-86.23038482666016,28.32345008850098,9.70038986206055,-0.00304788863286,0.89294505119324,-15.39900970458984,2.62244200706482,-2.24577474594116
493,1616076849,-3.49984073638916,-86.23807525634766,28.23111152648926,9.72297668457031,0.34003627300262,1.03946793079376,-8.65651798248291,-0.34253150224686,-1.63823974132538
494,1616093516,-3.63837766647339,-86.29049682617188,28.21512413024902,9.71444606781006,-0.09548296034336,0.87228083610535,-9.27372074127197,-3.01841902732849,-1.50105834007263
495,1616110183,-3.57967519760132,-86.37366485595703,28.11318016052246,9.63116264343262,-0.25421559810638,0.71618449687958,-2.58006954193115,-4.82517671585083,-1.94749999046326
496,1616126850,-3.29497194290161,-86.46432495117188,27.84553146362305,9.66908454895020,-0.07940026372671,0.52236223220825,1.06655776500702,-5.22903776168823,-2.57512640953064
497,1616143517,-2.79995679855347,-86.55878448486328,27.34481811523438,9.55970954895020,-0.09514234960079,0.53807342052460,-0.27925533056259,-5.44225168228149,-3.38155555725098
498,1616160184,-2.24184012413025,-86.61331939697266,26.86638259887695,9.89921092987061,-0.07220095396042,0.53924971818924,4.83211183547974,-3.07110381126404,-3.10577082633972
499,1616176851,-1.73013699054718,-86.64024353027344,26.42867469787598,9.87335586547852,0.38763573765755,0.46559193730354,4.48473882675171,-1.46085882186890,-2.85612368583679
500,1616193518,-1.29292750358582,-86.66610717773438,26.02363967895508,9.67346000671387,0.29448115825653,0.34972992539406,1.97163379192352,-1.40947961807251,-2.71367859840393
501,1616210185,-0.99938303232193,-86.69210052490234,25.75101470947266,9.71266555786133,0.32146486639977,0.42324540019035,1.27522432804108,-1.44052219390869,-2.22986698150635
502,1616226852,-0.82169908285141,-86.72690582275391,25.51716613769531,9.85549736022949,0.31062534451485,0.68835300207138,-3.34247660636902,-1.94229435920715,-2.08648109436035
503,1616243519,-0.72408819198608,-86.76560211181641,25.38534927368164,9.87013530731201,0.11648809164762,0.68129861354828,-2.04639077186584,-2.21630525588989,-1.72787106037140
504,1616260186,-0.61247318983078,-86.80929565429688,25.22315025329590,9.83059120178223,0.22559152543545,0.56584310531616,-3.01045274734497,-2.48012900352478,-1.82275342941284
505,1616276853,-0.46699571609497,-86.84924316406250,24.99954795837402,9.76560688018799,0.03131669759750,0.48991930484772,-4.67815971374512,-2.28828978538513,-2.01367044448853
506,1616293520,-0.33243912458420,-86.86350250244141,24.84314346313477,9.81149005889893,-0.06483377516270,0.32812058925629,-1.29695022106171,-0.74176937341690,-1.76741719245911
507,1616310187,-0.20874667167664,-86.83838653564453,24.70145988464355,9.82279586791992,0.33256849646568,0.17565198242664,-1.07750058174133,1.59754729270935,-1.70684301853180
508,1616326854,-0.11793961375952,-86.77967071533203,24.53163146972656,9.79769229888916,0.31651100516319,0.24104717373848,-4.74732780456543,3.59540271759033,-1.80560600757599
509,1616343521,-0.18583209812641,-86.71199035644531,24.48825263977051,9.76184368133545,0.23089553415775,0.58737277984619,-6.69344472885132,4.13125896453857,-1.38145959377289
510,1616360188,-0.36693677306175,-86.64164733886719,24.61577987670898,9.81330394744873,0.07678917795420,0.68893206119537,-3.24799799919128,4.28668880462646,-0.77731990814209
511,1616376855,-0.58688032627106,-86.58356475830078,24.79284286499023,9.65769004821777,0.24823519587517,0.73633801937103,-2.61372470855713,3.54927325248718,-0.58368784189224
512,1616393522,-0.72928923368454,-86.55463409423828,24.87174797058105,9.68435096740723,0.05434158444405,0.79653948545456,-3.82940578460693,1.82693457603455,-0.93788582086563
513,1616410189,-0.72723948955536,-86.55792999267578,24.82801437377930,9.67352962493896,-0.07077366113663,0.92211300134659,-2.50426888465881,-0.09644460678101,-1.40507423877716
514,1616426856,-0.60248959064484,-86.58567810058594,24.69813919067383,9.71915817260742,0.03111086040735,0.75690239667892,-0.29916915297508,-1.55684232711792,-1.72988176345825
515,1616443523,-0.37385466694832,-86.63600158691406,24.43433189392090,9.69744110107422,0.11877565830946,0.66742837429047,-2.07435965538025,-2.87783002853394,-2.21056795120239
516,1616460190,-0.14434811472893,-86.68624877929688,24.21339988708496,9.81741619110107,0.01294711045921,0.64058119058609,0.53106009960175,-2.90299439430237,-2.03468561172485
517,1616476857,0.00768230808899,-86.72403717041016,24.11013984680176,9.85995388031006,0.24027872085571,0.47174954414368,2.94129252433777,-2.14131164550781,-1.60443103313446
518,1616493524,0.07656268775463,-86.74327850341797,24.02565765380859,9.81827354431152,0.43268719315529,0.34831115603447,-0.93814194202423,-1.06965029239655,-1.53180575370789
519,1616510191,0.02181043103337,-86.74568176269531,24.01735687255859,9.71268939971924,0.19338305294514,0.40086016058922,-3.78573060035706,-0.03117706254125,-1.27104949951172
520,1616526858,-0.08045664429665,-86.73902130126953,24.10155868530273,9.76606178283691,0.08337441831827,0.60519105195999,-1.10586035251617,0.48324763774872,-0.95259392261505
521,1616543525,-0.26436498761177,-86.73169708251953,24.31089782714844,9.80901432037354,0.21096260845661,0.61289483308792,1.50128209590912,0.54828470945358,-0.52116721868515
522,1616560192,-0.47493875026703,-86.72356414794922,24.52816581726074,9.77557659149170,0.24152630567551,0.55665099620819,0.36347618699074,0.56967121362686,-0.49012455344200
523,1616576859,-0.77904790639877,-86.71150970458984,24.84991645812988,9.76014900207520,0.08536440134048,0.51220440864563,1.01932787895203,0.80428367853165,-0.12009795010090
524,1616593526,-1.02647459506989,-86.70140838623047,25.11099815368652,9.75678348541260,0.13578724861145,0.61084163188934,0.78652119636536,0.69145965576172,-0.32668998837471
525,1616610193,-1.25028049945831,-86.69773101806641,25.36049842834473,9.76232624053955,0.08743972331285,0.61917001008987,1.50733935832977,0.29655024409294,-0.36970651149750
526,1616626860,-1.44165515899658,-86.69458770751953,25.58901405334473,9.78260231018066,0.11075332760811,0.61277025938034,2.19623780250549,0.26641052961349,-0.44249144196510
527,1616643527,-1.62219882011414,-86.68944549560547,25.80249214172363,9.79757308959961,0.12082269787788,0.60284334421158,1.95013809204102,0.39679193496704,-0.48901683092117
528,1616660194,-1.75695943832397,-86.68383026123047,25.95871162414551,9.82139682769775,0.20711587369442,0.53830903768539,1.26328873634338,0.41482967138290,-0.68711185455322
529,1616676861,-1.88436043262482,-86.67822265625000,26.07535743713379,9.77115154266357,0.16409657895565,0.51529705524445,-0.66790229082108,0.41844105720520,-0.82244932651520
530,1616693528,-1.99837589263916,-86.66669464111328,26.16746520996094,9.74413394927979,0.10838554799557,0.50865244865417,-1.33622741699219,0.76060116291046,-0.89638048410416
531,1616710195,-2.08921909332275,-86.65280151367188,26.22830200195312,9.75974369049072,0.14532783627510,0.52859258651733,-1.81701624393463,0.93151473999023,-0.99719202518463
532,1616726862,-2.11015772819519,-86.64076995849609,26.20683097839355,9.72420215606689,0.14744025468826,0.56494104862213,-2.55858063697815,0.80480861663818,-1.29105925559998
533,1616743529,-2.14833235740662,-86.63163757324219,26.20917701721191,9.74784755706787,0.10282137989998,0.62259656190872,-2.15745997428894,0.64757227897644,-1.21214652061462
534,1616760196,-2.15221261978149,-86.62303924560547,26.19699859619141,9.78921031951904,0.14617943763733,0.63675922155380,-0.96949213743210,0.61720848083496,-1.26618957519531
535,1616776863,-2.17463469505310,-86.61644744873047,26.18678092956543,9.80523109436035,0.16931486129761,0.58439517021179,-1.96715784072876,0.49448519945145,-1.26195049285889
536,1616793530,-2.17968988418579,-86.61377716064453,26.15396308898926,9.76479434967041,0.08614484965801,0.59841322898865,-2.27066850662231,0.27489471435547,-1.35049366950989
537,1616810197,-2.14461541175842,-86.61788940429688,26.08554267883301,9.71607589721680,0.15250101685524,0.59847408533096,-2.00354075431824,-0.14140771329403,-1.49547445774078
538,1616826864,-2.07584905624390,-86.63157653808594,25.98980712890625,9.69529438018799,0.04162386059761,0.59495741128922,-1.61628949642181,-0.70998406410217,-1.61166632175446
539,1616843531,-1.94706833362579,-86.65361785888672,25.84826850891113,9.72684764862061,0.14720620214939,0.63488280773163,-0.75531852245331,-1.19611310958862,-1.78730559349060
540,1616860198,-1.78759646415710,-86.68359375000000,25.67407798767090,9.74032115936279,0.07552888244390,0.65064656734467,-0.87117743492126,-1.67363619804382,-1.90986204147339
541,1616876865,-1.60349357128143,-86.72207641601562,25.49810028076172,9.75044918060303,0.02429032512009,0.62935149669647,0.50192570686340,-2.18490433692932,-1.92013287544250
542,1616893532,-1.37542665004730,-86.75798034667969,25.29588890075684,9.79669094085693,0.08645620197058,0.54974347352982,1.57093560695648,-2.02267313003540,-1.99004268646240
543,1616910199,-1.08926105499268,-86.79087829589844,25.01166534423828,9.78266811370850,0.26726219058037,0.51033759117126,0.14768922328949,-1.82495594024658,-2.24882054328918
544,1616926866,-0.82715958356857,-86.82997894287109,24.71299362182617,9.68101119995117,0.18118110299110,0.59253603219986,-2.16655278205872,-2.20696973800659,-2.28215551376343
545,1616943533,-0.55946856737137,-86.87632751464844,24.45928192138672,9.69784641265869,0.07810820639133,0.58200144767761,0.86487048864365,-2.65068387985229,-2.11686420440674
546,1616960200,-0.32400527596474,-86.92533874511719,24.28324508666992,9.79837226867676,0.13008832931519,0.59534740447998,3.58913969993591,-2.80555129051208,-1.83626413345337
547,1616976867,-0.13629288971424,-86.97023773193359,24.13979148864746,9.83877468109131,0.31428912281990,0.51331871747971,2.66416239738464,-2.57926273345947,-1.71393775939941
548,1616993534,-0.00496706552804,-87.01135253906250,24.00195121765137,9.74670505523682,0.17956064641476,0.46692073345184,-0.37910637259483,-2.35031104087830,-1.67983472347260
549,1617010201,0.16563542187214,-87.04919433593750,23.83198928833008,9.72804641723633,0.16056853532791,0.47744551301003,0.05234595760703,-2.15688395500183,-1.76923573017120
550,1617026868,0.31966543197632,-87.08140563964844,23.69401931762695,9.74371814727783,0.18238119781017,0.45104932785034,0.96770536899567,-1.83105182647705,-1.65902423858643
551,1617043535,0.42937460541725,-87.11147308349609,23.58560562133789,9.77112674713135,0.19009187817574,0.45826795697212,0.09355679154396,-1.67253506183624,-1.56041538715363
552,1617060202,0.48127380013466,-87.13816833496094,23.53083419799805,9.75808048248291,0.18584987521172,0.49886259436607,-0.17359006404877,-1.49638330936432,-1.39242160320282
553,1617076869,0.58409148454666,-87.16517639160156,23.43276214599609,9.73591899871826,0.14195358753204,0.49075874686241,0.29564741253853,-1.49379038810730,-1.51830172538757
554,1617093536,0.73733752965927,-87.19523620605469,23.29467201232910,9.74434089660645,0.12714131176472,0.49656730890274,0.90665745735168,-1.72496402263641,-1.63059401512146
555,1617110203,0.92777216434479,-87.22308349609375,23.11954879760742,9.74393558502197,0.15952473878860,0.47723960876465,0.93885272741318,-1.54897940158844,-1.73093199729919
556,1617126870,1.09873771667480,-87.25283813476562,22.94687080383301,9.74937725067139,0.20285783708096,0.44689792394638,-0.09121963381767,-1.68000113964081,-1.71197843551636
557,1617143537,1.28359484672546,-87.28783416748047,22.75318717956543,9.71254730224609,0.17109425365925,0.47334775328636,-0.51508426666260,-1.98019480705261,-1.75520002841949
558,1617160204,1.49241220951080,-87.32614135742188,22.55488395690918,9.70545196533203,0.11596952378750,0.49821600317955,0.64452439546585,-2.20024609565735,-1.74877107143402
559,1617176871,1.74203085899353,-87.37088012695312,22.32566452026367,9.74663639068604,0.14822827279568,0.51281499862671,1.24108266830444,-2.58137607574463,-1.80742430686951
560,1617193538,2.07483482360840,-87.41873931884766,22.01869773864746,9.70300865173340,0.15543310344219,0.44684067368507,1.58274304866791,-2.74888277053833,-1.98996579647064
561,1617210205,2.43355703353882,-87.47121429443359,21.67885589599609,9.71394634246826,0.16925843060017,0.43708810210228,1.15921175479889,-3.05129241943359,-2.03305935859680
562,1617226872,2.80748701095581,-87.52590942382812,21.32092475891113,9.72861099243164,0.20528738200665,0.44549608230591,0.99185842275620,-3.19131731987000,-2.03686308860779
563,1617243539,3.17131114006042,-87.58208465576172,20.98335647583008,9.79895401000977,0.18398189544678,0.41124388575554,1.60786914825439,-3.26209759712219,-1.93936800956726
564,1617260206,3.45598745346069,-87.62941741943359,20.73568534851074,9.75570678710938,0.17655766010284,0.32839411497116,2.23645615577698,-2.74994611740112,-1.70228409767151
565,1617276873,3.67953228950500,-87.66435241699219,20.54378128051758,9.80225944519043,0.29284456372261,0.30844637751579,1.91081607341766,-2.00364303588867,-1.58701395988464
566,1617293540,3.76581764221191,-87.68776702880859,20.46042633056641,9.76225471496582,0.23387011885643,0.29549479484558,0.18039663136005,-1.29236543178558,-1.35256814956665
567,1617310207,3.73976254463196,-87.70194244384766,20.49840927124023,9.76059150695801,0.19845366477966,0.36134937405586,0.71421658992767,-0.72983396053314,-1.08950018882751
568,1617326874,3.63550066947937,-87.71073913574219,20.61670494079590,9.76727867126465,0.21673248708248,0.37470057606697,0.82679712772369,-0.41449034214020,-0.91542345285416
569,1617343541,3.48810839653015,-87.71973419189453,20.76782608032227,9.71644401550293,0.21560886502266,0.36535623669624,0.21585741639137,-0.39499902725220,-0.84018617868423
570,1617360208,3.31228280067444,-87.72936248779297,20.95466995239258,9.71872329711914,0.16815738379955,0.38566491007805,0.65095311403275,-0.43642756342888,-0.75271874666214
571,1617376875,3.13954305648804,-87.73947143554688,21.13915824890137,9.74176979064941,0.19884209334850,0.38776353001595,0.68894964456558,-0.48104494810104,-0.75995445251465
572,1617393542,2.95836639404297,-87.75032043457031,21.33187866210938,9.74950885772705,0.13480457663536,0.38796058297157,0.68222624063492,-0.51700514554977,-0.74147480726242
573,1617410209,2.72989511489868,-87.76165771484375,21.57499122619629,9.74888038635254,0.18915775418282,0.41135883331299,0.86255240440369,-0.53244966268539,-0.62377172708511
574,1617426876,2.49948930740356,-87.77226257324219,21.80647468566895,9.76616764068604,0.19220934808254,0.40256530046463,0.03879683464766,-0.52205085754395,-0.65988552570343
575,1617443543,2.23748373985291,-87.78813934326172,22.07518577575684,9.75033283233643,0.11978601664305,0.44527399539948,0.39390411973000,-0.80071699619293,-0.56624561548233
576,1617460210,1.96290934085846,-87.80893707275391,22.36963081359863,9.72876548767090,0.14564037322998,0.43654096126556,1.18141782283783,-1.10001420974731,-0.50294381380081
577,1617476877,1.73603498935699,-87.84159851074219,22.61842536926270,9.64432811737061,0.15714088082314,0.39043602347374,1.30522966384888,-1.82208764553070,-0.59860724210739
578,1617493544,1.53651249408722,-87.88150787353516,22.85628700256348,9.77735996246338,0.06668475270271,0.39143896102905,2.30663466453552,-2.22100496292114,-0.62693482637405
579,1617510211,1.31125295162201,-87.91268157958984,23.12671470642090,9.84920883178711,0.24701441824436,0.33083823323250,2.70787024497986,-1.71457779407501,-0.58501964807510
580,1617526878,1.04668760299683,-87.93502807617188,23.39338493347168,9.69797420501709,0.19684110581875,0.24682596325874,0.10921896249056,-1.22255814075470,-0.61919981241226
581,1617543545,0.80182540416718,-87.95197296142578,23.64932632446289,9.69027900695801,0.12711620330811,0.27965939044952,0.65278452634811,-0.88873511552811,-0.65850257873535
582,1617560212,0.61911714076996,-87.96626281738281,23.84797859191895,9.68508434295654,0.12205492705107,0.31709560751915,0.94426983594894,-0.74809581041336,-0.79216241836548
583,1617576879,0.42937055230141,-87.97551727294922,24.05760383605957,9.73219203948975,0.17782573401928,0.33731341362000,1.18451046943665,-0.43419292569160,-0.77715975046158
584,1617593546,0.18938991427422,-87.97813415527344,24.30215835571289,9.77751922607422,0.15947738289833,0.31304687261581,0.25836169719696,-0.05055946111679,-0.70717930793762
585,1617610213,-0.09958137571812,-87.97377777099609,24.59705924987793,9.80390071868896,0.15824717283249,0.26988920569420,0.33464914560318,0.35843053460121,-0.59961897134781
586,1617626880,-0.42642009258270,-87.96154785156250,24.92639732360840,9.77959156036377,0.20767895877361,0.30589243769646,0.11952805519104,0.80660146474838,-0.51865714788437
587,1617643547,-0.73406821489334,-87.94605255126953,25.22740745544434,9.71326637268066,0.14349904656410,0.31371632218361,-0.42478659749031,1.01644647121429,-0.56913983821869
588,1617660214,-1.08313679695129,-87.92793273925781,25.57390785217285,9.71826267242432,0.07815741002560,0.33674427866936,-0.18021096289158,1.15871214866638,-0.45459982752800
589,1617676881,-1.37943935394287,-87.90800476074219,25.87360382080078,9.72942447662354,0.17379799485207,0.36400187015533,0.17533814907074,1.25647580623627,-0.54569143056870
590,1617693548,-1.72911930084229,-87.89169311523438,26.21587753295898,9.69456672668457,0.12297036498785,0.36793649196625,-0.47721576690674,1.04121375083923,-0.44372719526291
591,1617710215,-2.07617068290710,-87.87467956542969,26.57446861267090,9.73608303070068,0.07851951569319,0.35468873381615,0.65640872716904,1.06865787506104,-0.39470452070236
592,1617726882,-2.46380543708801,-87.85242462158203,26.98323249816895,9.88757610321045,0.18648245930672,0.34218868613243,1.23315525054932,1.36818540096283,-0.25451338291168
593,1617743549,-2.82544302940369,-87.82291412353516,27.33118247985840,9.75171184539795,0.22258548438549,0.33735114336014,-0.85063612461090,1.81962215900421,-0.35326316952705
594,1617760216,-3.18928956985474,-87.78972625732422,27.68055152893066,9.70480251312256,0.07290647923946,0.32921910285950,-0.91144073009491,2.00286841392517,-0.31864762306213
595,1617776883,-3.56107592582703,-87.75904083251953,28.04539299011230,9.68320083618164,0.08385949581861,0.36360126733780,-0.44662138819695,1.88257789611816,-0.26469439268112
596,1617793550,-3.89514851570129,-87.73168945312500,28.37818717956543,9.71439170837402,0.07831184566021,0.43826705217361,-0.10827769339085,1.65544497966766,-0.33423295617104
597,1617810217,-4.21411323547363,-87.70816802978516,28.70458793640137,9.76781177520752,0.11387424916029,0.41273409128189,0.41349142789841,1.43735897541046,-0.34742987155914
598,1617826884,-4.49866247177124,-87.68649291992188,28.99306106567383,9.73174762725830,0.11866362392902,0.40213757753372,0.20476073026657,1.32239651679993,-0.43301469087601
599,1617843551,-4.82411289215088,-87.66645050048828,29.33247947692871,9.79902839660645,0.11868829280138,0.38922658562660,0.80345118045807,1.21255016326904,-0.30292141437531
600,1617860218,-5.16550588607788,-87.64657592773438,29.67488098144531,9.74804878234863,0.15803766250610,0.41256961226463,0.02389664947987,1.18299937248230,-0.28373107314110
601,1617876885,-5.50128698348999,-87.63239288330078,30.01511955261230,9.71471977233887,0.08281156420708,0.43091812729836,0.23391440510750,0.85652071237564,-0.30719873309135
602,1617893552,-5.82661056518555,-87.62191772460938,30.35923767089844,9.71649456024170,0.06006681546569,0.43339708447456,1.09995651245117,0.64324367046356,-0.31000328063965
603,1617910219,-6.18372488021851,-87.61460113525391,30.73305892944336,9.74793910980225,0.12391955405474,0.41051325201988,0.97325062751770,0.42973628640175,-0.24991592764854
604,1617926886,-6.49419212341309,-87.60363006591797,31.04928970336914,9.78181648254395,0.10664993524551,0.37626329064369,0.32509559392929,0.67427349090576,-0.36125430464745
605,1617943553,-6.79490900039673,-87.59133148193359,31.35502815246582,9.75223731994629,0.08866172283888,0.38262251019478,0.26044273376465,0.70925402641296,-0.37842121720314
606,1617960220,-7.14073944091797,-87.57997894287109,31.70794868469238,9.70325565338135,0.13888882100582,0.39976292848587,0.39380162954330,0.66232508420944,-0.25418043136597
607,1617976887,-7.46657752990723,-87.56546783447266,32.03982925415039,9.72889041900635,0.06922337412834,0.40346199274063,0.33375272154808,0.84552013874054,-0.27711665630341
608,1617993554,-7.75117778778076,-87.55104064941406,32.33445739746094,9.77893447875977,0.03098155371845,0.42702162265778,0.56978660821915,0.84726178646088,-0.36346983909607
609,1618010221,-7.95481729507446,-87.53097534179688,32.55520248413086,9.78527927398682,0.10828837007284,0.37525117397308,1.00740516185760,1.21208894252777,-0.49792367219925
610,1618026888,-8.11731147766113,-87.50974273681641,32.70465469360352,9.74604988098145,0.11014676094055,0.40171676874161,-0.81582206487656,1.27053070068359,-0.67150735855103
611,1618043555,-8.25595760345459,-87.48822021484375,32.84448623657227,9.73071002960205,-0.00652053300291,0.42536640167236,0.04975907132030,1.31550037860870,-0.68415361642838
612,1618060222,-8.34740543365479,-87.46951293945312,32.95243072509766,9.74483585357666,0.04622222855687,0.43198859691620,0.97232842445374,1.15421700477600,-0.78680932521820
613,1618076889,-8.42070674896240,-87.45494079589844,33.04058456420898,9.75931549072266,0.06113056093454,0.46755501627922,0.87644743919373,0.92486822605133,-0.87147206068039
614,1618093556,-8.47864055633545,-87.44411468505859,33.11721420288086,9.71907901763916,0.04306380823255,0.47165578603745,1.10703861713409,0.71296149492264,-0.93187963962555
615,1618110223,-8.45514011383057,-87.43852996826172,33.12485504150391,9.74940109252930,0.03081339411438,0.45533117651939,1.86873459815979,0.43927702307701,-1.16129267215729
616,1618126890,-8.43341732025146,-87.43425750732422,33.12660598754883,9.76047515869141,0.06134118884802,0.43169406056404,1.39077591896057,0.32142016291618,-1.19640755653381
617,1618143557,-8.38652038574219,-87.42640686035156,33.10702133178711,9.75553512573242,0.06125834211707,0.40874615311623,1.62904453277588,0.56779515743256,-1.21679544448853
618,1618160224,-8.32279682159424,-87.41752624511719,33.06008911132812,9.75433063507080,0.08182986825705,0.42406362295151,1.00360167026520,0.65216976404190,-1.28081440925598
619,1618176891,-8.24422740936279,-87.40715789794922,33.00054931640625,9.73363876342773,0.03764609619975,0.39710897207260,1.13518679141998,0.72309124469757,-1.30638837814331
620,1618193558,-8.14767932891846,-87.39819335937500,32.92846679687500,9.75555133819580,0.08969779312611,0.43907636404037,1.46092927455902,0.65830403566360,-1.35203039646149
621,1618210225,-8.05728149414062,-87.38783264160156,32.85320281982422,9.73836803436279,0.09180134534836,0.43300372362137,0.90304613113403,0.73491156101227,-1.35068571567535
622,1618226892,-7.97113656997681,-87.37892913818359,32.78205490112305,9.77238655090332,0.09274203330278,0.43959000706673,0.89791077375412,0.65411633253098,-1.35379767417908
623,1618243559,-7.88567399978638,-87.36723327636719,32.70706939697266,9.77223110198975,0.07549485564232,0.44825029373169,0.61970573663712,0.81214678287506,-1.34353995323181
624,1618260226,-7.80931377410889,-87.35506439208984,32.64430236816406,9.71334743499756,0.05452035740018,0.41570886969566,0.81710267066956,0.85363924503326,-1.30448031425476
625,1618276893,-7.73058414459229,-87.34377288818359,32.57654571533203,9.74045276641846,0.07127220928669,0.44164201617241,0.64602273702621,0.78056621551514,-1.33113038539886
626,1618293560,-7.67936611175537,-87.33391571044922,32.53878784179688,9.75231838226318,0.06089436262846,0.46791279315948,0.80059528350830,0.69347018003464,-1.25830066204071
627,1618310227,-7.56505632400513,-87.32731628417969,32.44365310668945,9.72379398345947,0.02582394517958,0.45214807987213,1.15069520473480,0.51999539136887,-1.44643855094910
628,1618326894,-7.46394777297974,-87.32314300537109,32.36807632446289,9.76666450500488,0.07534631341696,0.48771628737450,1.53136420249939,0.38492688536644,-1.40908265113831
629,1618343561,-7.37338924407959,-87.31649780273438,32.29751205444336,9.77507114410400,0.12293797731400,0.45565468072891,1.19281530380249,0.51432222127914,-1.37869298458099
630,1618360228,-7.32613277435303,-87.31037902832031,32.26019668579102,9.76326370239258,0.08132007718086,0.47439783811569,0.58852219581604,0.46946153044701,-1.29034221172333
631,1618376895,-7.23744201660156,-87.29868316650391,32.18647384643555,9.76327323913574,0.08151981979609,0.44799503684044,0.89894819259644,0.82491469383240,-1.35091638565063
632,1618393562,-7.16137599945068,-87.28575134277344,32.12466049194336,9.75746726989746,0.06507342308760,0.41251209378242,0.85134053230286,0.89520233869553,-1.30884110927582
633,1618410229,-7.06554126739502,-87.26490783691406,32.03343582153320,9.75262451171875,0.08814331144094,0.40714246034622,0.26969531178474,1.35794043540955,-1.33892941474915
634,1618426896,-7.01391983032227,-87.24004364013672,31.98042106628418,9.75873756408691,0.08063292503357,0.41990721225739,-0.09296128153801,1.57732594013214,-1.20366883277893
635,1618443563,-7.00010871887207,-87.21041870117188,31.97367286682129,9.74867534637451,0.08488085120916,0.41805732250214,0.41415095329285,1.86292040348053,-1.03306269645691
636,1618460230,-7.04119873046875,-87.17665863037109,32.01885223388672,9.77779388427734,0.08784043043852,0.44613355398178,0.21932156383991,2.06352567672729,-0.85392105579376
637,1618476897,-7.06584978103638,-87.14035034179688,32.04153060913086,9.76309490203857,0.09358139336109,0.45548108220100,-0.14404582977295,2.21094560623169,-0.90101623535156
638,1618493564,-7.09752607345581,-87.10883331298828,32.06507492065430,9.73072719573975,0.04986757412553,0.51186823844910,-0.49751386046410,1.96999454498291,-0.92509233951569
639,1618510231,-7.09058237075806,-87.07785797119141,32.06551742553711,9.74687385559082,0.04156304150820,0.52638560533524,0.43146514892578,1.93573749065399,-0.99915146827698
640,1618526898,-7.08375740051270,-87.05217742919922,32.06240081787109,9.78275680541992,0.07856330275536,0.53667229413986,0.20625261962414,1.61150598526001,-1.05233585834503
641,1618543565,-7.06238269805908,-87.03430175781250,32.04083633422852,9.75069808959961,0.04841642081738,0.56121599674225,-0.01965774595737,1.16386020183563,-1.16750371456146
642,1618560232,-7.04350376129150,-87.02422332763672,32.03023910522461,9.74391841888428,0.03027529455721,0.55985671281815,0.48908728361130,0.70126295089722,-1.18855094909668
643,1618576899,-6.99788951873779,-87.02014160156250,32.00183486938477,9.74594116210938,0.03445585444570,0.54342520236969,1.02033960819244,0.34386974573135,-1.28980445861816
644,1618593566,-6.92555856704712,-87.02073669433594,31.95170783996582,9.75016593933105,0.03412338718772,0.54017138481140,1.33365964889526,0.08847267180681,-1.38943767547607
645,1618610233,-6.84926223754883,-87.02632141113281,31.89359855651855,9.75222969055176,0.08194899559021,0.50202250480652,1.09412956237793,-0.20146948099136,-1.44912803173065
646,1618626900,-6.79506635665894,-87.03119659423828,31.85053825378418,9.74265956878662,0.04608444124460,0.50412380695343,0.66089087724686,-0.18167087435722,-1.39863252639771
647,1618643567,-6.73721218109131,-87.03403472900391,31.80498123168945,9.74477005004883,0.09048514813185,0.47110411524773,0.73012208938599,-0.04673036932945,-1.39027023315430
648,1618660234,-6.65636301040649,-87.03417205810547,31.74105453491211,9.71024322509766,0.07308994233608,0.48207473754883,1.01707386970520,0.11471287161112,-1.42893242835999
649,1618676901,-6.60743570327759,-87.03793334960938,31.71410942077637,9.73835563659668,0.05541517212987,0.52138561010361,1.31768989562988,-0.10469188541174,-1.33767426013947
650,1618693568,-6.58162593841553,-87.04090881347656,31.71418762207031,9.81803417205811,0.05329109728336,0.50681757926941,1.54167318344116,-0.08226799219847,-1.24908006191254
651,1618710235,-6.58540153503418,-87.03852844238281,31.73633766174316,9.78659343719482,0.12719297409058,0.47353136539459,1.10116040706635,0.24293005466461,-1.14119946956635
652,1618726902,-6.62051391601562,-87.03113555908203,31.77827835083008,9.78889369964600,0.08705800026655,0.44839322566986,0.39125323295593,0.51259338855743,-1.04896819591522
653,1618743569,-6.67543077468872,-87.02086639404297,31.83904647827148,9.72946071624756,0.07654894888401,0.49220952391624,0.33311238884926,0.67803859710693,-0.96869796514511
654,1618760236,-6.76836490631104,-87.00879669189453,31.94080352783203,9.72130584716797,0.00962001178414,0.42758235335350,0.51263177394867,0.78394716978073,-0.82502347230911
655,1618776903,-6.82585144042969,-86.99092102050781,32.00814819335938,9.74716472625732,0.08288676291704,0.47474357485771,0.57690685987473,1.13607048988342,-0.88877350091934
656,1618793570,-6.91757106781006,-86.96920013427734,32.09238815307617,9.76343727111816,0.09743364900351,0.48155429959297,-0.47231739759445,1.34184932708740,-0.80748522281647
657,1618810237,-6.99489831924438,-86.94456481933594,32.16303634643555,9.77629661560059,0.08436214178801,0.47071033716202,-0.41935673356056,1.53671717643738,-0.82298719882965
658,1618826904,-7.08643627166748,-86.91377258300781,32.24851608276367,9.79944133758545,0.02251336164773,0.47799131274223,-0.37920880317688,1.89505159854889,-0.72811782360077
659,1618843571,-7.13534927368164,-86.87601470947266,32.29941558837891,9.72216510772705,0.05130733549595,0.48037657141685,0.09152058511972,2.29308581352234,-0.78776979446411
660,1618860238,-7.20008230209351,-86.82942199707031,32.35303497314453,9.80698108673096,0.13787336647511,0.48031410574913,-0.68329560756683,2.84703731536865,-0.70286369323730
661,1618876905,-7.30972337722778,-86.77608489990234,32.43302154541016,9.75634860992432,0.06411553919315,0.45487946271896,-1.79881846904755,3.23143267631531,-0.55701225996017
662,1618893572,-7.37745666503906,-86.71616363525391,32.48791122436523,9.75796604156494,0.03159714490175,0.49226045608521,-0.79902666807175,3.61178135871887,-0.58528870344162
663,1618910239,-7.41712808609009,-86.65227508544922,32.50194549560547,9.76008701324463,0.08030512183905,0.53825128078461,-1.56256675720215,3.85677957534790,-0.69096654653549
664,1618926906,-7.46794700622559,-86.58293151855469,32.52208709716797,9.75820541381836,0.04224128276110,0.48459318280220,-1.85582602024078,4.21286725997925,-0.61791288852692
665,1618943573,-7.50229692459106,-86.51310729980469,32.52503585815430,9.75903511047363,0.05336183309555,0.53724229335785,-1.89890658855438,4.23091125488281,-0.67391502857208
666,1618960240,-7.53847217559814,-86.43877410888672,32.53187179565430,9.77637958526611,0.06837346404791,0.53947609663010,-1.79255580902100,4.46368503570557,-0.62697321176529
667,1618976907,-7.56664323806763,-86.36374664306641,32.52097320556641,9.75891876220703,0.04806366935372,0.56937038898468,-2.35927557945251,4.55220270156860,-0.67758399248123
668,1618993574,-7.56443119049072,-86.28944396972656,32.47470092773438,9.74371528625488,0.04848355427384,0.58163577318192,-2.65649843215942,4.51958560943604,-0.82118177413940
669,1619010241,-7.58009719848633,-86.21545410156250,32.43806076049805,9.74077224731445,0.07443253695965,0.61821436882019,-3.15139937400818,4.49712276458740,-0.78820520639420
670,1619026908,-7.58232879638672,-86.14836883544922,32.38578796386719,9.72457313537598,0.00004449591506,0.65592843294144,-3.27617216110229,4.10268783569336,-0.90610051155090
671,1619043575,-7.53553247451782,-86.09224700927734,32.29417800903320,9.69164657592773,0.02189661562443,0.67387962341309,-2.69352149963379,3.47229456901550,-1.15560662746429
