sep=,
DeviceTag:,Xsens_DOT_3
FirmwareVersion:,3.0.0
AppVersion:,2023.6.0
StartTime: ,2025-04-09_10:49:13_000 CEST
© Movella Technologies B. V. 2005-2025

PacketCounter,SampleTimeFine,Euler_X,Euler_Y,Euler_Z,Acc_X,Acc_Y,Acc_Z,Gyr_X,Gyr_Y,Gyr_Z
0,1607860018,-173.58625793457031,-88.62670135498047,107.05641174316406,0.00000000000000,0.00000000000000,0.00000000000000,0.00000000000000,0.00000000000000,0.00000000000000
1,1607876685,-173.67095947265625,-88.62143707275391,107.15721893310547,9.77300930023193,0.00979391578585,-0.24901250004768,1.39988148212433,0.14155499637127,0.22299057245255
2,1607893352,-173.73013305664062,-88.61605834960938,107.22538757324219,9.75809860229492,0.02946579828858,-0.25987064838409,1.74134993553162,0.13196302950382,0.25320073962212
3,1607910019,-173.92143249511719,-88.61322784423828,107.41178131103516,9.79856109619141,0.02121763862669,-0.24082894623280,0.38249367475510,0.27343475818634,0.07546140998602
4,1607926686,-174.11991882324219,-88.60816192626953,107.60944366455078,9.81355667114258,-0.03834409639239,-0.32015997171402,0.77174258232117,0.16693715751171,0.06542123109102
5,1607943353,-174.24002075195312,-88.60506439208984,107.73528289794922,9.79527378082275,0.01942187920213,-0.25991657376289,0.89234000444412,0.27896711230278,0.16432467103004
6,1607960020,-174.39474487304688,-88.60170745849609,107.89044952392578,9.75988197326660,-0.00806698296219,-0.32687512040138,0.81210815906525,0.24655425548553,0.11820900440216
7,1607976687,-174.42297363281250,-88.59389495849609,107.93298339843750,9.75196456909180,0.01617045514286,-0.31037491559982,1.63925766944885,0.00557716609910,0.30705145001411
8,1607993354,-174.59118652343750,-88.58542633056641,108.11064147949219,9.77318191528320,0.02990728989244,-0.26609501242638,0.91790157556534,-0.06339143216610,0.12135937809944
9,1608010021,-174.84425354003906,-88.57591247558594,108.35940551757812,9.78943443298340,0.00088332319865,-0.24416197836399,0.73895835876465,-0.14003740251064,0.00288783153519
10,1608026688,-175.05203247070312,-88.56823730468750,108.56054687500000,9.79690933227539,0.00729546276852,-0.26132062077522,0.36943119764328,-0.03065840154886,0.06567736715078
11,1608043355,-175.25402832031250,-88.55653381347656,108.75580596923828,9.78369808197021,0.02612108550966,-0.27515000104904,0.39222645759583,-0.21923191845417,0.08714081346989
12,1608060022,-175.37350463867188,-88.54465484619141,108.86999511718750,9.78629493713379,0.01120068132877,-0.28966563940048,0.51842027902603,-0.26945841312408,0.20960794389248
13,1608076689,-175.49528503417969,-88.53233337402344,109.00061798095703,9.77796649932861,0.02187526971102,-0.32329082489014,1.18041884899139,-0.25138863921165,0.18477639555931
14,1608093356,-175.55386352539062,-88.52011108398438,109.07161712646484,9.77317142486572,0.02455662563443,-0.28914263844490,1.15024709701538,-0.26201790571213,0.28197661042213
15,1608110023,-175.57760620117188,-88.50720977783203,109.09087371826172,9.77180671691895,0.01960216462612,-0.33055058121681,0.91535305976868,-0.30727553367615,0.34626448154449
16,1608126690,-175.52603149414062,-88.49494171142578,109.04026031494141,9.78506278991699,0.02251241728663,-0.33608138561249,0.81779426336288,-0.24344870448112,0.46235403418541
17,1608143357,-175.48646545410156,-88.48664855957031,109.00308227539062,9.80031967163086,-0.00465699145570,-0.30592724680901,1.01888597011566,-0.01835790090263,0.42121368646622
18,1608160024,-175.38783264160156,-88.48070526123047,108.90267181396484,9.78194808959961,0.00122105702758,-0.33732077479362,0.80701130628586,0.13347417116165,0.51062119007111
19,1608176691,-175.34663391113281,-88.47620391845703,108.86265563964844,9.78494834899902,0.01593941822648,-0.30999344587326,1.00284600257874,0.21634402871132,0.40696656703949
20,1608193358,-175.29000854492188,-88.47402191162109,108.79701995849609,9.78664588928223,0.01203558128327,-0.30497413873672,0.98490434885025,0.34588024020195,0.42301291227341
21,1608210025,-175.15715026855469,-88.47248840332031,108.66533660888672,9.77943611145020,-0.00240403111093,-0.30032026767731,0.72254067659378,0.40381622314453,0.54809254407883
22,1608226692,-175.01452636718750,-88.46941375732422,108.52784729003906,9.79407405853271,0.00992850959301,-0.30665278434753,1.16888022422791,0.30773016810417,0.56055307388306
23,1608243359,-174.80824279785156,-88.46584320068359,108.32672882080078,9.77606010437012,0.00370241818018,-0.33094882965088,1.61191606521606,0.26959288120270,0.65613973140717
24,1608260026,-174.58866882324219,-88.46099853515625,108.12338256835938,9.77396774291992,-0.00593364238739,-0.31380307674408,1.49281680583954,0.23939549922943,0.68579918146133
25,1608276693,-174.44534301757812,-88.45718383789062,107.99339294433594,9.77615165710449,0.02724947780371,-0.26983210444450,1.34285473823547,0.25562116503716,0.56516343355179
26,1608293360,-174.33299255371094,-88.45288085937500,107.87740325927734,9.78460884094238,0.02097695693374,-0.30289536714554,0.74011099338531,0.24606759846210,0.53365975618362
27,1608310027,-174.23651123046875,-88.44883728027344,107.78887939453125,9.79189014434814,-0.00710599217564,-0.34721693396568,0.73748570680618,0.26164013147354,0.50671523809433
28,1608326694,-174.16012573242188,-88.44467926025391,107.72048187255859,9.78464698791504,-0.00000312700649,-0.34400734305382,1.32144248485565,0.22059576213360,0.46184182167053
29,1608343361,-174.02755737304688,-88.44016265869141,107.58978271484375,9.78102874755859,-0.01381400506943,-0.33028534054756,1.15896832942963,0.25181767344475,0.55782538652420
30,1608360028,-173.92453002929688,-88.43952941894531,107.48506164550781,9.78192234039307,0.00198364164680,-0.36019772291183,1.14187180995941,0.44206875562668,0.48950350284576
31,1608376695,-173.85226440429688,-88.44254302978516,107.43143463134766,9.77414226531982,-0.01595288515091,-0.34868106245995,1.49234306812286,0.62655705213547,0.40920770168304
32,1608393362,-173.74275207519531,-88.44593811035156,107.33703613281250,9.77281093597412,0.00626207049936,-0.34953525662422,1.33623385429382,0.68946188688278,0.46787363290787
33,1608410029,-173.62910461425781,-88.45085906982422,107.23532104492188,9.79850864410400,-0.02557783201337,-0.31908419728279,1.60352790355682,0.80329751968384,0.45433723926544
34,1608426696,-173.50787353515625,-88.45782470703125,107.12551116943359,9.81228256225586,0.00450230296701,-0.32699552178383,1.57886278629303,0.91668492555618,0.45306938886642
35,1608443363,-173.45137023925781,-88.46609497070312,107.07059478759766,9.78397655487061,-0.01732788234949,-0.33147183060646,0.97307133674622,0.95445072650909,0.35786703228951
36,1608460030,-173.31575012207031,-88.47274017333984,106.94754028320312,9.76365470886230,-0.00702658947557,-0.32438033819199,1.63851463794708,0.89405608177185,0.47541651129723
37,1608476697,-173.24183654785156,-88.48019409179688,106.88410186767578,9.77000999450684,-0.01535778120160,-0.32331907749176,1.51337110996246,0.94037652015686,0.37133929133415
38,1608493364,-173.15373229980469,-88.49026489257812,106.80635833740234,9.79774951934814,0.00815157499164,-0.33942157030106,1.56676054000854,1.07942783832550,0.37324741482735
39,1608510031,-173.07559204101562,-88.50210571289062,106.72975158691406,9.79474735260010,0.00328399916179,-0.32115438580513,1.14503490924835,1.18837165832520,0.35522890090942
40,1608526698,-172.98391723632812,-88.51668548583984,106.64334106445312,9.78275585174561,-0.01802623644471,-0.33435431122780,1.34984672069550,1.35586583614349,0.34862080216408
41,1608543365,-172.84655761718750,-88.53020477294922,106.51670837402344,9.77089023590088,-0.00792956165969,-0.34264540672302,1.52821350097656,1.29351174831390,0.42043882608414
42,1608560032,-172.81225585937500,-88.54572296142578,106.49257659912109,9.78064632415771,0.00582280522212,-0.32428660988808,1.36588037014008,1.39355492591858,0.24842396378517
43,1608576699,-172.80517578125000,-88.55951690673828,106.49247741699219,9.78256416320801,-0.00953086744994,-0.27044868469238,1.37046504020691,1.28417587280273,0.21975055336952
44,1608593366,-172.71992492675781,-88.57371520996094,106.40977478027344,9.76881885528564,-0.01421835646033,-0.28443524241447,0.97457599639893,1.31713306903839,0.34395292401314
45,1608610033,-172.67257690429688,-88.58473205566406,106.37132263183594,9.79181480407715,-0.00538567407057,-0.28083646297455,1.14313960075378,1.16165757179260,0.29967501759529
46,1608626700,-172.62464904785156,-88.59584045410156,106.33388519287109,9.78873252868652,0.00223784334958,-0.26720306277275,1.35751783847809,1.09736967086792,0.30258202552795
47,1608643367,-172.53981018066406,-88.60465240478516,106.25496673583984,9.79222774505615,0.01654544286430,-0.28735673427582,1.06954157352448,1.02141535282135,0.37373411655426
48,1608660034,-172.42588806152344,-88.61238098144531,106.15516662597656,9.77959346771240,-0.00537749938667,-0.29064992070198,1.31836903095245,0.95879226922989,0.41771113872528
49,1608676701,-172.33609008789062,-88.62285614013672,106.07321166992188,9.78007125854492,-0.02113560214639,-0.29837334156036,1.33458173274994,1.10153186321259,0.36095342040062
50,1608693368,-172.23974609375000,-88.63513183593750,105.98440551757812,9.77717685699463,-0.00097701104823,-0.30629056692123,1.27635133266449,1.21142303943634,0.35461428761482
51,1608710035,-172.11825561523438,-88.65099334716797,105.87236785888672,9.79420471191406,-0.00207958859392,-0.32518777251244,0.91490483283997,1.43070614337921,0.36629360914230
52,1608726702,-171.97364807128906,-88.66940307617188,105.73284912109375,9.76558017730713,-0.00152724666987,-0.32716250419617,1.23297607898712,1.54805064201355,0.37145459651947
53,1608743369,-171.82185363769531,-88.68508148193359,105.58627319335938,9.77736568450928,0.00667997309938,-0.30296465754509,1.16213142871857,1.44577920436859,0.39433950185776
54,1608760036,-171.66494750976562,-88.70246124267578,105.43305206298828,9.78435993194580,-0.00851322431117,-0.27887633442879,1.16899538040161,1.55651557445526,0.37929201126099
55,1608776703,-171.45324707031250,-88.71992492675781,105.22903442382812,9.77471065521240,-0.00835417490453,-0.25633192062378,1.17268383502960,1.51851928234100,0.45253157615662
56,1608793370,-171.26707458496094,-88.73669433593750,105.05800628662109,9.78188228607178,0.00890611670911,-0.26418417692184,1.23122167587280,1.49619781970978,0.41395881772041
57,1608810037,-171.02421569824219,-88.75196075439453,104.82554626464844,9.77796554565430,-0.00798233412206,-0.23454730212688,1.24283707141876,1.40558004379272,0.49667504429817
58,1608826704,-170.77754211425781,-88.76615905761719,104.60286712646484,9.78926753997803,-0.00817485339940,-0.27497264742851,1.68336260318756,1.37884056568146,0.48847901821136
59,1608843371,-170.45455932617188,-88.78211975097656,104.30198669433594,9.79190063476562,-0.00360816903412,-0.27050527930260,1.86747956275940,1.48158586025238,0.55973356962204
60,1608860038,-170.21763610839844,-88.79862213134766,104.06217193603516,9.79271888732910,-0.00426760874689,-0.26304110884666,1.32125020027161,1.47450387477875,0.45250594615936
61,1608876705,-169.99925231933594,-88.81766510009766,103.85427093505859,9.79099178314209,0.00459717074409,-0.25625738501549,1.15790534019470,1.62154638767242,0.39731058478355
62,1608893372,-169.79557800292969,-88.83567810058594,103.65343475341797,9.78395938873291,0.00099771842360,-0.26398512721062,0.97418540716171,1.57271575927734,0.38321077823639
63,1608910039,-169.46820068359375,-88.85328674316406,103.33131408691406,9.77649211883545,-0.02599188312888,-0.25683379173279,1.46146714687347,1.55049681663513,0.52268475294113
64,1608926706,-169.19418334960938,-88.87030792236328,103.05917358398438,9.78239822387695,0.01507773995399,-0.22276380658150,1.41115093231201,1.57685232162476,0.44251704216003
65,1608943373,-169.00090026855469,-88.88811492919922,102.87100982666016,9.78727912902832,-0.02895702049136,-0.23726132512093,0.95441234111786,1.51688003540039,0.35524171590805
66,1608960040,-168.81941223144531,-88.90246582031250,102.69731140136719,9.78026199340820,0.00760954292491,-0.19869510829449,1.04684865474701,1.36488163471222,0.36247736215591
67,1608976707,-168.68736267089844,-88.91718292236328,102.57040405273438,9.79496192932129,0.00228825327940,-0.20738668739796,1.42952799797058,1.30711197853088,0.30299180746078
68,1608993374,-168.62745666503906,-88.92990875244141,102.50878906250000,9.80723857879639,0.00791866052896,-0.22072646021843,0.70611006021500,1.26925647258759,0.23821730911732
69,1609010041,-168.55432128906250,-88.94130706787109,102.43888092041016,9.77702522277832,-0.01554508320987,-0.23987615108490,0.92096233367920,1.18602812290192,0.26327934861183
70,1609026708,-168.45693969726562,-88.95207977294922,102.35025787353516,9.77301788330078,0.00669927243143,-0.22185482084751,1.17724299430847,1.06582772731781,0.30885714292526
71,1609043375,-168.37619018554688,-88.96675109863281,102.26879882812500,9.79611015319824,0.01598651148379,-0.23438553512096,0.83371251821518,1.34664535522461,0.23744891583920
72,1609060042,-168.24398803710938,-88.98336029052734,102.14258575439453,9.79892444610596,-0.01753010600805,-0.24572573602200,1.21126925945282,1.45879054069519,0.26097422838211
73,1609076709,-168.19606018066406,-89.00142669677734,102.08042907714844,9.79049015045166,-0.01058296766132,-0.24913205206394,0.67637372016907,1.53758788108826,0.15881793200970
74,1609093376,-168.12620544433594,-89.02161407470703,102.00941467285156,9.78280448913574,-0.02975051291287,-0.24849940836430,0.96995931863785,1.66394817829132,0.14813743531704
75,1609110043,-167.94807434082031,-89.04100799560547,101.84091186523438,9.77676486968994,-0.00001787502333,-0.24242472648621,1.44342303276062,1.63350760936737,0.25628709793091
76,1609126710,-167.74122619628906,-89.05872344970703,101.63598632812500,9.78961658477783,-0.00297034066170,-0.18479765951633,1.17491853237152,1.55680370330811,0.30046257376671
77,1609143377,-167.64004516601562,-89.07380676269531,101.53812408447266,9.78274345397949,0.01005739439279,-0.17721179127693,1.52945590019226,1.34700381755829,0.22634582221508
78,1609160044,-167.55024719238281,-89.08486175537109,101.44676208496094,9.77311706542969,0.00444254837930,-0.14957134425640,1.02541100978851,1.10605251789093,0.27329391241074
79,1609176711,-167.55058288574219,-89.08914947509766,101.44684600830078,9.77100563049316,-0.01011952944100,-0.13964356482029,1.22554838657379,0.71926212310791,0.26495698094368
80,1609193378,-167.63200378417969,-89.09086608886719,101.53395080566406,9.79129600524902,0.00249561131932,-0.16684126853943,1.07950484752655,0.54442995786667,0.22464257478714
81,1609210045,-167.69914245605469,-89.08872222900391,101.60237121582031,9.79237365722656,-0.00762537075207,-0.20497117936611,0.78794264793396,0.36854752898216,0.28215593099594
82,1609226712,-167.73782348632812,-89.08486175537109,101.64857482910156,9.77700328826904,-0.00876798573881,-0.18617278337479,1.16229796409607,0.25563398003578,0.32796424627304
83,1609243379,-167.84895324707031,-89.08102416992188,101.76303100585938,9.78003025054932,-0.00632200390100,-0.20666256546974,1.31445014476776,0.19877377152443,0.26674985885620
84,1609260046,-167.87593078613281,-89.07846832275391,101.79721069335938,9.78028964996338,-0.01307015027851,-0.22009716928005,1.17766559123993,0.37963783740997,0.31287831068039
85,1609276713,-167.78334045410156,-89.07910156250000,101.72419738769531,9.78345966339111,-0.01080610416830,-0.24454282224178,1.42133200168610,0.47770887613297,0.40722274780273
86,1609293380,-167.67796325683594,-89.08038330078125,101.62930297851562,9.78316783905029,0.01794484071434,-0.22930689156055,1.27175366878510,0.54375118017197,0.40836241841316
87,1609310047,-167.50407409667969,-89.08742523193359,101.45618438720703,9.79540443420410,-0.00693936599419,-0.24161563813686,0.86382037401199,0.90270042419434,0.40396991372108
88,1609326714,-167.27302551269531,-89.09604644775391,101.22557830810547,9.79928302764893,-0.02022899501026,-0.23224717378616,0.99833816289902,1.02240133285522,0.42949295043945
89,1609343381,-167.11520385742188,-89.10300445556641,101.07209014892578,9.78772258758545,0.00526176532730,-0.23525620996952,1.20881044864655,0.92001456022263,0.37367004156113
90,1609360048,-166.92846679687500,-89.10913085937500,100.88984680175781,9.78194713592529,0.01003416161984,-0.17384222149849,1.06234431266785,0.87516677379608,0.41249892115593
91,1609376715,-166.74639892578125,-89.11463928222656,100.71025848388672,9.78601074218750,0.00378636596724,-0.19625678658485,1.16316878795624,0.83074158430099,0.41347223520279
92,1609393382,-166.46800231933594,-89.11996459960938,100.43812561035156,9.79461288452148,-0.02317614294589,-0.20300565660000,1.90767872333527,0.83395594358444,0.49214160442352
93,1609410049,-166.15226745605469,-89.11907196044922,100.13837432861328,9.77915000915527,0.02317043393850,-0.17351604998112,1.90644919872284,0.51013451814651,0.60463255643845
94,1609426716,-166.01873779296875,-89.12129211425781,100.00617218017578,9.77789306640625,-0.01571159251034,-0.18639613687992,0.91656965017319,0.61053639650345,0.41983693838120
95,1609443383,-165.92951965332031,-89.12152099609375,99.92379760742188,9.80073928833008,-0.00575522519648,-0.16076199710369,1.12462174892426,0.54056245088577,0.39040797948837
96,1609460050,-165.85861206054688,-89.12598419189453,99.83857727050781,9.79397392272949,-0.01085264142603,-0.21816691756248,0.75961506366730,0.70011681318283,0.33826053142548
97,1609476717,-165.75825500488281,-89.13227844238281,99.73923492431641,9.80011081695557,0.00088149640942,-0.21550670266151,0.89285224676132,0.83832281827927,0.32828435301781
98,1609493384,-165.57577514648438,-89.13997650146484,99.55500793457031,9.79186248779297,-0.01208117417991,-0.23044258356094,0.45794865489006,0.98938655853271,0.37287607789040
99,1609510051,-165.44409179687500,-89.15027618408203,99.42861938476562,9.79640293121338,-0.00409430218861,-0.22474797070026,0.78949230909348,1.11122620105743,0.28554958105087
100,1609526718,-165.26933288574219,-89.15837097167969,99.26756286621094,9.77030181884766,-0.00550445588306,-0.21289779245853,1.16617822647095,0.96547704935074,0.35488316416740
101,1609543385,-165.00570678710938,-89.16490936279297,99.01721191406250,9.77943897247314,-0.01874551363289,-0.22880314290524,1.48157310485840,0.87981551885605,0.45158395171165
102,1609560052,-164.79475402832031,-89.17031097412109,98.82014465332031,9.79393100738525,0.00418582092971,-0.19252663850784,1.59462738037109,0.81584769487381,0.41663536429405
103,1609576719,-164.60424804687500,-89.17008209228516,98.64944458007812,9.75171852111816,-0.01304405555129,-0.16218616068363,2.02953124046326,0.49470293521881,0.47681248188019
104,1609593386,-164.36947631835938,-89.16960906982422,98.43517303466797,9.78209781646729,-0.01408816874027,-0.16853940486908,2.11498785018921,0.47857972979546,0.52125048637390
105,1609610053,-164.26919555664062,-89.16725158691406,98.34892272949219,9.80609893798828,-0.00168211560231,-0.18317918479443,1.70423710346222,0.41812095046043,0.42134815454483
106,1609626720,-164.23519897460938,-89.16420745849609,98.32653808593750,9.76569271087646,-0.01362468488514,-0.17136998474598,1.51794314384460,0.30963832139969,0.39282837510109
107,1609643387,-164.31292724609375,-89.16070556640625,98.40235900878906,9.75991821289062,-0.01280752290040,-0.19723831117153,0.95195358991623,0.24666948616505,0.31517064571381
108,1609660054,-164.31329345703125,-89.15791320800781,98.40447998046875,9.78595542907715,0.00789205916226,-0.18387679755688,1.47511875629425,0.34735304117203,0.35251402854919
109,1609676721,-164.33032226562500,-89.15419769287109,98.42985534667969,9.78289127349854,-0.03310234472156,-0.18933837115765,1.26796317100525,0.25692740082741,0.36284869909286
110,1609693388,-164.28211975097656,-89.15281677246094,98.38165283203125,9.78101634979248,0.01109554991126,-0.18488927185535,1.30239915847778,0.41115424036980,0.38262167572975
111,1609710055,-164.33845520019531,-89.15004730224609,98.44027709960938,9.76936435699463,-0.02601952105761,-0.18587113916874,1.07754540443420,0.26925989985466,0.32577431201935
112,1609726722,-164.46302795410156,-89.14545440673828,98.56861877441406,9.77290630340576,0.00233101937920,-0.20183773338795,1.13591682910919,0.17793783545494,0.28538310527802
113,1609743389,-164.50253295898438,-89.13793182373047,98.61720275878906,9.79511833190918,-0.00427732476965,-0.19459891319275,1.34775948524475,0.02784740924835,0.40391865372658
114,1609760056,-164.56921386718750,-89.12732696533203,98.69653320312500,9.78068828582764,-0.02483022026718,-0.17596206068993,1.58620083332062,-0.17082390189171,0.42695727944374
115,1609776723,-164.64468383789062,-89.11397552490234,98.78797912597656,9.77701759338379,0.01643491908908,-0.18045035004616,1.80211579799652,-0.31533071398735,0.45378658175468
116,1609793390,-164.85963439941406,-89.10343933105469,99.00671386718750,9.78600406646729,0.00216217502020,-0.15510526299477,0.97546607255936,-0.15099966526031,0.28230956196785
117,1609810057,-165.17883300781250,-89.09995269775391,99.30696868896484,9.80581378936768,0.02628869935870,-0.21182233095169,-0.24606119096279,0.18240724503994,0.10538985580206
118,1609826724,-165.34248352050781,-89.09453582763672,99.46571350097656,9.78373432159424,-0.04214917868376,-0.26588028669357,0.63655877113342,0.16139200329781,0.24745067954063
119,1609843391,-165.39195251464844,-89.09194183349609,99.52007293701172,9.78439426422119,-0.00011116140377,-0.23104985058308,1.13692855834961,0.29136368632317,0.31924307346344
120,1609860058,-165.35047912597656,-89.09172821044922,99.48739624023438,9.78255653381348,-0.00642052851617,-0.21209023892879,1.39610350131989,0.45677050948143,0.36237493157387
121,1609876725,-165.23994445800781,-89.09172821044922,99.38638305664062,9.77954483032227,0.00429753027856,-0.22342650592327,1.44142520427704,0.51242691278458,0.41634085774422
122,1609893392,-165.20906066894531,-89.09216308593750,99.36158752441406,9.77079391479492,-0.01647611521184,-0.21300871670246,1.12536430358887,0.52172428369522,0.33924660086632
123,1609910059,-165.10841369628906,-89.09345245361328,99.26870727539062,9.78349208831787,-0.02399338968098,-0.20542784035206,1.52950716018677,0.53285300731659,0.40011522173882
124,1609926726,-165.04284667968750,-89.09604644775391,99.20680236816406,9.78205966949463,-0.01400383748114,-0.20469188690186,1.23802161216736,0.66347771883011,0.33426493406296
125,1609943393,-164.89857482910156,-89.09843444824219,99.07696533203125,9.79629993438721,-0.00012715623598,-0.20812417566776,1.62492728233337,0.62527644634247,0.41512426733971
126,1609960060,-164.71249389648438,-89.09864807128906,98.91024780273438,9.79031181335449,-0.00411000754684,-0.21095503866673,1.82623016834259,0.55945175886154,0.47176668047905
127,1609976727,-164.59866333007812,-89.09908294677734,98.80704498291016,9.78410530090332,0.01337178144604,-0.20026975870132,1.49929714202881,0.52203166484833,0.41570055484772
128,1609993394,-164.53149414062500,-89.10060119628906,98.74058532714844,9.78730487823486,-0.01098219025880,-0.21445319056511,0.90431404113770,0.58383506536484,0.36167052388191
129,1610010061,-164.53182983398438,-89.10082244873047,98.75291442871094,9.78379821777344,-0.02074928209186,-0.22352330386639,1.50193500518799,0.42364048957825,0.32857891917229
130,1610026728,-164.47259521484375,-89.09648132324219,98.70918273925781,9.75880622863770,0.00091927993344,-0.16668242216110,1.70729780197144,0.25290623307228,0.43209269642830
131,1610043395,-164.46945190429688,-89.09302520751953,98.70936584472656,9.78106403350830,0.01259799394757,-0.16302447021008,1.03822994232178,0.30305585265160,0.37349075078964
132,1610060062,-164.45826721191406,-89.09065246582031,98.69490051269531,9.79087066650391,-0.02965730987489,-0.19823275506496,0.83820760250092,0.33681339025497,0.37538614869118
133,1610076729,-164.51438903808594,-89.08571624755859,98.75656127929688,9.77910518646240,-0.00037942864583,-0.23759914934635,1.11218667030334,0.15365698933601,0.35416603088379
134,1610093396,-164.58935546875000,-89.07910156250000,98.83782196044922,9.76495838165283,-0.00797816365957,-0.21270906925201,1.26691293716431,0.12959386408329,0.33823490142822
135,1610110063,-164.62939453125000,-89.07212066650391,98.89427947998047,9.80911350250244,-0.00457923673093,-0.18814848363400,1.48979485034943,0.08977891504765,0.37961226701736
136,1610126730,-164.58886718750000,-89.06916809082031,98.85153198242188,9.79185485839844,-0.01081923395395,-0.18700714409351,0.88935613632202,0.27646985650063,0.42132249474525
137,1610143397,-164.64297485351562,-89.06246948242188,98.91195678710938,9.77735519409180,-0.01521653681993,-0.20261198282242,1.20206153392792,0.06729096174240,0.37521964311600
138,1610160064,-164.65048217773438,-89.05580902099609,98.91757202148438,9.80862808227539,0.00372946728021,-0.18539355695248,0.94676703214645,0.10658083856106,0.41751900315285
139,1610176731,-164.61189270019531,-89.05002593994141,98.88273620605469,9.79164028167725,-0.02674621902406,-0.23376680910587,1.14302432537079,0.15194094181061,0.45061057806015
140,1610193398,-164.72578430175781,-89.04223632812500,99.00255584716797,9.76305580139160,-0.00262412382290,-0.21721962094307,1.15629184246063,-0.02422961220145,0.33685183525085
141,1610210065,-164.84573364257812,-89.03227233886719,99.12685394287109,9.77285003662109,-0.01237713918090,-0.20844593644142,0.91108852624893,-0.10814961791039,0.35579240322113
142,1610226732,-164.99299621582031,-89.02081298828125,99.27790069580078,9.77326297760010,-0.02081900648773,-0.22001695632935,1.07579100131989,-0.20590049028397,0.34732741117477
143,1610243399,-165.14399719238281,-89.01166534423828,99.43494415283203,9.79877853393555,-0.00674751494080,-0.21104782819748,0.88486111164093,-0.09956936538219,0.31413334608078
144,1610260066,-165.33592224121094,-89.00456237792969,99.62762451171875,9.77967166900635,-0.02006250806153,-0.24356450140476,0.68946182727814,0.01341465115547,0.24066331982613
145,1610276733,-165.44342041015625,-88.99478149414062,99.73307800292969,9.78410148620605,0.00080430659000,-0.22855681180954,0.98733747005463,-0.11623042076826,0.36008253693581
146,1610293400,-165.62947082519531,-88.98336029052734,99.92451477050781,9.77923011779785,-0.00820549018681,-0.22830435633659,1.29536867141724,-0.22717182338238,0.29192712903023
147,1610310067,-165.76380920410156,-88.97130584716797,100.07096099853516,9.79681015014648,0.00261584436521,-0.20365883409977,1.34692692756653,-0.26555246114731,0.35344883799553
148,1610326734,-165.83166503906250,-88.95788574218750,100.14328765869141,9.77631378173828,-0.01425471343100,-0.23445919156075,1.18587458133698,-0.33208146691322,0.44629490375519
149,1610343401,-165.92382812500000,-88.94279479980469,100.24999237060547,9.78621673583984,-0.00619315076619,-0.22497774660587,1.19328939914703,-0.41346582770348,0.43677979707718
150,1610360068,-166.06034851074219,-88.92589569091797,100.39033508300781,9.78914451599121,-0.02095152251422,-0.24547575414181,1.35297167301178,-0.54685670137405,0.41208913922310
151,1610376735,-166.26637268066406,-88.90962219238281,100.60193634033203,9.78017044067383,-0.02078273706138,-0.24184238910675,1.11353135108948,-0.50021606683731,0.31705319881439
152,1610393402,-166.46890258789062,-88.90015411376953,100.80190277099609,9.80091476440430,-0.01588542200625,-0.26031592488289,0.68587601184845,-0.09667513519526,0.22644828259945
153,1610410069,-166.59466552734375,-88.89394378662109,100.91842651367188,9.80004501342773,-0.03465334326029,-0.28621762990952,0.32887345552444,0.05754533037543,0.28505012392998
154,1610426736,-166.68313598632812,-88.88794708251953,101.01705932617188,9.79020404815674,-0.03817435353994,-0.29364526271820,1.14461243152618,0.13219355046749,0.29484701156616
155,1610443403,-166.74102783203125,-88.88268280029297,101.09165191650391,9.77368927001953,-0.03072226978838,-0.24398601055145,1.73576629161835,0.13758502900600,0.31677147746086
156,1610460070,-166.94973754882812,-88.87638854980469,101.30928039550781,9.76813602447510,-0.02322985976934,-0.20062243938446,1.42457199096680,0.03979573398829,0.16064926981926
157,1610476737,-167.23243713378906,-88.86840820312500,101.59709930419922,9.78459835052490,0.03184202685952,-0.20587851107121,1.10991978645325,-0.05178887769580,0.09450445324183
158,1610493404,-167.69041442871094,-88.85688018798828,102.04560852050781,9.79724884033203,0.00405488302931,-0.23279687762260,0.35325676202774,-0.27629700303078,-0.06204676628113
159,1610510071,-168.05364990234375,-88.84428405761719,102.40058898925781,9.80676174163818,-0.05979469418526,-0.24394370615482,0.48850464820862,-0.38397282361984,0.06601033359766
160,1610526738,-168.40594482421875,-88.83316040039062,102.75674438476562,9.79120063781738,0.01062445435673,-0.25734004378319,1.07584226131439,-0.27098235487938,0.03349500522017
161,1610543405,-168.78266906738281,-88.82081604003906,103.13530731201172,9.77139949798584,-0.00989178940654,-0.25164696574211,0.63922256231308,-0.29622364044189,0.00920136179775
162,1610560072,-169.10202026367188,-88.80892944335938,103.45330810546875,9.76916980743408,-0.01137040089816,-0.26250690221786,0.89824372529984,-0.34523355960846,0.07631943374872
163,1610576739,-169.38682556152344,-88.79277801513672,103.74179840087891,9.76693916320801,0.01234532240778,-0.29169827699661,1.14116740226746,-0.49485018849373,0.13639402389526
164,1610593406,-169.66993713378906,-88.77778625488281,104.03060150146484,9.78075599670410,-0.01850948110223,-0.30593800544739,1.23187482357025,-0.48158282041550,0.12438168376684
165,1610610073,-169.94975280761719,-88.76615905761719,104.31846618652344,9.79833793640137,-0.02875467762351,-0.26674446463585,1.37348735332489,-0.29964298009872,0.08454111963511
166,1610626740,-170.29737854003906,-88.75605010986328,104.67405700683594,9.78470897674561,0.01766722090542,-0.26573583483696,0.96345376968384,-0.15572522580624,-0.02822519652545
167,1610643407,-170.66729736328125,-88.74617767333984,105.02110290527344,9.77368164062500,0.00347249722108,-0.28509166836739,0.25916847586632,-0.19761477410793,-0.04287565872073
168,1610660074,-171.02471923828125,-88.73979187011719,105.37638854980469,9.80418682098389,-0.00995258800685,-0.27764609456062,0.53952509164810,-0.00312474928796,-0.07163871824741
169,1610676741,-171.28419494628906,-88.73298645019531,105.63883209228516,9.78314590454102,0.01123486179858,-0.27717426419258,1.18925523757935,0.03905295953155,0.03568489477038
170,1610693408,-171.55274963378906,-88.72574615478516,105.90596008300781,9.76051235198975,-0.00769085204229,-0.30452859401703,0.95831835269928,0.02713024988770,0.02693815715611
171,1610710075,-171.68635559082031,-88.71884918212891,106.04505157470703,9.78672504425049,-0.00550594320521,-0.31082728505135,1.40303170681000,0.02673325315118,0.19754436612129
172,1610726742,-171.97030639648438,-88.71244812011719,106.33501434326172,9.80718898773193,-0.00610860669985,-0.25927644968033,1.23334753513336,0.06329538673162,-0.01326737925410
173,1610743409,-172.26690673828125,-88.71215057373047,106.63784790039062,9.80756378173828,0.01490137632936,-0.25347551703453,1.07784008979797,0.38479882478714,-0.07422560453415
174,1610760076,-172.56808471679688,-88.71276092529297,106.93605041503906,9.79032897949219,0.00033258728217,-0.30094498395920,0.50036329030991,0.43012043833733,-0.07363650947809
175,1610776743,-172.81767272949219,-88.71260070800781,107.17910766601562,9.78677845001221,-0.00751258945093,-0.31510096788406,0.97830903530121,0.46532511711121,-0.01744224689901
176,1610793410,-173.02981567382812,-88.71321105957031,107.40242767333984,9.77096843719482,-0.00172359461430,-0.26446962356567,1.21239626407623,0.46932071447372,0.02747602201998
177,1610810077,-173.30073547363281,-88.71472930908203,107.67805480957031,9.77936267852783,0.00683819688857,-0.25655031204224,0.86744445562363,0.53664362430573,-0.05280057713389
178,1610826744,-173.61097717285156,-88.71488189697266,107.98352813720703,9.77295589447021,0.00581848947331,-0.26281189918518,0.58872711658478,0.38645079731941,-0.08139715343714
179,1610843411,-173.92109680175781,-88.71154022216797,108.29439544677734,9.80237007141113,0.00871447008103,-0.25117063522339,0.91896438598633,0.24971739947796,-0.07519888132811
180,1610860078,-174.21173095703125,-88.70668792724609,108.59204101562500,9.80112648010254,-0.00268920301460,-0.23542092740536,1.22016990184784,0.14844480156898,-0.04555218666792
181,1610876745,-174.42295837402344,-88.70366668701172,108.80156707763672,9.77337074279785,0.02810361422598,-0.26943391561508,0.98136967420578,0.26852992177010,0.05349852517247
182,1610893412,-174.57322692871094,-88.69974517822266,108.94972991943359,9.77210712432861,0.01330037415028,-0.28599351644516,1.10569381713867,0.20520253479481,0.13935227692127
183,1610910079,-174.73396301269531,-88.69433593750000,109.11757659912109,9.78671932220459,0.02201860770583,-0.29861894249916,1.25002145767212,0.15538585186005,0.12491953372955
184,1610926746,-174.92779541015625,-88.69000244140625,109.32763671875000,9.79365634918213,0.00073683407390,-0.29321694374084,1.66786706447601,0.19627651572227,0.06329539418221
185,1610943413,-175.09599304199219,-88.69045257568359,109.49647521972656,9.77233886718750,0.00601269770414,-0.30217239260674,1.26234114170074,0.45126372575760,0.08584737032652
186,1610960080,-175.28904724121094,-88.69119262695312,109.69656372070312,9.77332687377930,0.01300640404224,-0.30935677886009,1.12435281276703,0.51133835315704,0.04950294643641
187,1610976747,-175.41056823730469,-88.69284057617188,109.82376098632812,9.79473876953125,0.03758396208286,-0.29843986034393,1.17848515510559,0.55308711528778,0.14324544370174
188,1610993414,-175.49642944335938,-88.69554138183594,109.91414642333984,9.77205085754395,0.02282666042447,-0.25504386425018,1.41433954238892,0.60948616266251,0.18454590439796
189,1611010081,-175.54136657714844,-88.69944763183594,109.97494506835938,9.78142452239990,0.01805726811290,-0.27243816852570,1.61885714530945,0.70509839057922,0.22845889627934
190,1611026748,-175.63488769531250,-88.70140838623047,110.07995605468750,9.77901077270508,0.01095041166991,-0.28273069858551,1.22746944427490,0.57173311710358,0.18072961270809
191,1611043415,-175.67857360839844,-88.70397186279297,110.12358093261719,9.78421306610107,0.00643132347614,-0.25420767068863,1.08457624912262,0.66616708040237,0.24702806770802
192,1611060082,-175.77180480957031,-88.70517730712891,110.21781921386719,9.78376102447510,-0.00073686038377,-0.27930310368538,1.26583719253540,0.54299563169479,0.18450747430325
193,1611076749,-175.85211181640625,-88.70578002929688,110.30662536621094,9.77187824249268,0.03074864111841,-0.24796018004417,1.36867213249207,0.48883754014969,0.20353770256042
194,1611093416,-175.97686767578125,-88.70426940917969,110.42669677734375,9.79847717285156,0.02675890550017,-0.26052546501160,1.04090642929077,0.35863539576530,0.16090537607670
195,1611110083,-176.08178710937500,-88.70095062255859,110.53823089599609,9.77826786041260,0.01392043102533,-0.27901694178581,1.27747809886932,0.27430561184883,0.18578812479973
196,1611126750,-176.18595886230469,-88.69509124755859,110.65362548828125,9.76713848114014,0.02732020057738,-0.26429277658463,1.37681722640991,0.12191005051136,0.19449643790722
197,1611143417,-176.32778930664062,-88.69014739990234,110.79956054687500,9.76434421539307,0.03360343351960,-0.30634295940399,1.21374118328094,0.16059803962708,0.14282281696796
198,1611160084,-176.41677856445312,-88.68284606933594,110.89774322509766,9.76881408691406,0.02166115678847,-0.28685858845711,1.29913377761841,0.05535544455051,0.21969935297966
199,1611176751,-176.50840759277344,-88.67825317382812,110.99279785156250,9.79913234710693,0.03808432072401,-0.28641083836555,1.07689237594604,0.17624738812447,0.21195150911808
200,1611193418,-176.67532348632812,-88.67765808105469,111.15313720703125,9.81091308593750,0.03250057250261,-0.28323918581009,0.39400655031204,0.40272763371468,0.10725957900286
201,1611210085,-176.74301147460938,-88.67825317382812,111.22374725341797,9.81359577178955,-0.00005944335135,-0.30313286185265,1.08635616302490,0.52992039918900,0.22338758409023
202,1611226752,-176.77392578125000,-88.67988586425781,111.27291107177734,9.75738906860352,0.02322637289762,-0.30005696415901,1.88225805759430,0.55394506454468,0.25527533888817
203,1611243419,-176.74079895019531,-88.67988586425781,111.25737762451172,9.75698089599609,0.03255735710263,-0.24937386810780,1.63795137405396,0.48967003822327,0.35373061895370
204,1611260086,-176.72839355468750,-88.67854309082031,111.25279998779297,9.78935146331787,0.02575746551156,-0.28086802363396,1.06466233730316,0.41033467650414,0.34284517168999
205,1611276753,-176.72201538085938,-88.67707061767578,111.25441741943359,9.77345657348633,0.00777791813016,-0.29148334264755,1.43538033962250,0.40667206048965,0.32579994201660
206,1611293420,-176.72511291503906,-88.67662811279297,111.26626586914062,9.79366970062256,0.03722969070077,-0.27773654460907,1.45245134830475,0.42881426215172,0.31145682930946
207,1611310087,-176.72639465332031,-88.67825317382812,111.28278350830078,9.77365875244141,-0.01283191516995,-0.28516468405724,1.90217161178589,0.55586594343185,0.29588428139687
208,1611326754,-176.72851562500000,-88.67944335937500,111.29958343505859,9.78038787841797,0.02553126215935,-0.26435264945030,1.75213265419006,0.55584037303925,0.29875290393829
209,1611343421,-176.78668212890625,-88.67736816406250,111.37007904052734,9.76691722869873,0.01491157803684,-0.26848706603050,1.41915488243103,0.35572838783264,0.23848624527454
210,1611360088,-176.88493347167969,-88.67086791992188,111.47625732421875,9.76970386505127,0.04348759725690,-0.26284426450729,1.32861399650574,0.08007170259953,0.19969581067562
211,1611376755,-177.06838989257812,-88.66148376464844,111.67308807373047,9.77071285247803,0.02561379596591,-0.26937395334244,1.35733854770660,-0.13637483119965,0.08849827200174
212,1611393422,-177.17579650878906,-88.64723205566406,111.78579711914062,9.80157852172852,0.02507103234529,-0.24310331046581,1.09671664237976,-0.33596178889275,0.20876272022724
213,1611410089,-177.25738525390625,-88.63713836669922,111.86891174316406,9.79463481903076,0.02263381518424,-0.29849529266357,0.78347325325012,-0.16217960417271,0.24143171310425
214,1611426756,-177.36302185058594,-88.62655639648438,111.98005676269531,9.79721450805664,0.02160809561610,-0.29645913839340,1.18305695056915,-0.16886451840401,0.19626370072365
215,1611443423,-177.51106262207031,-88.61775207519531,112.12689208984375,9.79400444030762,0.04735688865185,-0.28375589847565,1.19083046913147,-0.03886726871133,0.12614893913269
216,1611460090,-177.64135742187500,-88.61013031005859,112.26325225830078,9.78113174438477,0.02198942191899,-0.29138019680977,1.20841360092163,0.01214682403952,0.14697207510471
217,1611476757,-177.85728454589844,-88.60226440429688,112.48457336425781,9.78051567077637,0.03021092899144,-0.28143557906151,1.08848214149475,0.00197858083993,0.02207174524665
218,1611493424,-178.20155334472656,-88.59416961669922,112.82791137695312,9.79194545745850,0.01032742206007,-0.29420316219330,0.85699445009232,-0.04240182042122,-0.16570134460926
219,1611510091,-178.52603149414062,-88.58639526367188,113.14176940917969,9.77612781524658,0.04004636779428,-0.31707727909088,0.14136289060116,0.01762793958187,-0.12482348084450
220,1611526758,-178.84135437011719,-88.58169555664062,113.45706939697266,9.79584312438965,-0.00367634114809,-0.31812509894371,0.72699725627899,0.18709436058998,-0.13495330512524
221,1611543425,-179.01773071289062,-88.57865905761719,113.64402008056641,9.80288696289062,0.04904231801629,-0.33900532126427,1.40123879909515,0.29328462481499,0.05202579870820
222,1611560092,-179.17863464355469,-88.57935333251953,113.81584930419922,9.78377914428711,0.02914168685675,-0.34385147690773,1.21075713634491,0.48990049958229,0.07725431025028
223,1611576759,-179.29003906250000,-88.58114624023438,113.93583679199219,9.80193996429443,0.02968227677047,-0.32024908065796,1.62728369235992,0.60815441608429,0.13900654017925
224,1611593426,-179.43348693847656,-88.58528900146484,114.09291839599609,9.79297256469727,0.02768178470433,-0.30673050880432,1.55773234367371,0.68587601184845,0.09246823936701
225,1611610093,-179.53628540039062,-88.58833312988281,114.21543121337891,9.79996490478516,0.04572128131986,-0.27276167273521,1.83687222003937,0.66711473464966,0.14731784164906
226,1611626760,-179.62316894531250,-88.58944702148438,114.31182098388672,9.79147529602051,0.02340237982571,-0.28151226043701,1.30109322071075,0.56410050392151,0.18558320403099
227,1611643427,-179.77351379394531,-88.58972167968750,114.48450469970703,9.76947116851807,0.00206245621666,-0.30100139975548,1.98037385940552,0.45668721199036,0.07504521310329
228,1611660094,-179.80728149414062,-88.58847808837891,114.53721618652344,9.77794075012207,0.06232855096459,-0.28608089685440,2.21901392936707,0.40072992444038,0.24331426620483
229,1611676761,-179.98709106445312,-88.58556365966797,114.71682739257812,9.77742576599121,0.05061223730445,-0.28454604744911,0.94950753450394,0.29651179909706,0.05664888396859
230,1611693428,179.90991210937500,-88.58169555664062,114.83319854736328,9.79104995727539,0.02604240737855,-0.27832072973251,1.26203382015228,0.25336724519730,0.16175061464310
231,1611710095,179.78601074218750,-88.57783508300781,114.96665954589844,9.77681255340576,0.04329314082861,-0.28981700539589,1.53684520721436,0.22496274113655,0.12372854351997
232,1611726762,179.60284423828125,-88.57385253906250,115.14750671386719,9.79144096374512,0.06633149087429,-0.28434783220291,0.71991539001465,0.26184502243996,0.05403639376163
233,1611743429,179.50433349609375,-88.57069396972656,115.23979949951172,9.80698299407959,0.03098783642054,-0.29109254479408,0.53301948308945,0.30036652088165,0.18539111316204
234,1611760096,179.46600341796875,-88.56946563720703,115.28064727783203,9.78074455261230,0.01993540674448,-0.30118048191071,1.01056826114655,0.40877225995064,0.26421418786049
235,1611776763,179.57318115234375,-88.56550598144531,115.18271636962891,9.76124858856201,0.04233930259943,-0.31170827150345,1.46039140224457,0.23113539814949,0.47195881605148
236,1611793430,179.66941833496094,-88.56142425537109,115.09313964843750,9.77949047088623,0.03841624781489,-0.30907520651817,1.16552507877350,0.23899848759174,0.46298155188560
237,1611810097,179.70536804199219,-88.55883789062500,115.07183074951172,9.79330158233643,0.04729907214642,-0.30933895707130,1.67493629455566,0.31018900871277,0.36027464270592
238,1611826764,179.76289367675781,-88.55815887451172,115.01879119873047,9.79465389251709,0.05766239762306,-0.29613277316093,1.14874887466431,0.43549916148186,0.40737637877464
239,1611843431,179.79776000976562,-88.55625915527344,114.98587799072266,9.78827285766602,0.02357394061983,-0.31047689914703,1.24977815151215,0.37183880805969,0.37041729688644
240,1611860098,179.83470153808594,-88.55761718750000,114.95594787597656,9.78696918487549,0.03569328039885,-0.28349736332893,1.13482201099396,0.54086339473724,0.37648108601570
241,1611876765,179.87060546875000,-88.55924224853516,114.92555999755859,9.79440593719482,0.04968604072928,-0.30458581447601,1.13680040836334,0.56419014930725,0.37501472234726
242,1611893432,179.91450500488281,-88.55979156494141,114.88808441162109,9.76902103424072,0.04888433590531,-0.31022277474403,1.19167554378510,0.50715065002441,0.38533666729927
243,1611910099,179.94970703125000,-88.55924224853516,114.85912322998047,9.76844406127930,0.04606344550848,-0.29889097809792,0.78577840328217,0.47750392556190,0.38260889053345
244,1611926766,-179.97381591796875,-88.55747985839844,114.78474426269531,9.80047321319580,0.04330207034945,-0.30309298634529,1.00120675563812,0.35580521821976,0.43909767270088
245,1611943433,-179.90686035156250,-88.55409240722656,114.72088623046875,9.77092933654785,0.03752915561199,-0.24980665743351,1.06870913505554,0.24505592882633,0.42416551709175
246,1611960100,-179.84793090820312,-88.54895782470703,114.65674591064453,9.77061748504639,0.06858520954847,-0.29923710227013,0.70052659511566,0.19242179393768,0.42211651802063
247,1611976767,-179.75164794921875,-88.54465484619141,114.56420898437500,9.78831005096436,0.01804135181010,-0.31604012846947,0.84961801767349,0.22021156549454,0.47586473822594
248,1611993434,-179.61531066894531,-88.54222869873047,114.43588256835938,9.78998947143555,0.02619013190269,-0.35214397311211,1.22526681423187,0.32038286328316,0.52860128879547
249,1612010101,-179.53881835937500,-88.53981781005859,114.37435150146484,9.76450252532959,0.01448235474527,-0.28733831644058,1.61037945747375,0.36292558908463,0.42635542154312
250,1612026768,-179.42770385742188,-88.54062652587891,114.26605987548828,9.78792953491211,0.05870074778795,-0.33846089243889,1.07748138904572,0.52720546722412,0.49233371019363
251,1612043435,-179.32818603515625,-88.54222869873047,114.16442108154297,9.78018665313721,0.03689075633883,-0.33310559391975,0.87742060422897,0.58100485801697,0.47897666692734
252,1612060102,-179.21850585937500,-88.54505920410156,114.06452941894531,9.78273868560791,0.03471481055021,-0.30172291398048,1.46253001689911,0.60728353261948,0.47933530807495
253,1612076769,-179.06364440917969,-88.54640197753906,113.91344451904297,9.77851486206055,0.02082195691764,-0.29968601465225,1.47579741477966,0.56522744894028,0.54790049791336
254,1612093436,-178.93673706054688,-88.54707336425781,113.80876159667969,9.77860736846924,-0.00258270301856,-0.31503379344940,1.54629647731781,0.51147925853729,0.50300145149231
255,1612110103,-178.81512451171875,-88.54546356201172,113.68974304199219,9.76660251617432,0.02776865474880,-0.30243718624115,1.13888800144196,0.40097326040268,0.50818800926208
256,1612126770,-178.73612976074219,-88.53900909423828,113.61209869384766,9.77935218811035,0.04172929376364,-0.29568970203400,0.96093076467514,0.10492882132530,0.45431163907051
257,1612143437,-178.59202575683594,-88.53099822998047,113.47364807128906,9.78634643554688,0.03288837894797,-0.27357885241508,1.17112135887146,0.00776705052704,0.55183196067810
258,1612160104,-178.50273132324219,-88.52435302734375,113.39310455322266,9.80312156677246,0.03756196796894,-0.28397133946419,1.18785929679871,0.06384605169296,0.46800163388252
259,1612176771,-178.40345764160156,-88.51879882812500,113.29778289794922,9.78373908996582,0.00722008943558,-0.31582894921303,1.02672982215881,0.14630612730980,0.48676294088364
260,1612193438,-178.42179870605469,-88.51115417480469,113.31720733642578,9.76580238342285,0.03184257075191,-0.31347659230232,1.04273784160614,0.01981782913208,0.30652639269829
261,1612210105,-178.38055419921875,-88.50380706787109,113.27714538574219,9.76391220092773,0.04450242221355,-0.32360389828682,1.06678819656372,0.04219051823020,0.39870652556419
262,1612226772,-178.30686950683594,-88.49714660644531,113.20520782470703,9.78718948364258,0.03051687777042,-0.31993994116783,0.91491770744324,0.08062238246202,0.45458063483238
263,1612243439,-178.27877807617188,-88.49402618408203,113.18431854248047,9.77858257293701,0.03458705544472,-0.36282294988632,0.86953192949295,0.31240451335907,0.37533488869667
264,1612260106,-178.29026794433594,-88.49520111083984,113.19355773925781,9.79262161254883,-0.00154669571202,-0.32652997970581,0.71033614873886,0.53447937965393,0.31246852874756
265,1612276773,-178.26844787597656,-88.49520111083984,113.17937469482422,9.79594326019287,0.02088302187622,-0.29923987388611,1.15876328945160,0.46766865253448,0.35398671030998
266,1612293440,-178.20663452148438,-88.49481201171875,113.12780761718750,9.78334522247314,0.04965747147799,-0.29628753662109,1.05402028560638,0.46495378017426,0.42001628875732
267,1612310107,-178.15693664550781,-88.49234008789062,113.08715057373047,9.75477027893066,0.00830521993339,-0.31976169347763,1.55395448207855,0.32281607389450,0.39294365048409
268,1612326774,-178.09004211425781,-88.48793792724609,113.03187561035156,9.77734184265137,0.02905095368624,-0.30275923013687,1.46478390693665,0.19603319466114,0.42681640386581
269,1612343441,-178.07293701171875,-88.48199462890625,113.02845764160156,9.79245185852051,0.00582262082025,-0.31611987948418,1.42106306552887,0.13898092508316,0.35066986083984
270,1612360108,-178.11361694335938,-88.47710418701172,113.06908416748047,9.76858901977539,0.01820843294263,-0.32718425989151,1.01795756816864,0.16825622320175,0.26949042081833
271,1612376775,-178.20820617675781,-88.47274017333984,113.17259979248047,9.75781440734863,0.01740547455847,-0.34468171000481,1.34565913677216,0.20465187728405,0.17120169103146
272,1612393442,-178.22924804687500,-88.46736907958984,113.20157623291016,9.78193378448486,0.02441079355776,-0.35234549641609,1.14850544929504,0.17752802371979,0.29492384195328
273,1612410109,-178.27107238769531,-88.46481323242188,113.25289154052734,9.77807426452637,0.02980686537921,-0.33613574504852,1.34099769592285,0.30707705020905,0.25129261612892
274,1612426776,-178.29814147949219,-88.45959472656250,113.28881072998047,9.75504684448242,0.03013180568814,-0.31587415933609,1.30327022075653,0.18676139414310,0.27997881174088
275,1612443443,-178.34989929199219,-88.45364379882812,113.34915161132812,9.76572513580322,0.04455637186766,-0.28892213106155,0.93927526473999,0.13319243490696,0.25079312920570
276,1612460110,-178.41662597656250,-88.44430541992188,113.42093658447266,9.75486183166504,0.01862686872482,-0.28187581896782,1.28221654891968,-0.09741790592670,0.22337476909161
277,1612476777,-178.45541381835938,-88.42704010009766,113.47160339355469,9.76543903350830,0.02999022230506,-0.28126928210258,1.62112379074097,-0.56511861085892,0.27178272604942
278,1612493444,-178.45179748535156,-88.40443420410156,113.47770690917969,9.77328014373779,0.04501282051206,-0.31476500630379,1.43493235111237,-0.86759173870087,0.35297501087189
279,1612510111,-178.42248535156250,-88.37731170654297,113.46239471435547,9.78430271148682,0.03001796081662,-0.31216120719910,1.64304828643799,-1.15531194210052,0.39993590116501
280,1612526778,-178.46646118164062,-88.34696960449219,113.50205230712891,9.80939865112305,0.09417748451233,-0.19736938178539,0.31618234515190,-1.33421671390533,0.31613111495972
281,1612543445,-178.61741638183594,-88.31159210205078,113.65794372558594,9.75199604034424,-0.04865339025855,-0.28190958499908,0.40631347894669,-1.62046432495117,0.12830042839050
282,1612560112,-178.83590698242188,-88.26494598388672,113.85908508300781,9.73445320129395,0.07329010963440,-0.25424969196320,0.33717203140259,-2.30715394020081,0.01125037856400
283,1612576779,-179.22007751464844,-88.20812225341797,114.20732879638672,9.72132968902588,0.06258114427328,-0.27837219834328,-1.52564597129822,-2.94934034347534,-0.25378340482712
284,1612593446,-179.64930725097656,-88.13912200927734,114.60526275634766,9.73930454254150,0.02353819459677,-0.31037327647209,-1.06507873535156,-3.67384791374207,-0.39543455839157
285,1612610113,179.90763854980469,-88.05902099609375,115.02235412597656,9.74800491333008,0.01488264836371,-0.33087483048439,-0.88352292776108,-4.29628705978394,-0.48991975188255
286,1612626780,179.47009277343750,-87.97357940673828,115.41746520996094,9.75946426391602,0.06496906280518,-0.31939229369164,-1.79936921596527,-4.63365697860718,-0.52041167020798
287,1612643447,178.97412109375000,-87.88956451416016,115.83928680419922,9.80196571350098,0.07325515151024,-0.31456249952316,-3.73221850395203,-4.49637365341187,-0.65225303173065
288,1612660114,178.34809875488281,-87.81484222412109,116.37023925781250,9.80410766601562,0.00603630207479,-0.46286115050316,-4.57499122619629,-3.97115945816040,-0.98503881692886
289,1612676781,177.79916381835938,-87.75049591064453,116.85702514648438,9.81014251708984,0.02371059544384,-0.49637305736542,-2.39331483840942,-3.35432863235474,-0.95495659112930
290,1612693448,177.19940185546875,-87.70083618164062,117.38715362548828,9.78902053833008,0.15169551968575,-0.51590460538864,-3.28435516357422,-2.43250203132629,-1.06870269775391
291,1612710115,176.74072265625000,-87.65866088867188,117.78804779052734,9.81701850891113,-0.09710966050625,-0.65413641929626,-2.62440538406372,-1.97827386856079,-0.78047031164169
292,1612726782,176.25062561035156,-87.62265014648438,118.27123260498047,9.77246952056885,0.04181343689561,-0.52808773517609,-0.41177538037300,-1.59396803379059,-0.96358823776245
293,1612743449,175.70610046386719,-87.59320068359375,118.78392028808594,9.75577735900879,0.14702306687832,-0.51104009151459,-1.37061250209808,-1.19653570652008,-1.06858754158020
294,1612760116,175.05712890625000,-87.57416534423828,119.37556457519531,9.79568672180176,0.02852767333388,-0.53039228916168,-2.72393631935120,-0.54567855596542,-1.25561141967773
295,1612776783,174.41371154785156,-87.56362152099609,119.98641204833984,9.79963779449463,-0.04139660671353,-0.60747253894806,-1.05260515213013,-0.01280634943396,-1.28557825088501
296,1612793450,173.76519775390625,-87.55936431884766,120.61835479736328,9.79960346221924,0.03546249121428,-0.56691724061966,-0.11086457967758,0.38888406753540,-1.31002557277679
297,1612810117,173.06497192382812,-87.56506347656250,121.30278015136719,9.79260635375977,0.04253510385752,-0.54515171051025,-0.29300931096077,1.02153062820435,-1.36520814895630
298,1612826784,172.36674499511719,-87.57141876220703,121.99776458740234,9.78615093231201,0.06410045921803,-0.46630868315697,0.74217265844345,1.08903253078461,-1.38726055622101
299,1612843451,171.53471374511719,-87.57957458496094,122.83351898193359,9.77685451507568,0.06143614277244,-0.43215036392212,1.14531660079956,1.25364553928375,-1.71530818939209
300,1612860118,170.71412658691406,-87.58419036865234,123.65829467773438,9.74678039550781,0.16733269393444,-0.44512441754341,0.95706337690353,1.05820798873901,-1.69467723369598
301,1612876785,169.86099243164062,-87.58346557617188,124.49290466308594,9.75676536560059,0.04787555709481,-0.43079245090485,-0.48634672164917,0.82030427455902,-1.75320196151733
302,1612893452,169.09635925292969,-87.57942199707031,125.26461791992188,9.80082607269287,0.06049658358097,-0.41977486014366,1.31638395786285,0.57939130067825,-1.64834380149841
303,1612910119,168.32298278808594,-87.57199096679688,126.03907012939453,9.80692958831787,0.15314340591431,-0.37801319360733,0.83787465095520,0.41162806749344,-1.69343471527100
304,1612926786,167.41583251953125,-87.55575561523438,126.92642974853516,9.74030399322510,0.17650212347507,-0.40410238504410,-0.34559214115143,0.02752725034952,-2.09114885330200
305,1612943453,166.42436218261719,-87.52947998046875,127.86800384521484,9.70809745788574,0.14589546620846,-0.41023668646812,-1.85807335376740,-0.49186626076698,-2.40523743629456
306,1612960120,165.44039916992188,-87.49798583984375,128.80702209472656,9.76581573486328,0.12861636281013,-0.40972709655762,-1.99861025810242,-0.76617825031281,-2.50420475006104
307,1612976787,164.49624633789062,-87.45925140380859,129.71000671386719,9.77254867553711,0.12078826129436,-0.46781495213509,-1.67941188812256,-1.13388705253601,-2.57703471183777
308,1612993454,163.53904724121094,-87.41851043701172,130.61975097656250,9.76556301116943,0.16366741061211,-0.44178763031960,-1.84758472442627,-1.20085132122040,-2.70429110527039
309,1613010121,162.56166076660156,-87.37377929687500,131.54441833496094,9.75420188903809,0.20064961910248,-0.48216095566750,-2.61910319328308,-1.35585939884186,-2.85937619209290
310,1613026788,161.57719421386719,-87.32277679443359,132.46339416503906,9.71896266937256,0.20700182020664,-0.47669383883476,-3.38088274002075,-1.63554370403290,-3.03056502342224
311,1613043455,160.80708312988281,-87.26055145263672,133.16636657714844,9.71602630615234,0.14404886960983,-0.48537465929985,-3.13262534141541,-2.41383075714111,-2.77034664154053
312,1613060122,160.01597595214844,-87.19648742675781,133.87571716308594,9.78159332275391,0.27440497279167,-0.40041327476501,-3.83337664604187,-2.43862414360046,-2.91087102890015
313,1613076789,159.21441650390625,-87.12928771972656,134.57257080078125,9.77321815490723,0.18698960542679,-0.50554394721985,-5.18302536010742,-2.56776332855225,-3.03068757057190
314,1613093456,158.48048400878906,-87.05762481689453,135.21862792968750,9.77871036529541,0.18859703838825,-0.43020695447922,-4.51080656051636,-2.82009911537170,-3.05660676956177
315,1613110123,157.67214965820312,-86.98332214355469,135.93101501464844,9.78466606140137,0.22550545632839,-0.45558726787567,-4.82303810119629,-2.81422162055969,-3.40246820449829
316,1613126790,156.76480102539062,-86.90838623046875,136.72912597656250,9.75142478942871,0.18826057016850,-0.51929086446762,-5.80406999588013,-2.67974233627319,-3.76632308959961
317,1613143457,155.90257263183594,-86.82614898681641,137.51065063476562,9.76609230041504,0.15960845351219,-0.55682575702667,-4.26908636093140,-3.00754570960999,-3.98894715309143
318,1613160124,155.08117675781250,-86.73637390136719,138.25935363769531,9.72133731842041,0.18936745822430,-0.55685180425644,-3.78408455848694,-3.38772797584534,-4.19593667984009
319,1613176791,154.32215881347656,-86.63489532470703,138.94859313964844,9.72393035888672,0.34611922502518,-0.47047942876816,-3.56104946136475,-3.97869014739990,-4.41661596298218
320,1613193458,153.55113220214844,-86.52204895019531,139.59082031250000,9.69965076446533,0.35356524586678,-0.41317912936211,-6.93790626525879,-4.59873628616333,-4.71592664718628
321,1613210125,152.81402587890625,-86.39706420898438,140.18768310546875,9.75775814056396,0.31724819540977,-0.42172276973724,-7.60203075408936,-5.21479892730713,-5.03177022933960
322,1613226792,152.12857055664062,-86.26157379150391,140.72598266601562,9.74625873565674,0.39201855659485,-0.45352092385292,-8.18870353698730,-5.76164388656616,-5.24659729003906
323,1613243459,151.54484558105469,-86.11627960205078,141.15258789062500,9.72690582275391,0.34076395630836,-0.52218937873840,-8.68137836456299,-6.41127157211304,-5.28573417663574
324,1613260126,151.05294799804688,-85.95475006103516,141.48217773437500,9.66048049926758,0.27958163619041,-0.56552612781525,-9.11373996734619,-7.36240720748901,-5.50939130783081
325,1613276793,150.61874389648438,-85.77219390869141,141.76376342773438,9.72840309143066,0.39464631676674,-0.43073830008507,-8.40177726745605,-8.48825836181641,-6.06583452224731
326,1613293460,150.14953613281250,-85.57649993896484,142.01387023925781,9.70128059387207,0.44044142961502,-0.50724703073502,-12.35000705718994,-9.15968704223633,-6.45041084289551
327,1613310127,149.62387084960938,-85.36963653564453,142.31913757324219,9.73332214355469,0.34504705667496,-0.60328191518784,-12.79885196685791,-9.53488159179688,-7.11537551879883
328,1613326794,149.12417602539062,-85.15252685546875,142.58741760253906,9.73135089874268,0.36355718970299,-0.73595041036606,-13.07957553863525,-10.05171489715576,-7.45012712478638
329,1613343461,148.61355590820312,-84.92784881591797,142.88024902343750,9.74422836303711,0.34162074327469,-0.78191751241684,-12.31818580627441,-10.27481460571289,-7.93619394302368
330,1613360128,148.12973022460938,-84.69784545898438,143.13743591308594,9.72234916687012,0.60098934173584,-0.75319606065750,-12.79900074005127,-10.53732013702393,-8.09430122375488
331,1613376795,147.60594177246094,-84.46731567382812,143.38972473144531,9.72933292388916,0.52245074510574,-0.83942210674286,-15.60774898529053,-10.47037220001221,-8.22326374053955
332,1613393462,147.09252929687500,-84.23354339599609,143.66867065429688,9.66405391693115,0.41025441884995,-0.95409250259399,-13.31385707855225,-10.44498920440674,-8.62348747253418
333,1613410129,146.56033325195312,-83.99534606933594,143.96907043457031,9.74431133270264,0.56664639711380,-0.92790114879608,-13.16184329986572,-10.47085475921631,-9.03410816192627
334,1613426796,145.90583801269531,-83.76564788818359,144.32568359375000,9.73035526275635,0.61707997322083,-1.03288352489471,-17.16422462463379,-9.70779323577881,-9.22273921966553
335,1613443463,145.17753601074219,-83.54387664794922,144.76783752441406,9.66624069213867,0.34643071889877,-1.12110126018524,-16.49821281433105,-8.83325576782227,-9.61293411254883
336,1613460130,144.49815368652344,-83.33176422119141,145.26544189453125,9.76806163787842,0.53035730123520,-1.14938116073608,-10.26920223236084,-7.96079206466675,-9.78594207763672
337,1613476797,143.74389648437500,-83.13378906250000,145.84207153320312,9.76385688781738,0.86846202611923,-1.14193558692932,-10.05625820159912,-6.76023387908936,-9.93718528747559
338,1613493464,142.78416442871094,-82.96315765380859,146.50144958496094,9.72395801544189,0.99123227596283,-1.15094983577728,-17.48968124389648,-4.85352373123169,-9.62215328216553
339,1613510131,141.92369079589844,-82.81599426269531,147.11909484863281,9.78632450103760,0.80370348691940,-1.34438633918762,-14.01059532165527,-3.71675205230713,-8.69842624664307
340,1613526798,141.21374511718750,-82.69062042236328,147.65051269531250,9.79958057403564,0.80117756128311,-1.23750782012939,-10.13574504852295,-2.91185832023621,-7.49253749847412
341,1613543465,140.58674621582031,-82.57714843750000,148.14204406738281,9.63573265075684,0.98493444919586,-1.12747883796692,-7.52416896820068,-2.42277002334595,-6.89891099929810
342,1613560132,139.99461364746094,-82.46669769287109,148.57458496093750,9.59156703948975,0.76562094688416,-1.04105627536774,-8.95238494873047,-2.46319985389709,-6.50136423110962
343,1613576799,139.60464477539062,-82.34809112548828,148.98941040039062,9.92076015472412,-0.06852861493826,-1.16686868667603,2.10782933235168,-2.83378958702087,-6.77278041839600
344,1613593466,139.43704223632812,-82.21605682373047,149.35560607910156,9.83185386657715,1.12040853500366,-0.73387467861176,12.55792236328125,-3.63254952430725,-7.05727720260620
345,1613610133,139.19599914550781,-82.07462310791016,149.61457824707031,9.65794467926025,1.02679669857025,-0.88277387619019,1.76468336582184,-4.57176542282104,-6.81020021438599
346,1613626800,139.00331115722656,-81.92766571044922,149.74906921386719,9.58352661132812,1.36739659309387,-0.73462349176407,-2.73094153404236,-5.45317506790161,-6.29079961776733
347,1613643467,139.00277709960938,-81.77920532226562,149.68142700195312,9.59260940551758,1.22008800506592,-1.03795278072357,-3.21051430702209,-6.62260055541992,-5.07651519775391
348,1613660134,139.19158935546875,-81.62992095947266,149.45668029785156,9.70677947998047,1.08851683139801,-0.96445530653000,-1.16533994674683,-7.57294845581055,-4.06760549545288
349,1613676801,139.30906677246094,-81.50210571289062,149.29200744628906,9.79352378845215,1.08454406261444,-0.95280176401138,-1.88540244102478,-6.27882671356201,-3.57467579841614
350,1613693468,139.51248168945312,-81.38983917236328,149.09469604492188,9.81855487823486,0.89468890428543,-1.40689623355865,1.33679759502411,-5.78660154342651,-2.71489572525024
351,1613710135,139.78118896484375,-81.30096435546875,148.90113830566406,9.71268844604492,1.09873008728027,-1.30446815490723,5.47729682922363,-4.71670818328857,-1.78619170188904
352,1613726802,140.04679870605469,-81.21843719482422,148.71464538574219,9.66372013092041,1.11969351768494,-1.27472007274628,5.72453546524048,-4.40964937210083,-1.55768775939941
353,1613743469,140.15533447265625,-81.15191650390625,148.60029602050781,9.68583679199219,1.22731518745422,-1.13364982604980,0.56942796707153,-3.25794839859009,-1.42062115669250
354,1613760136,140.29083251953125,-81.09365081787109,148.50978088378906,9.60706424713135,0.86282950639725,-1.41725492477417,3.59944963455200,-2.74441409111023,-1.25773751735687
355,1613776803,140.50736999511719,-81.03314971923828,148.38928222656250,9.67630386352539,1.32285726070404,-1.04372012615204,6.70196771621704,-3.04276394844055,-1.12293791770935
356,1613793470,140.72573852539062,-80.95595550537109,148.22375488281250,9.58365726470947,0.88093483448029,-1.01058554649353,4.12389516830444,-4.08345890045166,-1.39920914173126
357,1613810137,140.99923706054688,-80.84869384765625,147.99017333984375,9.47046375274658,1.10011959075928,-0.92247277498245,3.41919994354248,-5.91942882537842,-2.01551508903503
358,1613826804,141.25610351562500,-80.70980834960938,147.68498229980469,9.51125907897949,0.92296868562698,-1.13869178295135,-1.82498192787170,-7.85106182098389,-2.61060047149658
359,1613843471,141.69090270996094,-80.53369903564453,147.21823120117188,9.52981662750244,1.09420979022980,-1.07038843631744,-0.69854819774628,-10.63292312622070,-2.67878198623657
360,1613860138,142.27026367187500,-80.32715606689453,146.63078308105469,9.59152221679688,1.15497338771820,-0.90294331312180,0.84893989562988,-12.89849948883057,-2.68580079078674
361,1613876805,142.82858276367188,-80.09944915771484,145.97436523437500,9.59540081024170,1.25844371318817,-0.95651483535767,-4.47104644775391,-14.44210529327393,-2.65848541259766
362,1613893472,143.40312194824219,-79.85522460937500,145.31227111816406,9.65326499938965,0.77807539701462,-1.33411085605621,-3.80813837051392,-15.39409255981445,-2.93014693260193
363,1613910139,144.07972717285156,-79.59037780761719,144.65126037597656,9.64195442199707,0.87910461425781,-1.50027334690094,2.41190576553345,-16.52129745483398,-3.35826373100281
364,1613926806,144.75907897949219,-79.30712127685547,143.99510192871094,9.64093971252441,0.88508057594299,-1.43338286876678,2.89945697784424,-17.54219627380371,-3.69179320335388
365,1613943473,145.54589843750000,-79.00003051757812,143.26371765136719,9.52618694305420,1.21339833736420,-1.27227556705475,4.94405841827393,-19.36167907714844,-3.41565012931824
366,1613960140,146.37065124511719,-78.65943145751953,142.45686340332031,9.43122196197510,1.43188548088074,-1.18491029739380,2.83193039894104,-21.70840072631836,-3.33512473106384
367,1613976807,147.14949035644531,-78.29002380371094,141.62532043457031,9.56568813323975,1.15023159980774,-1.31233191490173,-1.31625223159790,-23.52746582031250,-3.47771263122559
368,1613993474,147.93505859375000,-77.89466857910156,140.79660034179688,9.53565406799316,0.99550360441208,-1.54894804954529,-0.67904543876648,-25.04649734497070,-3.73955249786377
369,1614010141,148.70211791992188,-77.48169708251953,140.00552368164062,9.75356292724609,1.05422902107239,-1.71727061271667,0.48575234413147,-25.92478561401367,-4.06438589096069
370,1614026808,149.63357543945312,-77.05268096923828,139.16064453125000,9.74951457977295,1.16726696491241,-1.69296729564667,7.27724838256836,-27.35367393493652,-3.26319551467896
371,1614043475,150.59939575195312,-76.59760284423828,138.28741455078125,9.55406856536865,1.12299275398254,-1.58814549446106,7.77200078964233,-29.15021705627441,-2.91691160202026
372,1614060142,151.61045837402344,-76.07952117919922,137.38264465332031,9.55509757995605,1.30357503890991,-1.50909769535065,8.75740814208984,-32.93802642822266,-3.46320986747742
373,1614076809,152.65036010742188,-75.50247192382812,136.41427612304688,9.37377166748047,1.27242410182953,-1.61993789672852,6.90434074401855,-36.79659271240234,-3.24061179161072
374,1614093476,153.68672180175781,-74.85841369628906,135.43962097167969,9.38471126556396,1.02172112464905,-1.60535681247711,6.48996973037720,-40.76012420654297,-3.76136255264282
375,1614110143,154.73651123046875,-74.14868164062500,134.48464965820312,9.72282028198242,1.11120915412903,-1.65122210979462,8.61675739288330,-44.53199768066406,-4.41078233718872
376,1614126810,155.68789672851562,-73.39521026611328,133.57809448242188,9.88580417633057,0.86270451545715,-2.16192197799683,5.69354963302612,-46.94213867187500,-4.81824827194214
377,1614143477,156.71437072753906,-72.59894561767578,132.73730468750000,10.01502895355225,0.86354547739029,-2.49409317970276,14.18329906463623,-49.19102096557617,-5.44673204421997
378,1614160144,157.79774475097656,-71.75399780273438,131.95880126953125,9.83999443054199,0.83918172121048,-2.54233288764954,21.36753845214844,-51.80834960937500,-6.08053541183472
379,1614176811,158.95379638671875,-70.83508300781250,131.12280273437500,9.70489692687988,1.11289906501770,-2.17258358001709,22.69392776489258,-56.71195602416992,-5.03284645080566
380,1614193478,159.96731567382812,-69.80968475341797,130.35784912109375,9.84657192230225,0.69048482179642,-2.16794610023499,18.43066215515137,-62.56182861328125,-6.77977180480957
381,1614210145,160.96485900878906,-68.66875457763672,129.62838745117188,10.36963081359863,0.50392568111420,-2.29057240486145,19.76693534851074,-69.23312377929688,-7.93717575073242
382,1614226812,162.07170104980469,-67.40135955810547,128.96029663085938,10.87776088714600,0.16881582140923,-2.52811503410339,30.07049942016602,-76.40504455566406,-9.55415058135986
383,1614243479,163.36607360839844,-65.96588134765625,128.36610412597656,11.35018920898438,0.09070700407028,-2.19797682762146,45.75859832763672,-85.96571350097656,-11.78267765045166
384,1614260146,164.86154174804688,-64.28414916992188,127.82953643798828,12.25064945220947,-0.77158337831497,-1.31197381019592,61.35287857055664,-100.29180908203125,-14.26809501647949
385,1614276813,166.82963562011719,-62.17757415771484,127.41013336181641,14.18025779724121,-1.92599451541901,0.17717280983925,96.43722534179688,-124.86580657958984,-19.58937454223633
386,1614293480,169.27081298828125,-59.52061080932617,127.19592285156250,18.05073356628418,-1.90388000011444,3.44100308418274,136.05439758300781,-156.81433105468750,-26.56171607971191
387,1614310147,170.16844177246094,-56.98380279541016,127.66274261474609,23.37814903259277,0.26483750343323,12.29752445220947,78.50376892089844,-146.69250488281250,-41.34716415405273
388,1614326814,169.16943359375000,-54.07539367675781,128.70768737792969,20.61305618286133,-2.09007263183594,1.78472280502319,-7.39576053619385,-164.88340759277344,-65.88739776611328
389,1614343481,170.23028564453125,-49.60498046875000,129.07951354980469,19.20382690429688,7.57516431808472,-5.93221759796143,81.99845123291016,-261.03259277343750,-61.20853042602539
390,1614360148,168.22821044921875,-45.35837173461914,129.69242858886719,15.30841159820557,3.89080572128296,-8.84010887145996,-92.11148071289062,-245.26524353027344,-71.71833801269531
391,1614376815,170.47273254394531,-41.68425750732422,130.57865905761719,8.48060417175293,-6.37509012222290,-7.45815944671631,172.08741760253906,-209.14224243164062,-78.32315063476562
392,1614393482,176.50804138183594,-38.88158798217773,131.22235107421875,3.09681320190430,-3.72189164161682,2.45515537261963,387.84915161132812,-163.42581176757812,-48.04494857788086
393,1614410149,-179.33467102050781,-37.05247879028320,132.01599121093750,-2.03958177566528,3.20155143737793,9.56393814086914,279.54336547851562,-108.42618560791016,-39.92339706420898
394,1614426816,-178.29714965820312,-36.45422363281250,133.10154724121094,-5.34816694259644,2.67158865928650,15.81794261932373,102.06478118896484,-36.58356475830078,-51.10471725463867
395,1614443483,-178.54898071289062,-37.14912414550781,134.27250671386719,-7.68542337417603,0.26374751329422,18.25757217407227,27.82497024536133,40.50459671020508,-57.04747390747070
396,1614460150,179.99777221679688,-39.24395370483398,135.46508789062500,-7.23106718063354,1.19991767406464,20.20119476318359,-42.08814620971680,125.33330535888672,-57.48551559448242
397,1614476817,177.72544860839844,-42.72103500366211,136.45530700683594,-8.83132266998291,-2.49797081947327,18.56155586242676,-96.47309112548828,209.83526611328125,-40.37379837036133
398,1614493484,175.92718505859375,-47.22311782836914,137.11381530761719,-12.58923530578613,-3.78507542610168,13.36564445495605,-79.05790710449219,271.61172485351562,-12.63339805603027
399,1614510151,173.89068603515625,-52.41082763671875,137.40151977539062,-14.07295894622803,-1.93308293819427,7.27242946624756,-108.06522369384766,311.38345336914062,16.84666824340820
400,1614526818,172.00729370117188,-57.91195297241211,137.30258178710938,-13.32175827026367,-1.99113869667053,-1.02146577835083,-116.94496917724609,327.52194213867188,44.20465469360352
401,1614543485,170.79103088378906,-63.26362991333008,136.92657470703125,-11.24330806732178,2.05491089820862,-8.35447597503662,-91.73562622070312,316.19720458984375,59.29252624511719
402,1614560152,169.40322875976562,-68.05256652832031,136.43719482421875,-4.11074161529541,4.58393144607544,-14.52497673034668,-109.13265991210938,281.35394287109375,61.65706634521484
403,1614576819,168.87466430664062,-71.61550140380859,135.06549072265625,7.36190938949585,11.03992271423340,-21.44624328613281,-108.11932373046875,204.98196411132812,68.46440124511719
404,1614593486,166.94357299804688,-73.56267547607422,131.75878906250000,9.28874301910400,12.28922843933105,-23.62835121154785,-304.31469726562500,102.20511627197266,82.86015319824219
405,1614610153,168.49708557128906,-73.84989166259766,127.17316436767578,5.57894039154053,1.23834264278412,-22.69715881347656,-170.02745056152344,0.84726446866989,79.41821289062500
406,1614626820,174.26623535156250,-73.49847412109375,121.91322326660156,6.86603164672852,10.16671276092529,-22.92107582092285,44.10567092895508,-33.65572738647461,84.86848449707031
407,1614643487,-175.32733154296875,-65.25251770019531,116.28053283691406,24.56344604492188,29.74751663208008,-121.89854431152344,307.50039672851562,-494.90377807617188,114.91439819335938
408,1614660154,169.06979370117188,-61.52775192260742,116.99333190917969,51.48948669433594,15.35249042510986,78.52655792236328,-896.69494628906250,-222.19415283203125,-31.03491783142090
409,1614676821,176.27629089355469,-58.60165786743164,115.96478271484375,62.89688491821289,-16.12487792968750,-33.15112304687500,379.68383789062500,-177.65606689453125,8.55581283569336
410,1614693488,-178.30908203125000,-55.19784164428711,112.04757690429688,91.32596588134766,-43.92335891723633,11.05958557128906,128.69564819335938,-205.89323425292969,125.08914947509766
411,1614710155,179.60478210449219,-52.68130493164062,110.17214965820312,-0.23418164253235,7.03522825241089,-23.37979698181152,-215.26145935058594,-149.78549194335938,68.28591918945312
412,1614726822,-177.35443115234375,-50.67217636108398,109.62752532958984,-2.64931821823120,4.22094440460205,-5.83730030059814,157.63998413085938,-119.67613220214844,22.96500587463379
413,1614743489,-177.43997192382812,-49.68769454956055,109.96508026123047,-7.88905906677246,-9.02867317199707,-13.16067600250244,11.28024291992188,-59.13665390014648,-9.93608951568604
414,1614760156,-177.74652099609375,-49.24257659912109,109.78676605224609,1.33427691459656,-7.88439035415649,-12.93778896331787,-25.67299461364746,-25.92744445800781,8.39851665496826
415,1614776823,-178.00537109375000,-49.25942230224609,109.31734466552734,11.25711441040039,-1.87966799736023,-11.23816871643066,-36.02145004272461,2.15723586082458,18.65882682800293
416,1614793490,-179.33029174804688,-50.02888870239258,108.71425628662109,16.88504981994629,-3.69929432868958,-12.17262840270996,-106.22078704833984,47.16387939453125,22.67451477050781
417,1614810157,-179.14642333984375,-51.54789733886719,108.10665130615234,18.01994514465332,3.62825107574463,-10.58650779724121,-16.37396049499512,91.89677429199219,22.15416908264160
418,1614826824,-179.44648742675781,-53.96689224243164,107.47562408447266,17.39786911010742,-1.94260859489441,-14.18217277526855,-47.29755401611328,145.86094665527344,21.45373535156250
419,1614843491,-179.59671020507812,-57.39864349365234,106.58019256591797,17.72477912902832,0.65645438432693,-14.13812637329102,-52.54618453979492,206.59613037109375,28.89479827880859
420,1614860158,179.64517211914062,-62.79700088500977,105.81357574462891,24.72332763671875,-2.38607859611511,-15.03840827941895,-84.49365997314453,324.35134887695312,23.12128448486328
421,1614876825,-179.34759521484375,-70.27713775634766,104.98156738281250,44.89411926269531,-8.37687969207764,-12.28562259674072,15.37170505523682,449.27526855468750,19.03910064697266
422,1614893492,-170.18251037597656,-80.04416656494141,97.33187866210938,69.57627105712891,-14.04198169708252,-1.42409467697144,105.18130493164062,593.43725585937500,64.08253479003906
423,1614910159,-92.80505371093750,-85.82852935791016,26.38214492797852,30.86734008789062,-9.83080101013184,-19.13548851013184,405.98040771484375,556.13793945312500,114.19813537597656
424,1614926826,-53.00152587890625,-85.81091308593750,-12.07440280914307,-24.16544532775879,52.16751861572266,-17.71576499938965,87.22590637207031,158.65692138671875,-47.31156158447266
425,1614943493,-89.49798583984375,-86.38768005371094,25.16295051574707,-20.34111976623535,-17.18982505798340,-19.75898933410645,40.54722976684570,-151.67668151855469,17.38460350036621
426,1614960160,-143.40888977050781,-83.85784149169922,80.04036712646484,2.43947458267212,10.35858440399170,1.88545715808868,49.50750732421875,-300.95510864257812,0.71920359134674
427,1614976827,-160.94807434082031,-79.61602020263672,97.78442382812500,8.85897636413574,-1.87205374240875,2.74645638465881,2.95743060112000,-293.06442260742188,-17.17883300781250
428,1614993494,-170.93382263183594,-76.11447906494141,105.73478698730469,9.62081527709961,5.71365499496460,19.92306327819824,-131.64398193359375,-227.20298767089844,-45.97871780395508
429,1615010161,-176.17755126953125,-75.24517059326172,106.97486114501953,3.46581482887268,-10.00140476226807,15.13816642761230,-241.66949462890625,-53.45855331420898,-12.09922885894775
430,1615026828,-176.18702697753906,-76.88786315917969,104.91668701171875,2.10734105110168,-9.14279651641846,5.93287134170532,-119.58050537109375,100.74496459960938,23.43806266784668
431,1615043495,-167.47640991210938,-79.57017517089844,99.48410034179688,0.94516444206238,-14.19735431671143,2.99591732025146,204.23994445800781,169.02027893066406,43.29401016235352
432,1615060162,-150.64721679687500,-82.30992126464844,88.23439025878906,0.15644681453705,-1.95682454109192,3.45366096496582,343.68765258789062,191.20864868164062,41.01789093017578
433,1615076829,-129.19706726074219,-84.19464874267578,71.00797271728516,-2.09790778160095,3.69962835311890,1.03915596008301,261.08978271484375,163.93435668945312,20.97488975524902
434,1615093496,-109.47908020019531,-85.01202392578125,53.06948471069336,-2.08728885650635,5.09321117401123,-1.32487607002258,112.21050262451172,112.11437225341797,7.53406238555908
435,1615110163,-97.63790130615234,-85.12444305419922,40.63727569580078,-0.09514480829239,3.41219329833984,-1.89415311813354,-31.92042922973633,64.28453063964844,8.82563877105713
436,1615126830,-93.22969055175781,-84.96382141113281,34.31501388549805,0.71433991193771,2.26479744911194,-2.35668301582336,-112.59899902343750,32.17310714721680,13.00235939025879
437,1615143497,-91.62845611572266,-84.78790283203125,30.90620994567871,1.32930076122284,-0.41019409894943,-3.13148784637451,-106.79624176025391,18.27105140686035,11.62165355682373
438,1615160164,-88.57137298583984,-84.70998382568359,27.24054145812988,2.18438172340393,-0.59464031457901,-2.44803214073181,-34.75949478149414,20.58960151672363,5.03183031082153
439,1615176831,-82.84154510498047,-84.67469024658203,21.63685989379883,1.74396586418152,1.18983364105225,-0.61327743530273,9.83701229095459,31.63979339599609,0.09600318223238
440,1615193498,-74.86121368408203,-84.51616668701172,14.11530971527100,0.33416625857353,-0.07214745879173,-1.21720802783966,30.35434532165527,43.99594497680664,1.41448187828064
441,1615210165,-66.29196929931641,-84.20262145996094,6.55565643310547,-0.35152706503868,0.57334899902344,-0.77908986806870,63.60630798339844,48.73832321166992,3.18980813026428
442,1615226832,-58.18476486206055,-83.75273895263672,-0.47898238897324,-0.16266351938248,1.99911785125732,0.67345607280731,67.50800323486328,52.19467544555664,3.53886294364929
443,1615243499,-50.02728271484375,-83.14445495605469,-7.73174095153809,-0.10895396769047,0.61193996667862,0.24458350241184,57.95436096191406,62.02995681762695,0.72203391790390
444,1615260166,-42.04191970825195,-82.40296936035156,-14.34904575347900,0.05016481503844,0.91296142339706,-0.84172278642654,86.07494354248047,67.23561096191406,-2.38168430328369
445,1615276833,-35.24426651000977,-81.64173126220703,-19.75801849365234,0.42704969644547,2.75658750534058,-0.80527532100677,87.30438232421875,64.21852874755859,-6.37128829956055
446,1615293500,-30.16604614257812,-80.90003204345703,-24.04265594482422,0.40930038690567,3.21664142608643,-0.94311004877090,51.43658828735352,58.96696472167969,-8.48003673553467
447,1615310167,-26.24709129333496,-80.25254821777344,-27.53578376770020,0.10403712093830,1.28727483749390,-1.60551464557648,29.22192573547363,50.90779495239258,-11.56416416168213
448,1615326834,-22.40654945373535,-79.77026367187500,-30.95251464843750,-0.28173285722733,0.78735888004303,-1.08529806137085,29.37507247924805,41.48576736450195,-20.15770149230957
449,1615343501,-19.19339942932129,-79.44710540771484,-34.09891891479492,-0.71405750513077,1.06163096427917,-1.25260984897614,7.94564771652222,30.68629264831543,-24.62173080444336
450,1615360168,-17.85813331604004,-79.40630340576172,-36.18404769897461,-0.99836283922195,-0.53308773040771,-2.37140655517578,-42.02317810058594,10.09584712982178,-20.66245841979980
451,1615376835,-17.73185348510742,-79.75366210937500,-37.32222366333008,-1.54971694946289,-2.51129674911499,-2.46948218345642,-58.74583435058594,-15.57969570159912,-17.79994964599609
452,1615393502,-18.35063743591309,-80.49034881591797,-37.68232727050781,-1.12846207618713,-3.24400091171265,-3.20110297203064,-57.57701492309570,-40.38391494750977,-16.88517379760742
453,1615410169,-20.20944404602051,-81.71971130371094,-36.57879638671875,-1.17522752285004,-2.63735604286194,-4.08433341979980,-45.28404235839844,-72.49243164062500,-14.35814189910889
454,1615426836,-25.26523780822754,-83.54444885253906,-33.08150100708008,-1.47796082496643,-1.24981975555420,-5.72176265716553,-94.40225219726562,-110.80411529541016,-17.13761520385742
455,1615443503,-41.70029449462891,-86.05792236328125,-18.80503845214844,3.66037058830261,-3.88487339019775,-24.60056304931641,-132.04112243652344,-166.97473144531250,-17.55993080139160
456,1615460170,-162.52664184570312,-82.75792694091797,107.23905181884766,11.20792388916016,8.52741432189941,-92.92717742919922,301.34304809570312,-603.43988037109375,-37.38245010375977
457,1615476837,171.95381164550781,-77.14911651611328,117.57675933837891,69.21369934082031,13.73355484008789,90.00083160400391,-917.98638916015625,-343.36425781250000,-80.11199188232422
458,1615493504,176.41047668457031,-70.87779235839844,119.12180328369141,91.23087310791016,-11.75156593322754,17.84291839599609,357.10528564453125,-371.37359619140625,-63.22039413452148
459,1615510171,176.52833557128906,-67.44179534912109,117.47187805175781,32.82345199584961,-18.52031898498535,2.88368082046509,-84.61427307128906,-207.45257568359375,22.80151748657227
460,1615526838,172.65711975097656,-64.58882904052734,116.15084075927734,7.49946832656860,16.45774078369141,-20.19396209716797,-303.80139160156250,-173.03131103515625,16.28190994262695
461,1615543505,176.42257690429688,-63.64525222778320,114.98143005371094,-33.60329818725586,-14.59486484527588,-29.14692497253418,163.63676452636719,-58.81225204467773,25.44028663635254
462,1615560172,176.77586364746094,-64.10203552246094,116.03826141357422,-6.32707071304321,8.82297706604004,-12.30753803253174,78.96746826171875,29.48190116882324,-25.92868804931641
463,1615576839,175.36343383789062,-65.68570709228516,117.74830627441406,17.31263160705566,-1.16257405281067,-9.07192707061768,9.01673221588135,98.23804473876953,-36.59445571899414
464,1615593506,174.67515563964844,-67.82625579833984,118.65100097656250,22.33972358703613,-0.42449155449867,-4.62990474700928,9.32265758514404,130.26084899902344,-9.82234668731689
465,1615610173,173.77604675292969,-69.97744750976562,118.95204925537109,14.29532432556152,-1.03610002994537,-6.11918497085571,-36.23846435546875,129.52947998046875,6.83651113510132
466,1615626840,173.38339233398438,-72.02753448486328,118.96580505371094,9.14469337463379,-0.36225110292435,-6.83965539932251,-21.92737579345703,122.71896362304688,13.80679702758789
467,1615643507,173.06417846679688,-74.12184906005859,118.88778686523438,6.25072813034058,1.54267668724060,-4.83572196960449,-22.77902030944824,125.07521820068359,16.49788093566895
468,1615660174,172.64172363281250,-76.22006988525391,118.49913787841797,6.81440734863281,0.96148496866226,-3.61002349853516,-47.03605651855469,124.62695312500000,21.90307617187500
469,1615676841,173.49572753906250,-78.16027832031250,117.02309417724609,7.79937934875488,1.89554464817047,-1.65437424182892,-34.27304840087891,113.63404846191406,33.85919952392578
470,1615693508,175.45820617675781,-80.01546478271484,114.76903533935547,7.39819192886353,2.92633461952209,-1.43396067619324,-14.21159458160400,108.75870513916016,36.51760482788086
471,1615710175,178.39746093750000,-81.92591094970703,111.83366394042969,8.14298629760742,1.25464093685150,-1.99752604961395,3.25458145141602,113.38444519042969,34.06598281860352
472,1615726842,-176.37121582031250,-83.83146667480469,107.27523040771484,9.80659484863281,-1.72487246990204,-0.39542365074158,43.31585693359375,115.24082183837891,32.20738220214844
473,1615743509,-167.15458679199219,-85.68539428710938,98.75757598876953,10.71957969665527,-2.46924829483032,2.62563896179199,44.85621643066406,116.88173675537109,30.63116836547852
474,1615760176,-150.83699035644531,-87.17957305908203,82.83891296386719,9.82670211791992,0.01860019564629,1.83892345428467,26.52555656433105,104.50053405761719,23.91598320007324
475,1615776843,-121.70977783203125,-88.07157135009766,53.34897994995117,9.37258720397949,0.06412368267775,2.50561952590942,-19.69960594177246,87.99548339843750,17.23315238952637
476,1615793510,-86.33444976806641,-88.06326293945312,18.01231765747070,8.41288661956787,-1.04378819465637,1.53069293498993,3.96829128265381,68.94212341308594,17.91907501220703
477,1615810177,-64.91600036621094,-87.60845184326172,-2.87772345542908,8.30521774291992,-0.24639114737511,1.56988453865051,33.35401153564453,52.87404251098633,14.51174449920654
478,1615826844,-54.06941986083984,-87.13556671142578,-13.28733158111572,9.04672718048096,0.00148753775284,1.97051155567169,27.77406883239746,39.46129608154297,10.03744506835938
479,1615843511,-47.82186508178711,-86.76009368896484,-19.11558151245117,9.67940330505371,-1.12341582775116,1.89426529407501,26.51604652404785,29.09536361694336,6.02255916595459
480,1615860178,-44.73706436157227,-86.55269622802734,-21.67771148681641,9.35274887084961,-0.57841747999191,2.49812126159668,32.48390960693359,15.53900814056396,3.09928512573242
481,1615876845,-43.24819564819336,-86.49641418457031,-23.03130340576172,9.37762928009033,0.45225465297699,2.52460908889771,9.11159992218018,6.31046628952026,-0.88308781385422
482,1615893512,-43.24182510375977,-86.53389739990234,-23.33584976196289,9.43191242218018,-0.55843961238861,1.42517578601837,-17.02731323242188,-0.40690934658051,-2.01999878883362
483,1615910179,-44.73532867431641,-86.64550018310547,-21.85157585144043,9.56037807464600,-0.81931561231613,0.75411123037338,0.11518672853708,-8.03023529052734,-0.50004965066910
484,1615926846,-47.60694503784180,-86.80390167236328,-18.73781204223633,9.75789260864258,-0.34882006049156,1.13438344001770,15.05638408660889,-13.82118988037109,0.88018155097961
485,1615943513,-51.31010437011719,-86.98656463623047,-14.87209510803223,9.45380020141602,0.06833729147911,0.76423037052155,10.23965549468994,-16.20566177368164,0.19443263113499
486,1615960180,-55.92610168457031,-87.17894744873047,-10.22558212280273,9.32176780700684,-0.33752566576004,0.17421448230743,2.29812121391296,-17.80875968933105,-0.51014143228531
487,1615976847,-61.25655364990234,-87.36032867431641,-4.91094732284546,9.68591403961182,-0.27520287036896,-0.08961549401283,-0.46315491199493,-18.18904304504395,-1.01626169681549
488,1615993514,-66.44136810302734,-87.51351928710938,0.19337303936481,10.09967803955078,-0.29021474719048,0.00962095335126,-4.30917406082153,-15.89443778991699,-1.84179806709290
489,1616010181,-71.31025695800781,-87.63140106201172,5.02275991439819,9.91170406341553,-0.36822134256363,-0.39142230153084,-1.79102015495300,-13.55589962005615,-1.81206095218658
490,1616026848,-75.86945343017578,-87.71543884277344,9.58344459533691,9.77032566070557,-0.09615838527679,-0.25776511430740,0.73111486434937,-11.64816761016846,-1.35883760452271
491,1616043515,-80.34805297851562,-87.78150177001953,14.01449871063232,9.71358203887939,-0.31854313611984,-0.33205512166023,-2.21768927574158,-10.60149765014648,-1.35747361183167
492,1616060182,-84.85742950439453,-87.83183288574219,18.51022529602051,9.78056812286377,-0.43267074227333,-0.31392529606819,-0.14556981623173,-10.20067024230957,-1.33562576770782
493,1616076849,-88.98511505126953,-87.87220001220703,22.58896636962891,9.90087032318115,-0.35440540313721,-0.20697620511055,-2.23808932304382,-8.86195755004883,-1.60006403923035
494,1616093516,-92.70060729980469,-87.90417480468750,26.23107528686523,9.90246677398682,-0.39696553349495,-0.03843532130122,-3.71081995964050,-7.59242534637451,-1.68256282806396
495,1616110183,-95.64309692382812,-87.93303680419922,29.06118392944336,9.98005199432373,-0.48809140920639,-0.47861483693123,-5.96658802032471,-5.58481788635254,-1.88453805446625
496,1616126850,-97.89015960693359,-87.93560028076172,31.40234184265137,9.90116119384766,-0.56382906436920,-0.56301653385162,6.41373491287231,-4.56802606582642,-0.42873105406761
497,1616143517,-99.37909698486328,-87.92831420898438,33.05282211303711,9.83284759521484,-0.22263722121716,-0.52901881933212,10.47121143341064,-3.15257859230042,0.22687098383904
498,1616160184,-100.09761810302734,-87.91418457031250,33.96068572998047,9.86466312408447,-0.24748410284519,-0.27566751837730,12.17965793609619,-1.63268220424652,0.79894369840622
499,1616176851,-99.78298950195312,-87.90631866455078,33.70490264892578,9.79817295074463,-0.23452740907669,-0.24370966851711,4.36862468719482,0.92678934335709,0.92303699254990
500,1616193518,-99.35563659667969,-87.90053558349609,33.33980178833008,9.78555393218994,-0.32795190811157,-0.11327921599150,4.58975076675415,1.19627320766449,0.80208098888397
501,1616210185,-98.55798339843750,-87.90295410156250,32.57204055786133,9.85259628295898,-0.32696855068207,-0.06507907807827,2.66430330276489,2.15804266929626,0.43662610650063
502,1616226852,-97.59999084472656,-87.90940856933594,31.69778060913086,9.87759017944336,-0.45444607734680,-0.21192015707493,5.88325738906860,2.41917753219604,0.21488417685032
503,1616243519,-96.60702514648438,-87.91587829589844,30.87948036193848,9.85888385772705,-0.38965141773224,-0.22198018431664,11.36213874816895,2.29233121871948,0.14579395949841
504,1616260186,-95.85202026367188,-87.92519378662109,30.34371948242188,9.77165508270264,-0.32466799020767,-0.11078429222107,13.98758506774902,1.67962408065796,-0.05700109899044
505,1616276853,-95.16102600097656,-87.93777465820312,29.81134796142578,9.80815124511719,-0.37900304794312,-0.01833820901811,10.36327934265137,1.68361937999725,-0.29811912775040
506,1616293520,-94.02677154541016,-87.95053863525391,28.86110115051270,9.90393829345703,-0.55701112747192,-0.21834561228752,11.91610527038574,2.57021689414978,-0.28681120276451
507,1616310187,-92.46041870117188,-87.95780181884766,27.56743431091309,9.86629390716553,-0.29122897982597,-0.12567916512489,17.24857711791992,3.26471996307373,0.03058799915016
508,1616326854,-90.77239227294922,-87.95761108398438,26.11851692199707,9.76760387420654,-0.15425081551075,-0.04576301202178,15.22461795806885,3.57146978378296,0.42697051167488
509,1616343521,-89.41960906982422,-87.95838165283203,24.98326492309570,9.71541881561279,-0.18563526868820,0.19466033577919,13.92647457122803,2.89830303192139,0.28352639079094
510,1616360188,-88.57220458984375,-87.96760559082031,24.31762886047363,9.69526863098145,-0.13231122493744,0.19080239534378,11.77255821228027,1.87700855731964,-0.25815051794052
511,1616376855,-88.33032989501953,-87.97977447509766,24.16668701171875,9.66712951660156,-0.06053470447659,0.21708172559738,6.29989910125732,0.76252222061157,-0.41269752383232
512,1616393522,-88.66773986816406,-87.99328613281250,24.52714347839355,9.75539398193359,-0.31497487425804,0.10496766120195,2.22535300254822,-0.32339873909950,-0.47935453057289
513,1616410189,-89.64056396484375,-88.00375366210938,25.56665992736816,9.74738693237305,-0.21331548690796,0.15268670022488,4.80652475357056,-1.73596501350403,-0.25830411911011
514,1616426856,-91.02855682373047,-88.00983428955078,26.98707580566406,9.73261642456055,-0.09259074181318,0.09106531739235,2.75018310546875,-2.51421976089478,-0.07887431979179
515,1616443523,-92.80976104736328,-88.00943756103516,28.77296066284180,9.75781917572021,-0.20497502386570,0.03654391691089,1.06197297573090,-3.27761888504028,0.24532485008240
516,1616460190,-94.56640625000000,-88.00355529785156,30.54575347900391,9.84485149383545,-0.37338382005692,-0.09478749334812,1.76096916198730,-3.27179169654846,0.44474530220032
517,1616476857,-96.07160186767578,-87.99660491943359,32.07718276977539,9.89383888244629,-0.28405928611755,-0.08651838451624,2.37121725082397,-2.78339600563049,0.42785373330116
518,1616493524,-97.43647766113281,-87.98598480224609,33.47958755493164,9.81478404998779,-0.38197079300880,-0.20316080749035,3.05918788909912,-2.55628871917725,0.59921562671661
519,1616510191,-98.68158721923828,-87.97609710693359,34.75158309936523,9.73983955383301,-0.24570588767529,-0.11792463809252,2.42860245704651,-2.29438543319702,0.52352994680405
520,1616526858,-99.68408966064453,-87.97319793701172,35.74118804931641,9.78895664215088,-0.13739553093910,-0.06759396940470,0.01525876484811,-1.65108430385590,0.18280424177647
521,1616543525,-100.46964263916016,-87.97126770019531,36.49958038330078,9.79040241241455,-0.34987866878510,-0.18920406699181,-0.80580115318298,-1.14865279197693,0.13644526898861
522,1616560192,-101.14334106445312,-87.96750640869141,37.17594146728516,9.81376075744629,-0.23744428157806,-0.14669151604176,0.98696619272232,-1.00116205215454,0.27525329589844
523,1616576859,-101.42135620117188,-87.97560882568359,37.42201232910156,9.88166809082031,-0.16529326140881,-0.02474831603467,-1.08997392654419,0.03509579971433,-0.23157724738121
524,1616593526,-101.44565582275391,-87.99377441406250,37.36125183105469,9.81655597686768,-0.35345602035522,-0.24797907471657,-4.26462984085083,0.80105644464493,-0.70840889215469
525,1616610193,-101.51828765869141,-88.00521850585938,37.41029357910156,9.79965305328369,-0.37043759226799,-0.20027908682823,-0.56839066743851,0.49728339910507,-0.37236386537552
526,1616626860,-101.62793731689453,-88.01673126220703,37.50529861450195,9.75851058959961,-0.25756567716599,-0.12317883223295,-0.04235059767962,0.40539139509201,-0.40100520849228
527,1616643527,-101.80768585205078,-88.02603149414062,37.65759658813477,9.79408264160156,-0.18400435149670,-0.01549518201500,-0.81675052642822,0.25856661796570,-0.26121112704277
528,1616660194,-102.14228057861328,-88.03119659423828,37.99346542358398,9.78474712371826,-0.40287119150162,-0.13010355830193,0.91457182168961,-0.15552030503750,-0.12922887504101
529,1616676861,-102.76705169677734,-88.02821350097656,38.64377212524414,9.78291797637939,-0.22358167171478,0.02017153613269,2.35257148742676,-0.89485645294189,0.21041472256184
530,1616693528,-103.51120758056641,-88.02840423583984,39.36460113525391,9.78567695617676,-0.15022493898869,-0.00398481311277,-0.57636255025864,-0.99017411470413,-0.03779153898358
531,1616710195,-104.50936889648438,-88.03139495849609,40.27399063110352,9.76076793670654,-0.19539858400822,-0.07710862159729,-4.51399612426758,-1.33180952072144,-0.27915287017822
532,1616726862,-105.85448455810547,-88.03148651123047,41.57181549072266,9.72638702392578,-0.41311055421829,-0.19909058511257,-2.02294230461121,-2.13043880462646,-0.38889044523239
533,1616743529,-107.33206939697266,-88.03079223632812,43.01621246337891,9.75930881500244,-0.27115267515182,-0.12325774878263,-1.17625033855438,-2.40733766555786,-0.52585428953171
534,1616760196,-108.82304382324219,-88.03139495849609,44.46855545043945,9.86851882934570,-0.24063159525394,-0.15201993286610,-1.52012670040131,-2.38815379142761,-0.64074009656906
535,1616776863,-110.24558258056641,-88.03417205810547,45.85527420043945,9.80697631835938,-0.31962460279465,-0.20031863451004,-1.34635710716248,-2.18654322624207,-0.79512065649033
536,1616793530,-111.81726074218750,-88.03159332275391,47.42203903198242,9.75570583343506,-0.25807508826256,-0.17570281028748,0.51156890392303,-2.62701773643494,-0.67904388904572
537,1616810197,-113.45462799072266,-88.03139495849609,49.02977752685547,9.74581241607666,-0.16681085526943,-0.16834859549999,-0.98377102613449,-2.61891126632690,-0.94126665592194
538,1616826864,-114.97115325927734,-88.03298187255859,50.46987533569336,9.86077880859375,-0.21585324406624,-0.15388542413712,-3.76728272438049,-2.19472670555115,-1.03331887722015
539,1616843531,-116.23484802246094,-88.03706359863281,51.65696716308594,9.82350635528564,-0.31996047496796,-0.29481652379036,-3.78391790390015,-1.65195524692535,-0.94300848245621
540,1616860198,-117.41991424560547,-88.04035949707031,52.81108856201172,9.80161380767822,-0.23673228919506,-0.24485045671463,-1.05307900905609,-1.58961379528046,-0.89825022220612
541,1616876865,-118.47631072998047,-88.04425048828125,53.83215332031250,9.82727432250977,-0.24044334888458,-0.20713827013969,-1.30538952350616,-1.28810095787048,-0.86585009098053
542,1616893532,-119.44928741455078,-88.04685974121094,54.77907562255859,9.83738613128662,-0.22746492922306,-0.29374358057976,-0.75214254856110,-1.16805434226990,-0.75274443626404
543,1616910199,-120.56784057617188,-88.03636169433594,55.92544555664062,9.73865890502930,-0.29976668953896,-0.24585689604282,2.48451519012451,-1.89933562278748,-0.30892762541771
544,1616926866,-121.88918304443359,-88.02097320556641,57.27523803710938,9.71374702453613,-0.10452014207840,-0.09976849704981,2.50847554206848,-2.40752959251404,-0.34300523996353
545,1616943533,-123.45066833496094,-88.00296783447266,58.82382202148438,9.73297977447510,-0.20545342564583,-0.18567648530006,0.03446829319000,-2.82624602317810,-0.54526877403259
546,1616960200,-125.03205108642578,-87.98715209960938,60.38957595825195,9.86802291870117,-0.21100130677223,-0.20139804482460,-0.14883540570736,-2.81790900230408,-0.72683721780777
547,1616976867,-126.44230651855469,-87.97822570800781,61.74713897705078,9.83161735534668,-0.21292771399021,-0.34532821178436,-2.34885096549988,-2.19339489936829,-0.91664010286331
548,1616993534,-127.66233062744141,-87.96664428710938,62.94448471069336,9.79381561279297,-0.28182074427605,-0.36876526474953,-0.55999606847763,-2.00587129592896,-0.64426189661026
549,1617010201,-128.73539733886719,-87.94834136962891,64.04702758789062,9.73084640502930,-0.25748541951180,-0.40724381804466,2.58459019660950,-2.06884646415710,-0.28966039419174
550,1617026868,-129.74632263183594,-87.92311859130859,65.09161376953125,9.72664928436279,-0.18441323935986,-0.30734318494797,2.82940316200256,-2.25386643409729,0.06458882987499
551,1617043535,-130.82156372070312,-87.89810943603516,66.18377685546875,9.76218223571777,-0.16267578303814,-0.28278666734695,1.82725465297699,-2.34317779541016,-0.07805469632149
552,1617060202,-131.82887268066406,-87.87670898437500,67.19854736328125,9.83390617370605,-0.19010411202908,-0.30188962817192,1.24200475215912,-2.06385874748230,-0.21419902145863
553,1617076869,-132.72116088867188,-87.86302185058594,68.07630920410156,9.86049938201904,-0.23515199124813,-0.32358402013779,-0.05023931339383,-1.56003117561340,-0.37569990754128
554,1617093536,-133.52412414550781,-87.84960174560547,68.87617492675781,9.77056789398193,-0.25716611742973,-0.37689685821533,0.63055270910263,-1.39910662174225,-0.32453855872154
555,1617110203,-134.25366210937500,-87.82958221435547,69.62213134765625,9.72231101989746,-0.21494293212891,-0.39607614278793,1.80746912956238,-1.59293067455292,0.01687236502767
556,1617126870,-135.06082153320312,-87.80501556396484,70.45417785644531,9.73333168029785,-0.19920179247856,-0.31093120574951,2.29017877578735,-1.91526639461517,0.01787126064301
557,1617143537,-135.90705871582031,-87.77789306640625,71.33629608154297,9.78003025054932,-0.12968704104424,-0.30169007182121,2.96013641357422,-2.12606501579285,-0.00138948892709
558,1617160204,-136.80609130859375,-87.74831390380859,72.24971771240234,9.75612449645996,-0.18921014666557,-0.31839981675148,1.67042815685272,-2.30340099334717,-0.00589092075825
559,1617176871,-137.67120361328125,-87.72041320800781,73.10771179199219,9.80242919921875,-0.14640128612518,-0.32082298398018,0.36880370974541,-2.13650894165039,-0.05221148952842
560,1617193538,-138.44621276855469,-87.69845581054688,73.85144805908203,9.79310703277588,-0.19048583507538,-0.41394260525703,-1.05045366287231,-1.73670744895935,-0.10610059648752
561,1617210205,-139.06132507324219,-87.67131805419922,74.46582794189453,9.72601985931396,-0.28115794062614,-0.47483021020889,0.75646466016769,-1.72206974029541,0.25623583793640
562,1617226872,-139.55738830566406,-87.64084625244141,74.99128723144531,9.72042942047119,-0.17157162725925,-0.36020320653915,2.58526253700256,-1.77849447727203,0.54440426826477
563,1617243539,-140.06639099121094,-87.61353302001953,75.50930786132812,9.81328105926514,-0.15533581376076,-0.36349087953568,1.35440599918365,-1.60291969776154,0.38136672973633
564,1617260206,-140.48341369628906,-87.59141540527344,75.92976379394531,9.87190246582031,-0.22373104095459,-0.39943662285805,1.03226232528687,-1.24213922023773,0.36573013663292
565,1617276873,-140.69403076171875,-87.57602691650391,76.16540527343750,9.81838989257812,-0.19435606896877,-0.42596426606178,2.32578039169312,-0.63304346799850,0.45232665538788
566,1617293540,-140.75328063964844,-87.56096649169922,76.24202728271484,9.78152084350586,-0.15520671010017,-0.41587856411934,1.88510107994080,-0.36996260285378,0.75235384702682
567,1617310207,-140.74737548828125,-87.54744720458984,76.26380157470703,9.78227233886719,-0.16292847692966,-0.42031303048134,2.49908852577209,-0.19278676807880,0.78969717025757
568,1617326874,-140.70503234863281,-87.53486633300781,76.24657440185547,9.78138065338135,-0.19312751293182,-0.41509512066841,2.34382438659668,-0.08833820372820,0.83313632011414
569,1617343541,-140.65000915527344,-87.51848602294922,76.23186492919922,9.72282886505127,-0.25072908401489,-0.44323796033859,3.26851963996887,-0.28914177417755,0.99074405431747
570,1617360208,-140.60292053222656,-87.50628662109375,76.20706176757812,9.81667900085449,-0.14295324683189,-0.35613739490509,2.17251420021057,-0.05624549463391,0.83537745475769
571,1617376875,-140.51448059082031,-87.49736022949219,76.12753295898438,9.85565948486328,-0.24962317943573,-0.40353298187256,1.38649868965149,0.17510762810707,0.82993471622467
572,1617393542,-140.36819458007812,-87.49102783203125,75.99537658691406,9.76880264282227,-0.23060463368893,-0.42415526509285,1.69429922103882,0.37990677356720,0.84254890680313
573,1617410209,-140.24365234375000,-87.47780609130859,75.89287567138672,9.71323680877686,-0.13018605113029,-0.36389487981796,2.17113089561462,0.03537754341960,1.03452897071838
574,1617426876,-140.19371032714844,-87.46163940429688,75.84742736816406,9.76170921325684,-0.20851430296898,-0.41641148924828,1.10813343524933,-0.20731559395790,1.04024684429169
575,1617443543,-140.12403869628906,-87.44258117675781,75.79146575927734,9.77928638458252,-0.20622619986534,-0.40386894345284,1.66155970096588,-0.31429979205132,1.16843843460083
576,1617460210,-140.06719970703125,-87.42778015136719,75.74126434326172,9.81276321411133,-0.16854552924633,-0.38422623276711,1.25125086307526,-0.14029356837273,1.00542020797729
577,1617476877,-139.97451782226562,-87.41836547851562,75.62860870361328,9.78664302825928,-0.27264633774757,-0.39768749475479,-0.35354486107826,0.23093049228191,0.91882342100143
578,1617493544,-139.88615417480469,-87.40715789794922,75.54183959960938,9.75337409973145,-0.25800958275795,-0.43266391754150,0.93846845626831,0.10174003988504,0.93690615892410
579,1617510211,-139.81977844238281,-87.39533996582031,75.47718048095703,9.79722976684570,-0.16172929108143,-0.38352400064468,0.94169580936432,0.03610750660300,0.91651844978333
580,1617526878,-139.77404785156250,-87.38536071777344,75.41308593750000,9.79856967926025,-0.23796947300434,-0.42376211285591,-0.25225949287415,0.12093677371740,0.84613478183746
581,1617543545,-139.67695617675781,-87.37467956542969,75.32768249511719,9.78093338012695,-0.24986135959625,-0.41504326462746,1.54417061805725,0.12926089763641,0.91699230670929
582,1617560212,-139.59664916992188,-87.36270141601562,75.24643707275391,9.73323631286621,-0.19120191037655,-0.42183563113213,0.79262983798981,0.06503704935312,0.95793426036835
583,1617576879,-139.56393432617188,-87.35277557373047,75.19792175292969,9.77352428436279,-0.20984826982021,-0.43693026900291,-0.10821364820004,0.09059852361679,0.82168740034103
584,1617593546,-139.43667602539062,-87.34162902832031,75.06659698486328,9.75581932067871,-0.25138208270073,-0.44954946637154,0.59862637519836,0.20220585167408,1.02966248989105
585,1617610213,-139.33279418945312,-87.33493804931641,74.95588684082031,9.78681373596191,-0.24842777848244,-0.41611707210541,0.45317190885544,0.33528944849968,0.84010303020477
586,1617626880,-139.18089294433594,-87.32761383056641,74.80661010742188,9.81474685668945,-0.18545314669609,-0.41727033257484,0.99750578403473,0.40998888015747,0.92525231838226
587,1617643547,-138.99229431152344,-87.32306671142578,74.61073303222656,9.79021453857422,-0.25793009996414,-0.43429163098335,0.42488270998001,0.60961437225342,0.92663556337357
588,1617660214,-138.75938415527344,-87.32153320312500,74.37394714355469,9.80778312683105,-0.25530523061752,-0.45871400833130,0.61718285083771,0.83499324321747,0.88593691587448
589,1617676881,-138.45973205566406,-87.32153320312500,74.07646942138672,9.77083206176758,-0.27253803610802,-0.48393416404724,0.97992277145386,1.01830327510834,0.95092928409576
590,1617693548,-138.16033935546875,-87.32146453857422,73.78792572021484,9.74349880218506,-0.20547039806843,-0.44328320026398,1.52296280860901,0.98961693048477,0.94273293018341
591,1617710215,-137.88323974609375,-87.31824493408203,73.51666259765625,9.72425556182861,-0.19254890084267,-0.40020126104355,1.19919300079346,0.83952665328979,1.01384663581848
592,1617726882,-137.60121154785156,-87.31766510009766,73.21515655517578,9.78452014923096,-0.20812138915062,-0.43829202651978,-0.31247496604919,1.00051534175873,0.98533987998962
593,1617743549,-137.17697143554688,-87.31854248046875,72.77716827392578,9.82558441162109,-0.27868166565895,-0.44538396596909,0.04842721298337,1.33278906345367,1.20162618160248
594,1617760216,-136.67749023437500,-87.32379913330078,72.28968811035156,9.81763648986816,-0.29748150706291,-0.44661495089531,1.58687937259674,1.62590050697327,1.11529850959778
595,1617776883,-136.14987182617188,-87.32761383056641,71.78045654296875,9.72665786743164,-0.24702830612659,-0.41221687197685,1.97666656970978,1.60378408432007,1.21258854866028
596,1617793550,-135.69215393066406,-87.32943725585938,71.32530975341797,9.73593902587891,-0.18897326290607,-0.35109266638756,1.02710139751434,1.43214046955109,1.16473102569580
597,1617810217,-135.17321777343750,-87.33699798583984,70.77694702148438,9.81030750274658,-0.24646350741386,-0.44099414348602,-0.89248740673065,1.86325359344482,1.10314548015594
598,1617826884,-134.49555969238281,-87.34458160400391,70.11664581298828,9.75580596923828,-0.34110271930695,-0.50104773044586,1.92672193050385,2.06805276870728,1.32577097415924
599,1617843551,-133.78746032714844,-87.34406280517578,69.44960021972656,9.66089344024658,-0.19477370381355,-0.41531115770340,3.33342194557190,1.78969371318817,1.63197076320648
600,1617860218,-133.07162475585938,-87.34436035156250,68.74092102050781,9.80787181854248,-0.14987088739872,-0.34312990307808,1.31597411632538,1.89647328853607,1.68501484394073
601,1617876885,-132.33418273925781,-87.34878540039062,68.00004577636719,9.81107234954834,-0.35123741626740,-0.45544719696045,0.68289220333099,2.15719771385193,1.53484749794006
602,1617893552,-131.50416564941406,-87.35151672363281,67.20433807373047,9.77275562286377,-0.32360240817070,-0.38965088129044,2.93944835662842,2.22758173942566,1.67639636993408
603,1617910219,-130.70240783691406,-87.35699462890625,66.40832519531250,9.81332302093506,-0.15892709791660,-0.29971998929977,1.23037648200989,2.34374785423279,1.53477072715759
604,1617926886,-129.88862609863281,-87.36106872558594,65.57057189941406,9.80391597747803,-0.26923075318336,-0.34670624136925,-0.54637008905411,2.39342331886292,1.64201092720032
605,1617943553,-129.03941345214844,-87.36166381835938,64.74517059326172,9.77068901062012,-0.32406136393547,-0.35811898112297,2.31495904922485,2.25040221214294,1.75464296340942
606,1617960220,-128.21269226074219,-87.35810852050781,63.94645690917969,9.74331855773926,-0.24604922533035,-0.33232238888741,2.56646299362183,2.05327415466309,1.88225817680359
607,1617976887,-127.43623352050781,-87.35676574707031,63.16707229614258,9.80552959442139,-0.32054358720779,-0.34866589307785,0.71045142412186,2.12194180488586,1.71669757366180
608,1617993554,-126.70499420166016,-87.35373687744141,62.44819641113281,9.78184413909912,-0.41005226969719,-0.37758511304855,1.62714290618896,1.95337176322937,1.66563880443573
609,1618010221,-126.04013061523438,-87.35129547119141,61.79598617553711,9.74543190002441,-0.23912416398525,-0.33124858140945,1.63286733627319,1.83198058605194,1.52467930316925
610,1618026888,-125.43332672119141,-87.34915161132812,61.18196105957031,9.76180839538574,-0.27523487806320,-0.27133014798164,0.44985508918762,1.76908850669861,1.43571341037750
611,1618043555,-124.79585266113281,-87.35440826416016,60.52759170532227,9.88929843902588,-0.28175029158592,-0.28041276335716,-0.14218892157078,2.13080382347107,1.11874353885651
612,1618060222,-124.11224365234375,-87.36715698242188,59.85208892822266,9.84959030151367,-0.40843796730042,-0.35124829411507,1.36243546009064,2.44489216804504,0.74906265735626
613,1618076889,-123.48016357421875,-87.37788391113281,59.23725509643555,9.75974845886230,-0.35279855132103,-0.32296431064606,1.91450464725494,2.22247171401978,0.74783319234848
614,1618093556,-122.93992614746094,-87.38828277587891,58.69413757324219,9.74675559997559,-0.26472836732864,-0.26975667476654,0.69933557510376,2.04843330383301,0.62838840484619
615,1618110223,-122.44865417480469,-87.39781951904297,58.19932556152344,9.76192951202393,-0.34346258640289,-0.30238455533981,0.65596050024033,1.91259646415710,0.57764965295792
616,1618126890,-121.93797302246094,-87.40489959716797,57.70546340942383,9.78544521331787,-0.30246743559837,-0.33148649334908,1.88288557529449,1.82178676128387,0.69815737009048
617,1618143557,-121.41677856445312,-87.41048431396484,57.21317291259766,9.77308750152588,-0.26917746663094,-0.25644624233246,2.60312747955322,1.79009068012238,0.73071116209030
618,1618160224,-120.82499694824219,-87.42306518554688,56.62564849853516,9.83443641662598,-0.29320129752159,-0.28573283553123,1.12211143970490,2.20286488533020,0.52898538112640
619,1618176891,-120.12572479248047,-87.43906402587891,55.93566513061523,9.83731079101562,-0.36555507779121,-0.31283566355705,1.44093847274780,2.55908656120300,0.43794515728951
620,1618193558,-119.36183166503906,-87.45778656005859,55.19387817382812,9.79042053222656,-0.35922667384148,-0.33076831698418,2.20581078529358,2.74301123619080,0.34611082077026
621,1618210225,-118.67360687255859,-87.47485351562500,54.52847671508789,9.72945117950439,-0.26653143763542,-0.25036668777466,2.24869894981384,2.49902439117432,0.30743563175201
622,1618226892,-118.07610321044922,-87.49118804931641,53.94078826904297,9.72588157653809,-0.30687582492828,-0.27380928397179,1.45581948757172,2.29516029357910,0.20791748166084
623,1618243559,-117.53656005859375,-87.50628662109375,53.39394378662109,9.78996753692627,-0.27672269940376,-0.24802991747856,0.43765062093735,2.15334320068359,0.20237234234810
624,1618260226,-116.99055480957031,-87.52030181884766,52.84768676757812,9.78303432464600,-0.33565282821655,-0.29585522413254,0.84659582376480,2.12547636032104,0.22213254868984
625,1618276893,-116.47917938232422,-87.53216552734375,52.34146499633789,9.76768779754639,-0.31109207868576,-0.27998828887939,1.17069256305695,1.95468449592590,0.29211282730103
626,1618293560,-115.97544097900391,-87.54322052001953,51.84747695922852,9.80513000488281,-0.29245463013649,-0.25268897414207,1.45787489414215,1.90625095367432,0.29206162691116
627,1618310227,-115.40206909179688,-87.55687713623047,51.27577972412109,9.79689598083496,-0.32102853059769,-0.24321739375591,0.97219407558441,2.13749504089355,0.24084904789925
628,1618326894,-114.73925781250000,-87.57222747802734,50.62255859375000,9.82716178894043,-0.32423156499863,-0.26798346638680,1.44020211696625,2.36453866958618,0.20815439522266
629,1618343561,-114.03000640869141,-87.58427429199219,49.93351745605469,9.78481292724609,-0.29943215847015,-0.25722634792328,2.09394693374634,2.36524939537048,0.37787050008774
630,1618360228,-113.32855224609375,-87.59677886962891,49.24322509765625,9.74273395538330,-0.25797277688980,-0.17612697184086,1.54086625576019,2.35933279991150,0.35681691765785
631,1618376895,-112.60304260253906,-87.60984802246094,48.51193618774414,9.76037788391113,-0.29785618185997,-0.23220442235470,0.52536129951477,2.46081066131592,0.33604502677917
632,1618393562,-111.82239532470703,-87.62200164794922,47.72190475463867,9.82243728637695,-0.30499804019928,-0.26930144429207,0.31397962570190,2.57618284225464,0.39113789796829
633,1618410229,-110.98812866210938,-87.63354492187500,46.89183044433594,9.77621936798096,-0.34323921799660,-0.25895461440086,1.12914228439331,2.63496398925781,0.45762854814529
634,1618426896,-110.14823913574219,-87.64340972900391,46.05893707275391,9.75725173950195,-0.29194131493568,-0.21476192772388,1.30024802684784,2.61425590515137,0.48365104198456
635,1618443563,-109.33828735351562,-87.65414428710938,45.25204086303711,9.78675270080566,-0.29924374818802,-0.18447802960873,1.05937337875366,2.54994297027588,0.41612318158150
636,1618460230,-108.52409362792969,-87.66568756103516,44.42777633666992,9.78161716461182,-0.31508627533913,-0.18628396093845,0.26600709557533,2.60398530960083,0.33604499697685
637,1618476897,-107.79703521728516,-87.67644500732422,43.69445800781250,9.77536296844482,-0.33172273635864,-0.15660208463669,0.49757149815559,2.37153744697571,0.27118086814880
638,1618493564,-107.17884063720703,-87.68539428710938,43.07176589965820,9.74446296691895,-0.28874692320824,-0.16533336043358,0.59441316127777,2.06358337402344,0.29876574873924
639,1618510231,-106.74330902099609,-87.68911743164062,42.63512039184570,9.76783370971680,-0.28575417399406,-0.10801389813423,0.79380798339844,1.54741048812866,0.41782638430595
640,1618526898,-106.44430541992188,-87.69251251220703,42.32851409912109,9.77199840545654,-0.28447380661964,-0.11700873076916,0.40213859081268,1.23415422439575,0.34742987155914
641,1618543565,-106.29715728759766,-87.69149780273438,42.17377471923828,9.77241134643555,-0.29699659347534,-0.13585837185383,0.38310831785202,0.80290055274963,0.50820076465607
642,1618560232,-106.23696136474609,-87.68852996826172,42.10581207275391,9.78751182556152,-0.24970468878746,-0.12396758794785,0.38641244173050,0.57306498289108,0.54412263631821
643,1618576899,-106.28398132324219,-87.68201446533203,42.13066482543945,9.78314781188965,-0.31155535578728,-0.12433815002441,-0.49616923928261,0.29250344634056,0.70239633321762
644,1618593566,-106.40174865722656,-87.67089843750000,42.26651000976562,9.79115104675293,-0.34599795937538,-0.18420913815498,1.92016470432281,-0.04256830736995,0.88218456506729
645,1618610233,-106.48289489746094,-87.65966796875000,42.35063171386719,9.78998661041260,-0.21907263994217,-0.16545136272907,1.01677942276001,0.07882948964834,0.90923160314560
646,1618626900,-106.60675048828125,-87.65031433105469,42.44817352294922,9.78975582122803,-0.31574884057045,-0.20166702568531,-0.73874711990356,0.07599928975105,0.79616445302963
647,1618643567,-106.68479919433594,-87.64548492431641,42.49314498901367,9.78810405731201,-0.36186981201172,-0.21064656972885,-1.14550244808197,0.27493312954903,0.57762402296066
648,1618660234,-106.72689056396484,-87.64233398437500,42.50564956665039,9.78273963928223,-0.33090534806252,-0.21358105540276,-0.93424874544144,0.37716621160507,0.51557719707489
649,1618676901,-106.64925384521484,-87.64216613769531,42.38847732543945,9.78668785095215,-0.30724203586578,-0.24186548590660,-1.52629911899567,0.74046951532364,0.42106637358665
650,1618693568,-106.45525360107422,-87.64051055908203,42.15155792236328,9.80189514160156,-0.30816739797592,-0.20267257094383,-1.71268272399902,1.00809645652771,0.56708431243896
651,1618710235,-106.13670349121094,-87.63901519775391,41.81232070922852,9.77349758148193,-0.31297931075096,-0.21739089488983,-0.38855746388435,1.24410486221313,0.66099333763123
652,1618726902,-105.77652740478516,-87.63751983642578,41.43911361694336,9.78389644622803,-0.30331805348396,-0.19215863943100,0.07410394400358,1.33090639114380,0.66778069734573
653,1618743569,-105.48857116699219,-87.63702392578125,41.11397171020508,9.76205635070801,-0.30910795927048,-0.18345086276531,-1.37284064292908,1.23394930362701,0.57551097869873
654,1618760236,-105.22574615478516,-87.63727569580078,40.81785583496094,9.79211330413818,-0.35079890489578,-0.16643415391445,-1.14350450038910,1.17646169662476,0.51664012670517
655,1618776903,-104.91568756103516,-87.63735961914062,40.48984909057617,9.80264568328857,-0.31831991672516,-0.15934769809246,-0.22609609365463,1.24900972843170,0.55550748109818
656,1618793570,-104.58643341064453,-87.63818359375000,40.12441635131836,9.77304840087891,-0.31357258558273,-0.20587736368179,-1.30147075653076,1.36184632778168,0.49014377593994
657,1618810237,-104.23168945312500,-87.64109039306641,39.74056243896484,9.81377124786377,-0.31788206100464,-0.17585904896259,-0.89734095335007,1.42632651329041,0.41790324449539
658,1618826904,-103.76999664306641,-87.64631652832031,39.24127960205078,9.80915641784668,-0.33859097957611,-0.19581122696400,-1.38536548614502,1.74483323097229,0.30874192714691
659,1618843571,-103.26036834716797,-87.65239715576172,38.69405746459961,9.79223728179932,-0.32314714789391,-0.19197434186935,-1.38960433006287,1.86075639724731,0.30984324216843
660,1618860238,-102.75292968750000,-87.65607452392578,38.15325927734375,9.76007747650146,-0.33999198675156,-0.18250527977943,-1.13891983032227,1.81561374664307,0.40938699245453
661,1618876905,-102.16637420654297,-87.66201019287109,37.53668975830078,9.78988265991211,-0.31489476561546,-0.18232853710651,-0.94613319635391,2.02005457878113,0.32755446434021
662,1618893572,-101.39486694335938,-87.66854858398438,36.73621368408203,9.80924701690674,-0.35728347301483,-0.20926597714424,-0.85842239856720,2.46294927597046,0.36830419301987
663,1618910239,-100.53288269042969,-87.67560577392578,35.85787963867188,9.79376697540283,-0.35561355948448,-0.22281424701214,-0.09796858578920,2.65537762641907,0.32336676120758
664,1618926906,-99.53973388671875,-87.68404388427734,34.85737991333008,9.79365825653076,-0.35234776139259,-0.19890296459198,0.43475633859634,2.95489215850830,0.26211398839951
665,1618943573,-98.48023986816406,-87.69335937500000,33.79312133789062,9.78566837310791,-0.31637629866600,-0.15569941699505,0.59539920091629,3.10343337059021,0.19972141087055
666,1618960240,-97.32811737060547,-87.70271301269531,32.62976455688477,9.78549098968506,-0.31935632228851,-0.14400482177734,0.21832907199860,3.33091211318970,0.16172499954700
667,1618976907,-96.13614654541016,-87.71107482910156,31.44083595275879,9.76449298858643,-0.35309922695160,-0.15698963403702,1.07065558433533,3.36849880218506,0.18055030703545
668,1618993574,-95.03889465332031,-87.71792602539062,30.36045455932617,9.77513408660889,-0.33117619156837,-0.12326672673225,1.90148687362671,3.08969831466675,0.16477932035923
669,1619010241,-93.98618316650391,-87.72342681884766,29.31299591064453,9.76867294311523,-0.29452338814735,-0.07571759819984,1.25589942932129,2.99033999443054,0.20367856323719
670,1619026908,-92.99828338623047,-87.72910308837891,28.31496810913086,9.78355312347412,-0.29789829254150,-0.04337782412767,0.29031354188919,2.86579847335815,0.14219529926777
671,1619043575,-92.06276702880859,-87.73307037353516,27.38038253784180,9.77903842926025,-0.36700710654259,-0.08520586788654,0.94347578287125,2.70391345024109,0.18434101343155
