sep=,
DeviceTag:,Xsens_DOT_2
FirmwareVersion:,3.0.0
AppVersion:,2023.6.0
StartTime: ,2025-04-09_10:49:13_000 CEST
© Movella Technologies B. V. 2005-2025

PacketCounter,SampleTimeFine,Euler_X,Euler_Y,Euler_Z,Acc_X,Acc_Y,Acc_Z,Gyr_X,Gyr_Y,Gyr_Z
0,1607843351,36.77572631835938,-86.67139434814453,13.27218151092529,0.00000000000000,0.00000000000000,0.00000000000000,0.00000000000000,0.00000000000000,0.00000000000000
1,1607860018,36.78080368041992,-86.66587066650391,13.27164745330811,9.82325458526611,0.21454896032810,0.53577101230621,0.82038104534149,-0.70180070400238,0.46290472149849
2,1607876685,36.77362060546875,-86.65245056152344,13.28327560424805,9.85413742065430,0.20524936914444,0.61522656679153,0.79139393568039,-0.30737158656120,0.21947522461414
3,1607893352,36.82106018066406,-86.64421844482422,13.25047397613525,9.83277130126953,0.22208420932293,0.59636658430099,0.89114260673523,-0.66410529613495,0.24613803625107
4,1607910019,36.73494720458984,-86.64024353027344,13.33260154724121,9.85792446136475,0.24333052337170,0.52163702249527,0.46179053187370,-0.61256611347198,0.77389407157898
5,1607926686,36.64530563354492,-86.63343811035156,13.42189693450928,9.82330989837646,0.20753061771393,0.53872269392014,0.46687471866608,-0.46415334939957,0.67488825321198
6,1607943353,36.55593872070312,-86.62512969970703,13.51437091827393,9.78477954864502,0.20933598279953,0.53074359893799,0.54898262023926,-0.38680937886238,0.62308013439178
7,1607960020,36.48873901367188,-86.61927795410156,13.58439350128174,9.77025508880615,0.24471139907837,0.55187922716141,0.69642204046249,-0.54936033487320,0.66093569993973
8,1607976687,36.49768829345703,-86.62501525878906,13.57601356506348,9.74156951904297,0.23111411929131,0.55853188037872,0.55762040615082,-1.27164471149445,0.85033518075943
9,1607993354,36.55713653564453,-86.62832641601562,13.51749324798584,9.75973033905029,0.22408890724182,0.55615830421448,0.67577189207077,-1.25403618812561,0.62494349479675
10,1608010021,36.62024688720703,-86.62896728515625,13.44589710235596,9.78615379333496,0.19172812998295,0.52235794067383,0.35566434264183,-1.14137864112854,0.50525528192520
11,1608026688,36.70735931396484,-86.63280487060547,13.34925365447998,9.81518745422363,0.19848711788654,0.53847557306290,0.05702026933432,-1.36313343048096,0.54110026359558
12,1608043355,36.80570602416992,-86.63908386230469,13.24564170837402,9.84564304351807,0.20493228733540,0.52977716922760,0.25669687986374,-1.49777948856354,0.60604125261307
13,1608060022,36.89517593383789,-86.64212036132812,13.15703773498535,9.83503532409668,0.19442014396191,0.55920433998108,0.59756982326508,-1.30777800083160,0.52764725685120
14,1608076689,37.04265975952148,-86.64625549316406,13.01349735260010,9.81317329406738,0.20088651776314,0.53091478347778,1.10013568401337,-1.46867048740387,0.43913611769676
15,1608093356,37.18775939941406,-86.64526367187500,12.86645698547363,9.81624507904053,0.22838912904263,0.53115206956863,0.85123813152313,-1.22931361198425,0.25146549940109
16,1608110023,37.31027603149414,-86.64619445800781,12.73895740509033,9.81729888916016,0.23372058570385,0.55746382474899,0.24394816160202,-1.29475402832031,0.34963899850845
17,1608126690,37.38945388793945,-86.64859008789062,12.65077400207520,9.81149291992188,0.20458015799522,0.53626394271851,-0.11194670945406,-1.27176666259766,0.49431231617928
18,1608143357,37.44168472290039,-86.64801025390625,12.59006309509277,9.80351066589355,0.18970702588558,0.57296699285507,-0.04163344204426,-1.08984589576721,0.48062866926193
19,1608160024,37.51743316650391,-86.64567565917969,12.51188659667969,9.82468318939209,0.23538203537464,0.54718059301376,0.28634357452393,-1.03215336799622,0.35560029745102
20,1608176691,37.61686706542969,-86.64071655273438,12.40354633331299,9.84685611724854,0.23968523740768,0.53910750150681,0.36479523777962,-0.96048897504807,0.20842972397804
21,1608193358,37.72821807861328,-86.63745117187500,12.29094505310059,9.79280090332031,0.21592627465725,0.56980574131012,0.06519713252783,-1.07684111595154,0.21150968968868
22,1608210025,37.83045196533203,-86.63972473144531,12.17875194549561,9.81433773040771,0.22598969936371,0.55349034070969,-0.05057867988944,-1.32423424720764,0.43879675865173
23,1608226692,37.84382629394531,-86.63954925537109,12.15593147277832,9.82637119293213,0.22242149710655,0.56597197055817,-0.02901918627322,-1.01775908470154,0.59828060865402
24,1608243359,37.89699935913086,-86.63990020751953,12.09721279144287,9.82640838623047,0.20641839504242,0.56982499361038,0.20093160867691,-1.12610709667206,0.52322900295258
25,1608260026,38.01087570190430,-86.64129638671875,11.98311519622803,9.78771686553955,0.21261869370937,0.57389706373215,0.52973467111588,-1.28844034671783,0.40361773967743
26,1608276693,38.15145492553711,-86.64421844482422,11.84298324584961,9.79925346374512,0.26216387748718,0.56220859289169,0.57818114757538,-1.41736197471619,0.38927459716797
27,1608293360,38.31759262084961,-86.65005493164062,11.67608165740967,9.83213710784912,0.25228944420815,0.54941600561142,0.50696504116058,-1.60729300975800,0.42022758722305
28,1608310027,38.45763778686523,-86.65485382080078,11.53787994384766,9.82458496093750,0.23564009368420,0.53923636674881,0.45161595940590,-1.51744365692139,0.46192505955696
29,1608326694,38.60866165161133,-86.65965270996094,11.38948249816895,9.83166503906250,0.22648757696152,0.54119628667831,0.54307883977890,-1.53493702411652,0.43651720881462
30,1608343361,38.70304870605469,-86.66316986083984,11.29564189910889,9.83053588867188,0.22875116765499,0.56067132949829,0.58257365226746,-1.35525119304657,0.55110847949982
31,1608360028,38.83388900756836,-86.66610717773438,11.17525100708008,9.82864761352539,0.20892530679703,0.56368899345398,1.07915902137756,-1.37145745754242,0.43921294808388
32,1608376695,39.04069137573242,-86.67469024658203,10.97288131713867,9.80200862884521,0.23382018506527,0.54138791561127,0.99091702699661,-1.81177198886871,0.45239716768265
33,1608393362,39.21948623657227,-86.68041229248047,10.79841899871826,9.79419326782227,0.27237209677696,0.49539461731911,0.96201282739639,-1.61875438690186,0.42243018746376
34,1608410029,39.36413955688477,-86.68106079101562,10.65922737121582,9.82951831817627,0.25801429152489,0.53077268600464,0.93195647001266,-1.30975031852722,0.32149061560631
35,1608426696,39.48398971557617,-86.67987823486328,10.54733943939209,9.86582851409912,0.22612720727921,0.58472466468811,0.98603129386902,-1.16847693920135,0.31979382038116
36,1608443363,39.61486434936523,-86.68341064453125,10.42586612701416,9.83510684967041,0.21712760627270,0.61536806821823,1.08542120456696,-1.41119551658630,0.47679960727692
37,1608460030,39.72203445434570,-86.68891143798828,10.33587741851807,9.83211517333984,0.26274535059929,0.49132317304611,1.59478127956390,-1.42407894134521,0.63543188571930
38,1608476697,39.72301483154297,-86.68577575683594,10.34491825103760,9.81950283050537,0.26322811841965,0.52493083477020,1.14458680152893,-0.81303673982620,0.57371807098389
39,1608493364,39.83906173706055,-86.68405914306641,10.24082088470459,9.77510929107666,0.23824064433575,0.50393122434616,1.20911800861359,-1.13402807712555,0.32405829429626
40,1608510031,39.85525894165039,-86.68135070800781,10.23554897308350,9.81863403320312,0.26036590337753,0.50349074602127,1.19204068183899,-0.85996562242508,0.54652380943298
41,1608526698,39.81936645507812,-86.67586517333984,10.28048706054688,9.84547996520996,0.25761371850967,0.50255221128464,1.22341620922089,-0.62489223480225,0.59078252315521
42,1608543365,39.84447479248047,-86.67139434814453,10.26566219329834,9.78615760803223,0.25747004151344,0.56983971595764,1.20497500896454,-0.80131244659424,0.46029868721962
43,1608560032,39.93084716796875,-86.67280578613281,10.18016910552979,9.81673908233643,0.24143403768539,0.55399632453918,0.93567669391632,-1.22272443771362,0.51688349246979
44,1608576699,40.05774307250977,-86.67198944091797,10.05530166625977,9.81104564666748,0.24003009498119,0.55257105827332,0.67910796403885,-1.21288943290710,0.29883617162704
45,1608593366,40.16665649414062,-86.66904449462891,9.95361042022705,9.80809497833252,0.25679630041122,0.51289975643158,0.97656095027924,-1.07082211971283,0.28396800160408
46,1608610033,40.25189590454102,-86.66345977783203,9.87410640716553,9.84116458892822,0.25134837627411,0.53117758035660,0.88270962238312,-0.89796841144562,0.23842221498489
47,1608626700,40.33159255981445,-86.66076660156250,9.80022525787354,9.81322288513184,0.25949448347092,0.57155281305313,0.89135384559631,-1.01969277858734,0.36564043164253
48,1608643367,40.40921020507812,-86.66352081298828,9.72904777526855,9.81013107299805,0.24623893201351,0.54544347524643,0.92059725522995,-1.26976883411407,0.58881032466888
49,1608660034,40.46619415283203,-86.66364288330078,9.68044471740723,9.83065128326416,0.28502050042152,0.54264748096466,1.04224467277527,-1.08932721614838,0.54024869203568
50,1608676701,40.60423278808594,-86.66275787353516,9.54537010192871,9.79938602447510,0.28603076934814,0.53120052814484,0.71847462654114,-1.25230097770691,0.28275141119957
51,1608693368,40.76851272583008,-86.66046905517578,9.37860107421875,9.79797840118408,0.28542011976242,0.50267481803894,0.40590366721153,-1.24265134334564,0.12888950109482
52,1608710035,40.84174346923828,-86.66188049316406,9.29739761352539,9.82320404052734,0.28700551390648,0.52582067251205,0.06948085129261,-1.22670745849609,0.50921243429184
53,1608726702,40.87649536132812,-86.66404724121094,9.24987602233887,9.80441761016846,0.25654450058937,0.53315949440002,-0.25852817296982,-1.17829298973083,0.61966079473495
54,1608743369,40.91521072387695,-86.66211700439453,9.19985961914062,9.80494213104248,0.25862649083138,0.53084546327591,-0.12878064811230,-1.00351834297180,0.45989522337914
55,1608760036,41.02565002441406,-86.66281890869141,9.07923793792725,9.79015254974365,0.26524198055267,0.54409366846085,-0.11715249717236,-1.28368282318115,0.37022516131401
56,1608776703,41.19362258911133,-86.66809844970703,8.89430809020996,9.79415702819824,0.25038331747055,0.53601002693176,-0.28665092587471,-1.62693810462952,0.39672791957855
57,1608793370,41.38274383544922,-86.67628479003906,8.69149780273438,9.80138111114502,0.23525002598763,0.48623293638229,0.07895114272833,-1.80844199657440,0.49280112981796
58,1608810037,41.50376129150391,-86.68282318115234,8.56414699554443,9.82050132751465,0.23814857006073,0.49254882335663,0.17603608965874,-1.56848978996277,0.60055381059647
59,1608826704,41.57243347167969,-86.68566131591797,8.49200916290283,9.82547283172607,0.23810917139053,0.47559911012650,0.37462416291237,-1.25875532627106,0.58545511960983
60,1608843371,41.59352874755859,-86.69210052490234,8.46234703063965,9.81261253356934,0.26177093386650,0.50608950853348,0.07178598642349,-1.33668828010559,0.85329347848892
61,1608860038,41.64086532592773,-86.70366668701172,8.40907478332520,9.81280040740967,0.27942737936974,0.47119465470314,0.10467270016670,-1.62449812889099,0.99102574586868
62,1608876705,41.68833160400391,-86.71318054199219,8.34943199157715,9.81086158752441,0.26369801163673,0.44959422945976,0.04635258391500,-1.52895021438599,0.90427565574646
63,1608893372,41.70325851440430,-86.71341705322266,8.32602024078369,9.81942844390869,0.25886791944504,0.46294733881950,0.10595975071192,-1.03402960300446,0.61782956123352
64,1608910039,41.76494598388672,-86.71270751953125,8.25769424438477,9.80367660522461,0.23939031362534,0.47644031047821,0.13294272124767,-1.10432350635529,0.46525472402573
65,1608926706,41.78603363037109,-86.71664428710938,8.23560047149658,9.82330989837646,0.24753953516483,0.50279313325882,0.47479543089867,-1.20327830314636,0.76653683185577
66,1608943373,41.79591751098633,-86.72738647460938,8.21932411193848,9.81837081909180,0.25981205701828,0.46994382143021,0.14580029249191,-1.50028300285339,1.05937957763672
67,1608960040,41.77231979370117,-86.73565673828125,8.23528957366943,9.80815410614014,0.24047884345055,0.42804956436157,0.07259919494390,-1.31185042858124,1.03882551193237
68,1608976707,41.71161651611328,-86.73925781250000,8.29292392730713,9.81184101104736,0.22275723516941,0.45818004012108,0.35418522357941,-0.99746727943420,0.94797730445862
69,1608993374,41.67373275756836,-86.73925781250000,8.32951927185059,9.83091640472412,0.22304908931255,0.50734877586365,0.47377094626427,-0.89540076255798,0.76357865333557
70,1609010041,41.65371704101562,-86.74779510498047,8.34702301025391,9.84258651733398,0.22818864881992,0.50232619047165,0.60025280714035,-1.30640149116516,1.05714499950409
71,1609026708,41.56887054443359,-86.75936889648438,8.43871498107910,9.85338306427002,0.27345794439316,0.39441871643066,0.85995274782181,-1.29865336418152,1.36193597316742
72,1609043375,41.35524368286133,-86.76045989990234,8.64733505249023,9.83496093750000,0.23708580434322,0.43967708945274,0.20910209417343,-0.55797910690308,1.23851501941681
73,1609060042,41.18214797973633,-86.75688934326172,8.81756114959717,9.76618289947510,0.22976815700531,0.43118217587471,0.34545129537582,-0.43187493085861,0.95448279380798
74,1609076709,40.88359451293945,-86.74587249755859,9.11257648468018,9.80518722534180,0.25922510027885,0.42610239982605,0.29440516233444,0.17939133942127,0.98639619350433
75,1609093376,40.58121490478516,-86.73997497558594,9.40654563903809,9.83078002929688,0.25969561934471,0.45852303504944,0.00821527279913,-0.04501431807876,1.18518292903900
76,1609110043,40.37224960327148,-86.73925781250000,9.60731601715088,9.79727649688721,0.22360241413116,0.47426334023476,0.00943827908486,-0.50756043195724,1.16417396068573
77,1609126710,40.22198867797852,-86.74033355712891,9.74647712707520,9.77446937561035,0.21270705759525,0.50630885362625,-0.14044083654881,-0.71729004383087,1.06755006313324
78,1609143377,40.13598251342773,-86.74171447753906,9.82205200195312,9.75536632537842,0.19906705617905,0.49354773759842,-0.10696504265070,-0.88050699234009,0.92091751098633
79,1609160044,40.10651397705078,-86.74225616455078,9.84833049774170,9.76569652557373,0.21629312634468,0.47343662381172,0.33461710810661,-0.94425690174103,0.75656074285507
80,1609176711,40.13966369628906,-86.74364471435547,9.81922817230225,9.80694389343262,0.20500490069389,0.50034081935883,0.49399214982986,-1.10921561717987,0.62290090322495
81,1609193378,40.17565155029297,-86.74990081787109,9.78507804870605,9.81932067871094,0.19489964842796,0.54176962375641,0.63648837804794,-1.34622263908386,0.82616323232651
82,1609210045,40.22156524658203,-86.76112365722656,9.74452400207520,9.83079624176025,0.20067022740841,0.48634198307991,0.85623240470886,-1.57896518707275,0.99391347169876
83,1609226712,40.31207275390625,-86.77050781250000,9.65580368041992,9.82887935638428,0.22463092207909,0.46254420280457,0.65086984634399,-1.59540867805481,0.79733610153198
84,1609243379,40.43288803100586,-86.77723693847656,9.53330039978027,9.78761482238770,0.24867270886898,0.46982729434967,0.44177421927452,-1.55046474933624,0.61148393154144
85,1609260046,40.57693481445312,-86.78460693359375,9.38349437713623,9.79155635833740,0.24848546087742,0.46891981363297,0.19721139967442,-1.64341342449188,0.57278323173523
86,1609276713,40.67595672607422,-86.79118347167969,9.27884578704834,9.81270122528076,0.21619604527950,0.44924315810204,0.26495057344437,-1.49254810810089,0.65116447210312
87,1609293380,40.73044967651367,-86.79472351074219,9.22882938385010,9.83626270294189,0.22199553251266,0.45546984672546,0.48885041475296,-1.26925015449524,0.66966319084167
88,1609310047,40.75817489624023,-86.79685974121094,9.20366477966309,9.83667087554932,0.21014028787613,0.47455710172653,0.45030328631401,-1.13488602638245,0.67013710737228
89,1609326714,40.79302215576172,-86.80065155029297,9.15665054321289,9.83482933044434,0.24015872180462,0.48194178938866,0.16684751212597,-1.23792564868927,0.71611189842224
90,1609343381,40.81982803344727,-86.80500793457031,9.12200164794922,9.79284381866455,0.22657188773155,0.49072647094727,0.07086394727230,-1.24033343791962,0.74027752876282
91,1609360048,40.85292816162109,-86.80843353271484,9.08423328399658,9.78422451019287,0.22007282078266,0.46647316217422,0.24390971660614,-1.22630417346954,0.71432542800903
92,1609376715,40.85313796997070,-86.80727386474609,9.08657932281494,9.79850006103516,0.19620487093925,0.49237942695618,0.70452851057053,-0.90444201231003,0.61327046155930
93,1609393382,40.88356399536133,-86.80512237548828,9.05928611755371,9.81210613250732,0.19506292045116,0.50377887487411,0.71754616498947,-0.93602895736694,0.51051878929138
94,1609410049,40.97695159912109,-86.80941772460938,8.96959209442139,9.80770874023438,0.23059724271297,0.49927175045013,0.70093637704849,-1.37309682369232,0.60780858993530
95,1609426716,41.12216186523438,-86.82158660888672,8.82087993621826,9.80824661254883,0.22744399309158,0.47049805521965,0.39435872435570,-1.85332846641541,0.77730697393417
96,1609443383,41.28060150146484,-86.82904815673828,8.66338253021240,9.80883693695068,0.24260920286179,0.43774035573006,0.67593187093735,-1.64568626880646,0.56374830007553
97,1609460050,41.39431381225586,-86.83010101318359,8.55295658111572,9.82492065429688,0.24831674993038,0.46290487051010,0.34938281774521,-1.27710688114166,0.40980318188667
98,1609476717,41.52005004882812,-86.83448791503906,8.42375564575195,9.81008148193359,0.25737559795380,0.47134605050087,0.36619758605957,-1.45966136455536,0.52398461103439
99,1609493384,41.60203552246094,-86.84328460693359,8.32986068725586,9.82251548767090,0.25000885128975,0.49960142374039,0.10797034204006,-1.57383000850677,0.80577552318573
100,1609510051,41.71232604980469,-86.85247802734375,8.21123027801514,9.80464935302734,0.21326692402363,0.44406813383102,-0.01255022361875,-1.64443790912628,0.73215830326080
101,1609526718,41.77481842041016,-86.85098266601562,8.14626979827881,9.81666374206543,0.21786583960056,0.41106757521629,0.45829445123672,-1.05159342288971,0.45180165767670
102,1609543385,41.83637619018555,-86.84501647949219,8.07595252990723,9.80618762969971,0.20164577662945,0.51190632581711,0.43572962284088,-0.84416890144348,0.27242305874825
103,1609560052,41.95796203613281,-86.84352874755859,7.95656919479370,9.85131549835205,0.20126347243786,0.54081141948700,0.55124294757843,-1.17413735389709,0.30241557955742
104,1609576719,42.10559463500977,-86.84954833984375,7.82062721252441,9.85147285461426,0.21955075860023,0.52130997180939,1.09298980236053,-1.55028533935547,0.56735324859619
105,1609593386,42.16295623779297,-86.85340881347656,7.77933025360107,9.83951950073242,0.25033822655678,0.42538014054298,0.98885518312454,-1.25922918319702,0.69332301616669
106,1609610053,42.20085144042969,-86.85117340087891,7.74205017089844,9.75922966003418,0.22812898457050,0.46219787001610,0.57797622680664,-0.95281159877777,0.47794574499130
107,1609626720,42.30264663696289,-86.84756469726562,7.64179420471191,9.76552963256836,0.24888169765472,0.44378435611725,0.63490682840347,-1.03634095191956,0.27401104569435
108,1609643387,42.32108306884766,-86.84719848632812,7.61816501617432,9.81442165374756,0.26287972927094,0.44067439436913,0.21565254032612,-1.01532590389252,0.59521991014481
109,1609660054,42.42422485351562,-86.85515594482422,7.50751352310181,9.76165866851807,0.25453335046768,0.46194860339165,0.10145191103220,-1.56106221675873,0.70451569557190
110,1609676721,42.57439422607422,-86.86076354980469,7.35476303100586,9.78025341033936,0.22396230697632,0.41977855563164,0.39594033360481,-1.56569159030914,0.52474665641785
111,1609693388,42.72810745239258,-86.86062622070312,7.19922351837158,9.79826164245605,0.23017305135727,0.46987152099609,0.35752126574516,-1.31621122360229,0.27828839421272
112,1609710055,42.91572570800781,-86.86100769042969,7.00796699523926,9.78872394561768,0.25077545642853,0.43173980712891,0.33215188980103,-1.41519129276276,0.21624159812927
113,1609726722,43.06293487548828,-86.86275482177734,6.85913658142090,9.79981613159180,0.24368146061897,0.41042864322662,0.48278018832207,-1.39297211170197,0.38954994082451
114,1609743389,43.18798828125000,-86.86681365966797,6.73346948623657,9.84566402435303,0.21668972074986,0.42695009708405,0.59135246276855,-1.42966246604919,0.53354454040527
115,1609760056,43.28087615966797,-86.87168884277344,6.64478254318237,9.84547615051270,0.18468981981277,0.46567639708519,0.85736596584320,-1.38090872764587,0.65211862325668
116,1609776723,43.36201095581055,-86.87751770019531,6.57191658020020,9.81837368011475,0.22810588777065,0.45336627960205,1.01752841472626,-1.39732003211975,0.73359888792038
117,1609793390,43.48421096801758,-86.87682342529297,6.44929742813110,9.84844779968262,0.23011219501495,0.42958357930183,0.76930302381516,-1.21265244483948,0.36131837964058
118,1609810057,43.61525726318359,-86.87294769287109,6.31709480285645,9.84962558746338,0.24744196236134,0.43154925107956,0.73287534713745,-1.09290671348572,0.20415242016315
119,1609826724,43.70296859741211,-86.87306976318359,6.22937059402466,9.79411697387695,0.27100497484207,0.43401905894279,0.53556799888611,-1.18047654628754,0.46286627650261
120,1609843391,43.71036148071289,-86.87725830078125,6.21834754943848,9.77875232696533,0.25817841291428,0.40559741854668,0.32579356431961,-1.17091667652130,0.80171591043472
121,1609860058,43.70376586914062,-86.88008880615234,6.22523403167725,9.78089809417725,0.22863481938839,0.39696186780930,0.55098044872284,-1.08122098445892,0.79558169841766
122,1609876725,43.72027206420898,-86.87701416015625,6.21355056762695,9.81507301330566,0.19340071082115,0.36880958080292,0.81803768873215,-0.87019151449203,0.51090294122696
123,1609893392,43.66983413696289,-86.87062072753906,6.26933860778809,9.80340194702148,0.21915805339813,0.42232966423035,0.84872156381607,-0.57068932056427,0.52948498725891
124,1609910059,43.65523147583008,-86.86956024169922,6.28743028640747,9.79585266113281,0.23040227591991,0.45112887024879,0.75308376550674,-0.88458573818207,0.65985351800919
125,1609926726,43.63145065307617,-86.87538146972656,6.31386375427246,9.81165027618408,0.20895004272461,0.38840898871422,0.75453102588654,-1.16879725456238,0.97413426637650
126,1609943393,43.55424499511719,-86.87387847900391,6.40674591064453,9.81722927093506,0.20291584730148,0.41673520207405,1.46213304996490,-0.70132696628571,0.82127767801285
127,1609960060,43.48198699951172,-86.86975097656250,6.49706268310547,9.80889225006104,0.23338988423347,0.43518140912056,1.61785805225372,-0.58354693651199,0.69756823778152
128,1609976727,43.46143341064453,-86.86793518066406,6.53369283676147,9.79933738708496,0.23347599804401,0.42458081245422,1.49149787425995,-0.81297266483307,0.67522114515305
129,1609993394,43.34270858764648,-86.86325073242188,6.66723060607910,9.85286045074463,0.23563696444035,0.42649850249290,1.40871119499207,-0.46825775504112,0.78472185134888
130,1610010061,43.22382736206055,-86.85863494873047,6.79527139663696,9.80682659149170,0.21053515374660,0.45677235722542,1.07893502712250,-0.47825956344604,0.77215886116028
131,1610026728,43.19822692871094,-86.85577392578125,6.83143281936646,9.80459976196289,0.25711375474930,0.43475639820099,1.16175365447998,-0.76818245649338,0.63089197874069
132,1610043395,43.17877578735352,-86.85403442382812,6.86412763595581,9.80605602264404,0.27134117484093,0.44343933463097,1.32340180873871,-0.82365328073502,0.66936874389648
133,1610060062,43.22647857666016,-86.85552215576172,6.82225465774536,9.81273746490479,0.24926960468292,0.44707787036896,0.88172364234924,-1.13635861873627,0.62618577480316
134,1610076729,43.21857070922852,-86.85209655761719,6.83137226104736,9.81211757659912,0.23926661908627,0.40063852071762,0.70789653062820,-0.79626679420471,0.54570418596268
135,1610093396,43.12797927856445,-86.84061431884766,6.92144107818604,9.79233169555664,0.23505003750324,0.44668591022491,0.49437624216080,-0.26904216408730,0.40736997127533
136,1610110063,43.11762237548828,-86.83207702636719,6.92899894714355,9.81029033660889,0.22408849000931,0.47037860751152,0.28006204962730,-0.58378386497498,0.32323226332664
137,1610126730,43.11526489257812,-86.83232879638672,6.92383337020874,9.86253643035889,0.23528708517551,0.50344741344452,0.07783699035645,-0.99940109252930,0.66190886497498
138,1610143397,43.13352584838867,-86.83739471435547,6.90193319320679,9.83940315246582,0.24656587839127,0.40773034095764,0.31484410166740,-1.24665355682373,0.81803125143051
139,1610160064,43.05890274047852,-86.83374786376953,6.96940231323242,9.84650707244873,0.25123226642609,0.39238360524178,0.09612446278334,-0.66415649652481,0.67773765325546
140,1610176731,43.05397415161133,-86.82602691650391,6.96511316299438,9.77440261840820,0.23638372123241,0.43336474895477,-0.01533560268581,-0.63828766345978,0.32867494225502
141,1610193398,43.07398223876953,-86.81924438476562,6.93448781967163,9.79170608520508,0.25820931792259,0.42677026987076,-0.10822645574808,-0.74488127231598,0.30858817696571
142,1610210065,43.04506683349609,-86.81531524658203,6.95296621322632,9.78264904022217,0.22815820574760,0.43518984317780,-0.09224414080381,-0.75982630252838,0.54727292060852
143,1610226732,43.05432510375977,-86.80899047851562,6.93947219848633,9.76146984100342,0.23243480920792,0.43498978018761,0.27703338861465,-0.72860449552536,0.37128812074661
144,1610243399,43.13548660278320,-86.80292510986328,6.85255765914917,9.78388881683350,0.23729911446571,0.46936506032944,0.19822306931019,-0.90380811691284,0.19984947144985
145,1610260066,43.24644851684570,-86.80242919921875,6.72918653488159,9.82546520233154,0.24362710118294,0.47331944108009,-0.20343527197838,-1.23679256439209,0.34282594919205
146,1610276733,43.34846115112305,-86.80206298828125,6.61497592926025,9.80726909637451,0.25589370727539,0.46188977360725,-0.18572409451008,-1.21272933483124,0.36263743042946
147,1610293400,43.44710540771484,-86.79839324951172,6.50599622726440,9.81831264495850,0.22909568250179,0.43133929371834,-0.07684449851513,-1.06251072883606,0.24494704604149
148,1610310067,43.52375030517578,-86.79595184326172,6.42233753204346,9.83188438415527,0.21784225106239,0.47926363348961,0.11550047248602,-1.06152474880219,0.35841131210327
149,1610326734,43.60411071777344,-86.79875183105469,6.33532571792603,9.84371471405029,0.22723957896233,0.50098776817322,0.14826551079750,-1.29200696945190,0.56271743774414
150,1610343401,43.69001770019531,-86.79912567138672,6.24405288696289,9.83155727386475,0.23907724022865,0.42044511437416,0.20936463773251,-1.20868885517120,0.46310961246490
151,1610360068,43.77285385131836,-86.79021453857422,6.15890169143677,9.83757877349854,0.27065673470497,0.42942714691162,0.40822160243988,-0.77702522277832,0.07897035777569
152,1610376735,43.82429885864258,-86.77681732177734,6.10441541671753,9.80665111541748,0.29671126604080,0.45608091354370,0.34564974904060,-0.52416390180588,-0.02369174733758
153,1610393402,43.84931564331055,-86.77178192138672,6.07025146484375,9.81823921203613,0.30780071020126,0.45097568631172,0.10021608322859,-0.82589429616928,0.36998182535172
154,1610410069,43.77624130249023,-86.77117156982422,6.13350248336792,9.79990386962891,0.28892382979393,0.45918846130371,-0.18786914646626,-0.80386734008789,0.78349882364273
155,1610426736,43.76779556274414,-86.77220916748047,6.13364124298096,9.77913761138916,0.24568013846874,0.44926464557648,-0.01181385666132,-1.01670253276825,0.69923937320709
156,1610443403,43.78945159912109,-86.76705169677734,6.10609579086304,9.80522918701172,0.26623374223709,0.44607567787170,0.24116918444633,-0.81446468830109,0.38623955845833
157,1610460070,43.81520080566406,-86.76081848144531,6.07527065277100,9.79410457611084,0.24652618169785,0.48638492822647,0.34787809848785,-0.76748448610306,0.32927045226097
158,1610476737,43.87203979492188,-86.76360321044922,6.01758337020874,9.80403327941895,0.24190789461136,0.46307685971260,0.40623024106026,-1.23280954360962,0.63313311338425
159,1610493404,43.85748672485352,-86.76312255859375,6.03762626647949,9.85205745697021,0.25063064694405,0.45240572094917,0.84058314561844,-0.90603005886078,0.68788027763367
160,1610510071,43.79608917236328,-86.75683593750000,6.09744930267334,9.82500553131104,0.23719015717506,0.48771271109581,0.88205653429031,-0.53611218929291,0.56330645084381
161,1610526738,43.78799438476562,-86.75382232666016,6.11036682128906,9.79980373382568,0.29365140199661,0.50234723091125,0.85339593887329,-0.81065481901169,0.56933826208115
162,1610543405,43.77149963378906,-86.75598907470703,6.12942790985107,9.82068824768066,0.30329197645187,0.49547591805458,0.66826736927032,-1.03303694725037,0.80594837665558
163,1610560072,43.81127548217773,-86.76094055175781,6.08584976196289,9.79857158660889,0.29071310162544,0.47224572300911,0.41288956999779,-1.28028285503387,0.76018494367599
164,1610576739,43.88684082031250,-86.76335906982422,6.00962591171265,9.79112434387207,0.27105930447578,0.44061610102654,0.46946799755096,-1.25368404388428,0.56994670629501
165,1610593406,43.95661163330078,-86.76281738281250,5.94873142242432,9.78661632537842,0.24212051928043,0.47760346531868,0.85796147584915,-1.10441327095032,0.48265853524208
166,1610610073,44.01611709594727,-86.76747894287109,5.88996076583862,9.81616973876953,0.25523626804352,0.48356047272682,0.53551036119461,-1.30762434005737,0.70247954130173
167,1610626740,44.02634048461914,-86.76972198486328,5.88194990158081,9.82628059387207,0.27059754729271,0.48007395863533,0.37354204058647,-1.10326707363129,0.72165709733963
168,1610643407,44.06856155395508,-86.77141571044922,5.84134244918823,9.79751873016357,0.26517555117607,0.42875912785530,0.66305518150330,-1.13676846027374,0.63033497333527
169,1610660074,44.06997299194336,-86.76844024658203,5.84841060638428,9.83051872253418,0.27000766992569,0.47978520393372,0.91286867856979,-0.83347564935684,0.54664540290833
170,1610676741,44.06137847900391,-86.76898956298828,5.85781812667847,9.84825706481934,0.24311986565590,0.54504507780075,0.81746131181717,-0.96267896890640,0.71533066034317
171,1610693408,44.04520034790039,-86.77462768554688,5.88658571243286,9.81529521942139,0.24477745592594,0.46760162711143,1.20104980468750,-1.15921783447266,0.96974164247513
172,1610710075,43.89521026611328,-86.77195739746094,6.04271697998047,9.85439872741699,0.25415965914726,0.41556230187416,1.00370407104492,-0.48724323511124,0.93288499116898
173,1610726742,43.75679397583008,-86.76372528076172,6.18240022659302,9.80396461486816,0.28629902005196,0.46895432472229,0.76422530412674,-0.28145793080330,0.66611593961716
174,1610743409,43.66511917114258,-86.75912475585938,6.27464485168457,9.79380130767822,0.27572783827782,0.43244725465775,0.58795875310898,-0.55013519525528,0.69085776805878
175,1610760076,43.52117919921875,-86.75731658935547,6.42025518417358,9.80683994293213,0.27140191197395,0.46798503398895,0.60766768455505,-0.55825430154800,0.94505083560944
176,1610776743,43.42069625854492,-86.75641632080078,6.52660989761353,9.79593563079834,0.26055225729942,0.45925638079643,0.85477894544601,-0.68494760990143,0.88083988428116
177,1610793410,43.33519363403320,-86.74935913085938,6.61718750000000,9.79700469970703,0.24276174604893,0.47762405872345,0.74625164270401,-0.45143020153046,0.58149784803391
178,1610810077,43.25048446655273,-86.74364471435547,6.69436120986938,9.81457424163818,0.24713417887688,0.51443648338318,0.59224885702133,-0.52347236871719,0.64693194627762
179,1610826744,43.17278671264648,-86.74400329589844,6.77203464508057,9.80652809143066,0.25979331135750,0.45656245946884,0.55764609575272,-0.81039857864380,0.87183713912964
180,1610843411,43.01476287841797,-86.74063873291016,6.93708658218384,9.84360122680664,0.25555008649826,0.42884710431099,0.89068168401718,-0.44729381799698,0.93357014656067
181,1610860078,42.87249755859375,-86.73590087890625,7.08616256713867,9.81993484497070,0.22106704115868,0.53730100393295,0.93390309810638,-0.42312815785408,0.84366959333420
182,1610876745,42.78919982910156,-86.73925781250000,7.18114328384399,9.81972694396973,0.24906274676323,0.48640939593315,1.17492496967316,-0.89164215326309,1.01978886127472
183,1610893412,42.73033142089844,-86.74237823486328,7.24700307846069,9.82148170471191,0.25309705734253,0.46560040116310,0.94327092170715,-0.96219235658646,0.95510399341583
184,1610910079,42.65543365478516,-86.74069976806641,7.32903194427490,9.80973148345947,0.23834465444088,0.45667752623558,0.95414352416992,-0.70041769742966,0.78836536407471
185,1610926746,42.55107498168945,-86.73631286621094,7.44063758850098,9.78622627258301,0.23972587287426,0.47107684612274,0.95440602302551,-0.52598881721497,0.76557642221451
186,1610943413,42.43043518066406,-86.73517608642578,7.56676959991455,9.80797195434570,0.24915541708469,0.48258477449417,0.84245300292969,-0.63476592302322,0.93323713541031
187,1610960080,42.26710128784180,-86.73511505126953,7.73378133773804,9.81690597534180,0.23218537867069,0.45877453684807,0.73679417371750,-0.58945065736771,1.08058071136475
188,1610976747,42.06314849853516,-86.72864532470703,7.94447422027588,9.83014965057373,0.23674017190933,0.43882513046265,0.92967700958252,-0.18933549523354,0.92041808366776
189,1610993414,41.86831665039062,-86.71741485595703,8.14598274230957,9.81432056427002,0.23998966813087,0.46382889151573,0.91030097007751,-0.01000816188753,0.72093343734741
190,1611010081,41.73055267333984,-86.70984649658203,8.28305053710938,9.79525756835938,0.26301348209381,0.48256140947342,0.97865480184555,-0.30388188362122,0.73763930797577
191,1611026748,41.53016662597656,-86.70687866210938,8.48717021942139,9.81783676147461,0.25575634837151,0.45419684052467,0.73752415180206,-0.36833623051643,1.06108927726746
192,1611043415,41.30126953125000,-86.70473480224609,8.72158336639404,9.81934070587158,0.25408008694649,0.48618504405022,0.83656197786331,-0.34713533520699,1.18264091014862
193,1611060082,41.13245391845703,-86.70242309570312,8.89297962188721,9.76883506774902,0.25570461153984,0.49222630262375,0.67139858007431,-0.47402068972588,1.00728356838226
194,1611076749,40.98564529418945,-86.70301055908203,9.03820800781250,9.79171848297119,0.24129091203213,0.47169137001038,0.42526683211327,-0.67279434204102,1.06098687648773
195,1611093416,40.86029052734375,-86.70134735107422,9.16580295562744,9.81746578216553,0.24524150788784,0.49795544147491,0.40418758988380,-0.62310570478439,0.91696655750275
196,1611110083,40.78237152099609,-86.70128631591797,9.23896503448486,9.79235172271729,0.24555747210979,0.50066554546356,0.24495345354080,-0.79883444309235,0.84190857410431
197,1611126750,40.77747344970703,-86.69951629638672,9.24671173095703,9.81175231933594,0.24796552956104,0.45609450340271,0.70738428831100,-0.86976242065430,0.60625255107880
198,1611143417,40.73108291625977,-86.69631195068359,9.29327392578125,9.81130218505859,0.25674048066139,0.50303232669830,0.52993953227997,-0.73060858249664,0.66176813840866
199,1611160084,40.67686462402344,-86.69963073730469,9.33734035491943,9.79941463470459,0.24519480764866,0.48968464136124,-0.08040466904640,-1.02067255973816,0.90093952417374
200,1611176751,40.63767242431641,-86.70443725585938,9.36480045318604,9.81274509429932,0.25156214833260,0.44705656170845,-0.17760486900806,-1.13105034828186,0.91952157020569
201,1611193418,40.54267883300781,-86.70349121093750,9.45041656494141,9.84041595458984,0.23810838162899,0.43045747280121,-0.03820774704218,-0.73602581024170,0.84432268142700
202,1611210085,40.49463653564453,-86.69767761230469,9.48902988433838,9.86651611328125,0.24338236451149,0.52803772687912,0.13467796146870,-0.61206662654877,0.54057514667511
203,1611226752,40.45943450927734,-86.69648742675781,9.51975822448730,9.82180404663086,0.23469159007072,0.53754287958145,0.33144116401672,-0.84249770641327,0.69306689500809
204,1611243419,40.39941787719727,-86.69886016845703,9.57007598876953,9.80645847320557,0.22561858594418,0.48092401027679,-0.00343850534409,-0.96465748548508,0.88511091470718
205,1611260086,40.31265640258789,-86.69560241699219,9.63883495330811,9.76939964294434,0.22385425865650,0.49541920423508,-0.17841163277626,-0.66096770763397,0.73961788415909
206,1611276753,40.24849319458008,-86.69122314453125,9.69525909423828,9.77909755706787,0.23021021485329,0.42913621664047,0.06732297688723,-0.64749544858932,0.63846045732498
207,1611293420,40.11732101440430,-86.68128967285156,9.82658481597900,9.81001186370850,0.25095677375793,0.47721982002258,0.31030425429344,-0.22535331547260,0.60487586259842
208,1611310087,39.99204254150391,-86.67727661132812,9.94502639770508,9.81230449676514,0.26131638884544,0.51013606786728,0.10533864051104,-0.52974742650986,0.82341629266739
209,1611326754,39.92179489135742,-86.68064117431641,10.00787544250488,9.80331516265869,0.23219443857670,0.52254158258438,0.08063517510891,-0.98242622613907,0.95045518875122
210,1611343421,39.91130828857422,-86.68760681152344,10.00521183013916,9.79768085479736,0.22729064524174,0.49487388134003,-0.25338000059128,-1.29723834991455,0.91893237829208
211,1611360088,39.91121673583984,-86.69086456298828,9.99630355834961,9.77563953399658,0.23582144081593,0.47832775115967,-0.00772863160819,-1.14180779457092,0.75878900289536
212,1611376755,39.90282440185547,-86.69110107421875,9.99517345428467,9.80350208282471,0.22004544734955,0.49836596846581,-0.04496949538589,-0.99417608976364,0.67165458202362
213,1611393422,39.91196441650391,-86.69358062744141,9.97700500488281,9.82662773132324,0.18644386529922,0.53770405054092,0.00317597482353,-1.12175297737122,0.70075070858002
214,1611410089,39.96055984497070,-86.70520782470703,9.93710899353027,9.83776664733887,0.21901361644268,0.52674800157547,0.85104596614838,-1.60660123825073,0.99281221628189
215,1611426756,39.95445632934570,-86.71711730957031,9.94616889953613,9.82734870910645,0.25316858291626,0.48515969514847,0.71267974376678,-1.49597370624542,1.13604474067688
216,1611443423,39.95153045654297,-86.73026275634766,9.94277763366699,9.80904674530029,0.26693153381348,0.47447469830513,0.14757396280766,-1.59305858612061,1.16231071949005
217,1611460090,39.93395996093750,-86.73775482177734,9.95286464691162,9.82204246520996,0.23626436293125,0.44857051968575,0.08378554135561,-1.28961217403412,0.96922934055328
218,1611476757,39.88915252685547,-86.74298095703125,9.98711490631104,9.79084491729736,0.23549661040306,0.48441547155380,-0.10159277170897,-1.13585925102234,0.94662612676620
219,1611493424,39.90317153930664,-86.75454711914062,9.96317291259766,9.82686614990234,0.20754294097424,0.47342145442963,-0.06985223293304,-1.56226575374603,1.04529261589050
220,1611510091,39.92686843872070,-86.76009368896484,9.93906879425049,9.84557056427002,0.18361592292786,0.45460757613182,0.51936149597168,-1.27522420883179,0.80472540855408
221,1611526758,39.90424346923828,-86.75894927978516,9.96343135833740,9.84054183959961,0.20487847924232,0.44901549816132,0.63510525226593,-0.86592048406601,0.67673873901367
222,1611543425,39.85356140136719,-86.75822448730469,10.01502418518066,9.81082820892334,0.20747093856335,0.49630585312843,0.57702851295471,-0.82368516921997,0.76225960254669
223,1611560092,39.74940872192383,-86.76094055175781,10.11996650695801,9.82243728637695,0.20638757944107,0.48553988337517,0.57545334100723,-0.86492156982422,1.02959203720093
224,1611576759,39.58174514770508,-86.76420593261719,10.28969669342041,9.81580829620361,0.21081331372261,0.48222225904465,0.63810199499130,-0.76216351985931,1.22926867008209
225,1611593426,39.48794174194336,-86.76615142822266,10.38750171661377,9.77877426147461,0.18975485861301,0.49501544237137,0.75348073244095,-0.85610455274582,0.98975789546967
226,1611610093,39.43851089477539,-86.76898956298828,10.44178390502930,9.79574298858643,0.18198271095753,0.46233373880386,0.81440699100494,-0.98425120115280,0.90543454885483
227,1611626760,39.41606521606445,-86.76511383056641,10.47193145751953,9.80570220947266,0.16423240303993,0.48528656363487,0.99457949399948,-0.72903341054916,0.58933538198471
228,1611643427,39.41773223876953,-86.76154327392578,10.48037719726562,9.80852413177490,0.17263019084930,0.51833528280258,1.14625167846680,-0.78143072128296,0.53739929199219
229,1611660094,39.46764373779297,-86.76045989990234,10.44585227966309,9.80773544311523,0.19341149926186,0.49114620685577,1.44695723056793,-1.00199437141418,0.52980500459671
230,1611676761,39.45613098144531,-86.75743865966797,10.47755146026611,9.81077575683594,0.22515572607517,0.52913796901703,1.74445533752441,-0.76309835910797,0.62436074018478
231,1611693428,39.51078414916992,-86.76033782958984,10.43168163299561,9.78742218017578,0.23874403536320,0.51319617033005,1.06363141536713,-1.20313751697540,0.64574742317200
232,1611710095,39.52517318725586,-86.76686859130859,10.42136478424072,9.79388904571533,0.21964652836323,0.45856526494026,0.78467065095901,-1.28576385974884,0.87044751644135
233,1611726762,39.54761123657227,-86.77038574218750,10.40284633636475,9.80275440216064,0.19901749491692,0.47628214955330,0.76588374376297,-1.17685878276825,0.74491977691650
234,1611743429,39.59192657470703,-86.76905059814453,10.36387538909912,9.85750865936279,0.15526533126831,0.51902240514755,0.85236495733261,-0.99456030130386,0.50468540191650
235,1611760096,39.68925094604492,-86.77159881591797,10.27400398254395,9.84739398956299,0.18574258685112,0.53443610668182,0.99245369434357,-1.28467559814453,0.52169233560562
236,1611776763,39.72981262207031,-86.77208709716797,10.24319362640381,9.84077453613281,0.21994315087795,0.45114788413048,1.11746931076050,-1.06347131729126,0.59827423095703
237,1611793430,39.68980789184570,-86.76190948486328,10.28742313385010,9.81406211853027,0.19604818522930,0.47554174065590,0.78071355819702,-0.40234351158142,0.37733915448189
238,1611810097,39.75030136108398,-86.75447845458984,10.23234748840332,9.78000259399414,0.20253814756870,0.46479105949402,0.86308389902115,-0.74817895889282,0.22797861695290
239,1611826764,39.72106933593750,-86.74827575683594,10.26565933227539,9.81105327606201,0.22611667215824,0.44658780097961,0.76711952686310,-0.61712515354156,0.50895637273788
240,1611843431,39.64962387084961,-86.74147796630859,10.33926963806152,9.81442737579346,0.22620068490505,0.46681916713715,0.65945655107498,-0.48954832553864,0.58164507150650
241,1611860098,39.60865783691406,-86.73421478271484,10.38406181335449,9.80509948730469,0.20112754404545,0.48105502128601,0.76497447490692,-0.53396713733673,0.49204555153847
242,1611876765,39.64430999755859,-86.72882843017578,10.34874820709229,9.80366325378418,0.19914104044437,0.48779875040054,0.54895704984665,-0.80660146474838,0.36286792159081
243,1611893432,39.74859237670898,-86.72499847412109,10.24407196044922,9.79315280914307,0.20669455826283,0.47843226790428,0.52529722452164,-1.01805353164673,0.22997002303600
244,1611910099,39.83164978027344,-86.72219085693359,10.16642570495605,9.82211685180664,0.20135171711445,0.46933424472809,0.85297328233719,-1.01889872550964,0.34881296753883
245,1611926766,39.88524246215820,-86.71556091308594,10.11660003662109,9.81831741333008,0.20259098708630,0.50404947996140,0.77022504806519,-0.77026987075806,0.26600068807602
246,1611943433,40.00070190429688,-86.71389770507812,10.00477027893066,9.80910682678223,0.20722709596157,0.50796812772751,0.76546120643616,-1.13512277603149,0.29386731982231
247,1611960100,40.11426925659180,-86.71664428710938,9.89617824554443,9.82955360412598,0.23736824095249,0.46716216206551,0.84349018335342,-1.33189249038696,0.47218292951584
248,1611976767,40.18978118896484,-86.71378326416016,9.82695102691650,9.81966209411621,0.23902474343777,0.46209624409676,0.91457837820053,-0.99643003940582,0.36580058932304
249,1611993434,40.23171997070312,-86.70230102539062,9.78436088562012,9.80855369567871,0.25423893332481,0.45308294892311,0.86552351713181,-0.53216785192490,0.12637946009636
250,1612010101,40.27274322509766,-86.69464874267578,9.74138259887695,9.79520797729492,0.26896581053734,0.49670296907425,0.42937129735947,-0.70762121677399,0.23891524970531
251,1612026768,40.29189682006836,-86.69677734375000,9.71807479858398,9.81119823455811,0.26149129867554,0.47584581375122,0.27697572112083,-1.12693953514099,0.68097764253616
252,1612043435,40.30498123168945,-86.70117187500000,9.69966506958008,9.81768894195557,0.22612293064594,0.45307534933090,0.21896295249462,-1.20662069320679,0.77254307270050
253,1612060102,40.23960494995117,-86.69234466552734,9.76446437835693,9.82690238952637,0.24299612641335,0.45727890729904,0.47543564438820,-0.43360373377800,0.49292922019958
254,1612076769,40.23040771484375,-86.67987823486328,9.77486038208008,9.79064369201660,0.25030979514122,0.50749945640564,0.61168253421783,-0.37349078059196,0.19687201082706
255,1612093436,40.26251602172852,-86.67622375488281,9.74039840698242,9.79355716705322,0.24765770137310,0.51240801811218,0.39328297972679,-0.87717729806900,0.41956162452698
256,1612110103,40.25107192993164,-86.67633819580078,9.74723243713379,9.83157825469971,0.23547096550465,0.49281132221222,0.26569974422455,-0.95298463106155,0.67085427045822
257,1612126770,40.20256042480469,-86.67404174804688,9.78859424591064,9.79055976867676,0.25337222218513,0.50062376260757,0.08844704926014,-0.78204530477524,0.68399345874786
258,1612143437,40.21781158447266,-86.67351531982422,9.76383209228516,9.79640388488770,0.25720450282097,0.48950281739235,-0.03558884561062,-1.00267302989960,0.56972247362137
259,1612160104,40.25113677978516,-86.67710113525391,9.71927165985107,9.82998943328857,0.25713670253754,0.50864320993423,-0.13086807727814,-1.22876918315887,0.67023307085037
260,1612176771,40.34216308593750,-86.68235778808594,9.61334514617920,9.82186222076416,0.24668440222740,0.47446975111961,-0.34779483079910,-1.44351887702942,0.57470411062241
261,1612193438,40.40850830078125,-86.68235778808594,9.53880023956299,9.83085727691650,0.23621772229671,0.43907326459885,0.03729849681258,-1.14454197883606,0.46340420842171
262,1612210105,40.41458511352539,-86.67710113525391,9.53250312805176,9.79226779937744,0.23019118607044,0.48765692114830,0.53000360727310,-0.73979079723358,0.43021655082703
263,1612226772,40.42347335815430,-86.67633819580078,9.51387214660645,9.80039978027344,0.25104466080666,0.49991223216057,-0.06574138998985,-0.98450732231140,0.58177959918976
264,1612243439,40.43104553222656,-86.67875671386719,9.49169158935547,9.81548023223877,0.26814645528793,0.47182929515839,-0.33333006501198,-1.12684988975525,0.68676608800888
265,1612260106,40.39094543457031,-86.68022918701172,9.51852798461914,9.81761646270752,0.27816814184189,0.44062945246696,-0.26932394504547,-0.98343169689178,0.78775697946548
266,1612276773,40.39812088012695,-86.67704772949219,9.50096511840820,9.83460903167725,0.22511854767799,0.47004204988480,-0.08157644420862,-0.85780769586563,0.47928404808044
267,1612293440,40.42198562622070,-86.67398071289062,9.47314167022705,9.85435676574707,0.21009765565395,0.52777361869812,0.29498785734177,-0.89276903867722,0.46111178398132
268,1612310107,40.42160034179688,-86.67616271972656,9.48072719573975,9.83924484252930,0.23269440233707,0.46522632241249,0.77018034458160,-1.06274771690369,0.75176471471786
269,1612326774,40.31170272827148,-86.67351531982422,9.59234714508057,9.82190799713135,0.20340554416180,0.46492901444435,0.57843720912933,-0.59665423631668,0.84164607524872
270,1612343441,40.30750656127930,-86.66716766357422,9.60233211517334,9.77970790863037,0.23744890093803,0.45359346270561,0.73799145221710,-0.66025054454803,0.42380052804947
271,1612360108,40.25839233398438,-86.65901184082031,9.65408802032471,9.81365013122559,0.28328463435173,0.44892236590385,0.59819734096527,-0.48913210630417,0.47574311494827
272,1612376775,40.18193435668945,-86.65555572509766,9.72454357147217,9.81284713745117,0.26855489611626,0.46565583348274,0.24157899618149,-0.64736741781235,0.71186667680740
273,1612393442,40.12735748291016,-86.65350341796875,9.77464008331299,9.80791568756104,0.23964561522007,0.45548060536385,0.25888034701347,-0.75806540250778,0.70367050170898
274,1612410109,40.03584671020508,-86.64724731445312,9.85883426666260,9.80369758605957,0.24452325701714,0.49831581115723,0.08542475849390,-0.49550327658653,0.64086174964905
275,1612426776,39.98344802856445,-86.64076995849609,9.90284824371338,9.79144859313965,0.23296129703522,0.50239276885986,0.02034288458526,-0.57604235410690,0.52469533681870
276,1612443443,39.98059844970703,-86.64135742187500,9.88829040527344,9.76992893218994,0.25643026828766,0.50273263454437,-0.50900125503540,-1.02837562561035,0.63664847612381
277,1612460110,40.01330947875977,-86.63948822021484,9.84135437011719,9.82966327667236,0.21496538817883,0.46962788701057,-0.31622076034546,-0.98787534236908,0.45413875579834
278,1612476777,40.06061553955078,-86.62919616699219,9.79355144500732,9.82827568054199,0.15875183045864,0.51522779464722,0.49973577260971,-0.61379551887512,0.13560003042221
279,1612493444,40.17501449584961,-86.62281036376953,9.68319797515869,9.87752723693848,0.22730197012424,0.50790929794312,0.79551124572754,-0.92018741369247,0.10276455432177
280,1612510111,40.29320907592773,-86.61534118652344,9.55761241912842,9.81679439544678,0.28820878267288,0.51869130134583,0.09914035350084,-0.91717785596848,0.02852614223957
281,1612526778,40.45563125610352,-86.60563659667969,9.39332580566406,9.75258636474609,0.31026914715767,0.49935331940651,0.43850859999657,-0.90259134769440,-0.16695636510849
282,1612543445,40.73935317993164,-86.58900451660156,9.10225009918213,9.74898529052734,0.28307673335075,0.47433763742447,0.12208932638168,-0.88418889045715,-0.78248071670532
283,1612560112,41.14376831054688,-86.56794738769531,8.69697093963623,9.77463054656982,0.27568849921227,0.47432181239128,0.53786039352417,-0.95417565107346,-1.27767682075500
284,1612576779,41.61131668090820,-86.54203796386719,8.23155498504639,9.79823970794678,0.34915700554848,0.46205389499664,0.69596749544144,-0.92063564062119,-1.62193691730499
285,1612593446,42.06216430664062,-86.51547241210938,7.78831291198730,9.87081146240234,0.37888267636299,0.41867873072624,1.04798853397369,-0.84867674112320,-1.61103892326355
286,1612610113,42.40748596191406,-86.48770904541016,7.44311332702637,9.90524673461914,0.38528844714165,0.47605702280998,0.57851403951645,-0.58462905883789,-1.40058553218842
287,1612626780,42.58525848388672,-86.46033477783203,7.24580383300781,9.89148235321045,0.36331924796104,0.47528207302094,-0.61371231079102,-0.24202081561089,-0.99851751327515
288,1612643447,42.63175201416016,-86.43388366699219,7.19381809234619,9.85939121246338,0.38992816209793,0.48217970132828,0.20772540569305,0.06456320732832,-0.55825436115265
289,1612660114,42.66431427001953,-86.41887664794922,7.15076112747192,9.82363796234131,0.42194238305092,0.53658485412598,-0.09029757231474,-0.41279983520508,-0.07708141207695
290,1612676781,42.74510574340820,-86.42237091064453,7.05802679061890,9.75539302825928,0.41334906220436,0.46104922890663,-0.31885886192322,-1.36767327785492,0.53677815198898
291,1612693448,42.69495391845703,-86.43503570556641,7.09139013290405,9.78959083557129,0.40062326192856,0.45872023701668,-0.47850283980370,-1.44059264659882,1.25858247280121
292,1612710115,42.61981964111328,-86.45281982421875,7.14871740341187,9.75401687622070,0.33551025390625,0.44450560212135,-0.54210561513901,-1.61120533943176,1.53442490100861
293,1612726782,42.54293060302734,-86.46520996093750,7.22253417968750,9.74623870849609,0.33301356434822,0.39302176237106,0.33321475982666,-1.33470320701599,1.36159014701843
294,1612743449,42.40961456298828,-86.47142028808594,7.36291074752808,9.78168201446533,0.38731598854065,0.43677297234535,0.94239997863770,-0.88923436403275,1.28408598899841
295,1612760116,42.16278457641602,-86.48408508300781,7.61262226104736,9.79108047485352,0.39146831631660,0.46755987405777,0.67333871126175,-0.92073822021484,1.85194563865662
296,1612776783,41.84592056274414,-86.50794982910156,7.92652511596680,9.84090805053711,0.37153521180153,0.40723416209221,0.31844907999039,-1.26268041133881,2.46529245376587
297,1612793450,41.28499984741211,-86.52678680419922,8.49066257476807,9.86139869689941,0.37708926200867,0.40650942921638,0.65009522438049,-0.46151524782181,2.94717001914978
298,1612810117,40.55274963378906,-86.53768157958984,9.22333908081055,9.83784580230713,0.38817906379700,0.40367305278778,0.47412952780724,0.27002188563347,3.09373259544373
299,1612826784,39.77123260498047,-86.54554748535156,10.00250053405762,9.86080551147461,0.38686290383339,0.49395772814751,0.31297439336777,0.49269872903824,3.10465621948242
300,1612843451,38.82004928588867,-86.55320739746094,10.95248889923096,9.84864044189453,0.37988910079002,0.50971978902817,0.36150407791138,0.85162872076035,3.59016442298889
301,1612860118,37.76414871215820,-86.56339263916016,11.99883747100830,9.84754562377930,0.36940437555313,0.44443583488464,-0.15155033767223,0.87976419925690,3.98936319351196
302,1612876785,36.39608001708984,-86.55036926269531,13.35721683502197,9.84244537353516,0.31888929009438,0.44462385773659,-0.20444056391716,2.59650635719299,4.08493709564209
303,1612893452,35.11273574829102,-86.52915191650391,14.60991001129150,9.77857971191406,0.26592484116554,0.50572884082794,-1.44606125354767,2.71064352989197,3.58590698242188
304,1612910119,34.13182449340820,-86.51918029785156,15.56653881072998,9.78062438964844,0.23698437213898,0.51011085510254,-1.01904594898224,1.50746107101440,3.16808605194092
305,1612926786,33.34519577026367,-86.50246429443359,16.33219528198242,9.78488826751709,0.31157356500626,0.56395441293716,-0.81585407257080,1.41319990158081,2.42043185234070
306,1612943453,32.81367111206055,-86.48854827880859,16.83939361572266,9.75295639038086,0.31598818302155,0.51013100147247,-0.98621058464050,0.74248659610748,1.75659584999084
307,1612960120,32.32223510742188,-86.48487091064453,17.29946517944336,9.76679801940918,0.26924017071724,0.52636182308197,-1.39890801906586,0.12541256844997,1.96049869060516
308,1612976787,31.77111625671387,-86.48459625244141,17.82555389404297,9.79287147521973,0.22897739708424,0.46914234757423,-1.03342771530151,0.06628566980362,2.28702211380005
309,1612993454,31.16531944274902,-86.47814178466797,18.40704536437988,9.82211780548096,0.23472408950329,0.51574099063873,-0.99710869789124,0.47603762149811,2.27751946449280
310,1613010121,30.52856826782227,-86.47047424316406,19.01619911193848,9.84686851501465,0.24789613485336,0.55502754449844,-1.18432486057281,0.58519899845123,2.34178209304810
311,1613026788,29.88524055480957,-86.46315765380859,19.63751029968262,9.84354686737061,0.24282968044281,0.51837301254272,-0.85480469465256,0.57045888900757,2.41338229179382
312,1613043455,29.15675926208496,-86.44389343261719,20.34018135070801,9.87240219116211,0.27238517999649,0.53701061010361,-1.09515416622162,1.31951487064362,2.35120725631714
313,1613060122,28.46694946289062,-86.42127990722656,20.99805831909180,9.82633399963379,0.29562154412270,0.54795980453491,-1.45722818374634,1.40784049034119,2.14747118949890
314,1613076789,27.83188629150391,-86.40681457519531,21.59357261657715,9.79677009582520,0.32216852903366,0.56301832199097,-1.91050899028778,0.85095643997192,2.21233534812927
315,1613093456,27.21575736999512,-86.40392303466797,22.15917587280273,9.79121112823486,0.37977668642998,0.55060315132141,-2.56240940093994,0.16984421014786,2.45862030982971
316,1613110123,26.60785484313965,-86.40201568603516,22.70741844177246,9.79876327514648,0.38029515743256,0.49756106734276,-3.10951042175293,0.06795690953732,2.44019293785095
317,1613126790,25.92892456054688,-86.39533233642578,23.32609176635742,9.84387874603271,0.32941439747810,0.52900618314743,-3.15773224830627,0.42454326152802,2.56517601013184
318,1613143457,25.16997528076172,-86.39332580566406,24.01282882690430,9.80723476409912,0.33872541785240,0.55496466159821,-3.88648986816406,0.25222104787827,2.94041442871094
319,1613160124,24.32161903381348,-86.39831542968750,24.78160285949707,9.78813362121582,0.32313713431358,0.55721414089203,-4.32925748825073,-0.02733515575528,3.41188073158264
320,1613176791,23.41063880920410,-86.41051483154297,25.61496162414551,9.79751396179199,0.31793919205666,0.53755331039429,-4.21451234817505,-0.36251580715179,3.81119561195374
321,1613193458,22.47436523437500,-86.42549133300781,26.48121452331543,9.81151962280273,0.29881578683853,0.51697057485580,-3.77615070343018,-0.53505581617355,3.99407005310059
322,1613210125,21.55462265014648,-86.43399810791016,27.33720779418945,9.79917716979980,0.30762457847595,0.52746152877808,-3.39224219322205,-0.24217449128628,3.80695676803589
323,1613226792,20.66175270080566,-86.44350433349609,28.16948127746582,9.75439071655273,0.29649227857590,0.55964839458466,-3.20865035057068,-0.39825826883316,3.75665307044983
324,1613243459,19.75814437866211,-86.47013854980469,29.01429557800293,9.72739505767822,0.26968029141426,0.56490921974182,-3.08492851257324,-1.38087689876556,4.14218854904175
325,1613260126,18.77635002136230,-86.50251770019531,29.94372367858887,9.74282741546631,0.24339206516743,0.51410353183746,-2.72113800048828,-1.67624247074127,4.51849031448364
326,1613276793,17.69829559326172,-86.53372192382812,30.97046470642090,9.70909786224365,0.23755724728107,0.52157908678055,-2.65759944915771,-1.57872855663300,4.79156684875488
327,1613293460,16.63494873046875,-86.57257080078125,31.97695922851562,9.71820259094238,0.19186031818390,0.49917438626289,-2.42374253273010,-2.10857844352722,4.84705638885498
328,1613310127,15.56559467315674,-86.61511230468750,33.00381088256836,9.73475646972656,0.15734310448170,0.50927895307541,-2.13611197471619,-2.42421627044678,4.88031435012817
329,1613326794,14.37721157073975,-86.66088104248047,34.14961242675781,9.77602005004883,0.17210686206818,0.48904085159302,-2.14482069015503,-2.58080005645752,5.25481128692627
330,1613343461,13.12862968444824,-86.71926879882812,35.35104370117188,9.78804302215576,0.11306636780500,0.47493371367455,-2.40824723243713,-3.37285971641541,5.52284812927246
331,1613360128,11.77915287017822,-86.78137969970703,36.66543197631836,9.84455680847168,0.06113436445594,0.42505544424057,-1.71461689472198,-3.66391038894653,5.82223510742188
332,1613376795,10.30451297760010,-86.81445312500000,38.11450958251953,9.90759277343750,0.10256035625935,0.53206264972687,-1.13227999210358,-1.98292875289917,5.79393911361694
333,1613393462,8.70600891113281,-86.84632110595703,39.67980957031250,9.89805603027344,0.08458180725574,0.56066608428955,-1.60911786556244,-2.00334882736206,6.08509731292725
334,1613410129,6.82883739471436,-86.87212371826172,41.52532577514648,9.93305492401123,0.04381309077144,0.44410550594330,-1.53213882446289,-1.68649387359619,6.86474847793579
335,1613426796,4.72396230697632,-86.83930969238281,43.60496520996094,9.88799762725830,0.04873117804527,0.52473884820938,-1.16322648525238,1.68739700317383,7.25438261032104
336,1613443463,2.51464700698853,-86.82122039794922,45.72866439819336,9.71261310577393,0.02378215827048,0.70788568258286,-4.79194593429565,0.56271755695343,7.60532760620117
337,1613460130,0.02687839791179,-86.85054779052734,48.07176971435547,9.79358673095703,-0.12916912138462,0.62215167284012,-8.35484790802002,-2.55194187164307,8.43822288513184
338,1613476797,-2.54520010948181,-86.84037017822266,50.47693634033203,9.88396072387695,-0.27034822106361,0.57709389925003,-9.68902778625488,-0.52799975872040,8.59337425231934
339,1613493464,-4.88758468627930,-86.81095123291016,52.64152908325195,9.74091625213623,-0.22667747735977,0.68755382299423,-10.31610298156738,0.34974160790443,7.93515062332153
340,1613510131,-7.36551570892334,-86.83022308349609,54.91848754882812,9.77699089050293,-0.20293377339840,0.61869537830353,-11.73928070068359,-2.93321967124939,8.05059623718262
341,1613526798,-9.92678070068359,-86.82812500000000,57.25967407226562,9.95626544952393,-0.14828975498676,0.53429257869720,-12.87746143341064,-2.00450277328491,8.34163475036621
342,1613543465,-12.22920513153076,-86.78746795654297,59.32854080200195,9.93814373016357,-0.22408808767796,0.51839935779572,-13.66859912872314,0.10085648298264,7.89419174194336
343,1613560132,-14.40993022918701,-86.71592712402344,61.24160003662109,9.92678356170654,-0.21144211292267,0.52367043495178,-15.69341659545898,1.73207998275757,7.96616649627686
344,1613576799,-16.64087867736816,-86.65795135498047,63.13949966430664,9.90440082550049,-0.34811657667160,0.60373610258102,-19.63326454162598,0.63112992048264,7.91544389724731
345,1613593466,-18.53699684143066,-86.61782836914062,64.73200225830078,9.87934207916260,-0.68745392560959,0.41660153865814,-17.83998489379883,-0.35572239756584,6.71661186218262
346,1613610133,-19.89050102233887,-86.56208038330078,65.84953308105469,9.75498676300049,-0.80999732017517,0.28327164053917,-13.73445701599121,0.89542073011398,5.52064323425293
347,1613626800,-20.82885932922363,-86.50016784667969,66.59727478027344,9.60116577148438,-0.67868846654892,0.20134237408638,-10.97791481018066,1.58381938934326,4.49125909805298
348,1613643467,-21.64025688171387,-86.44444274902344,67.24014282226562,9.60040283203125,-0.59754532575607,0.09179774671793,-9.64154434204102,1.30567812919617,4.07831811904907
349,1613660134,-22.63804054260254,-86.39538574218750,68.09483337402344,9.65864467620850,-0.60191017389297,-0.08639310300350,-8.16045188903809,0.54638946056366,4.71841812133789
350,1613676801,-23.80048561096191,-86.33115386962891,69.15401458740234,9.78744983673096,-0.66399115324020,-0.28907027840614,-5.78132534027100,1.00789201259613,5.87892913818359
351,1613693468,-25.01831817626953,-86.22239685058594,70.27188110351562,10.06135177612305,-0.62774503231049,-0.19665104150772,-5.55396175384521,3.19469237327576,7.31950330734253
352,1613710135,-26.27151107788086,-86.09490203857422,71.40130615234375,10.03432464599609,-0.69724011421204,-0.02265486121178,-7.05964374542236,3.97500920295715,8.04718685150146
353,1613726802,-27.48985290527344,-85.97698211669922,72.50856018066406,9.83657169342041,-0.74698603153229,0.00511247292161,-6.23424243927002,3.29074645042419,7.95364284515381
354,1613743469,-28.46014404296875,-85.85221099853516,73.39647674560547,9.68787670135498,-0.74063670635223,-0.05518798157573,-4.55580282211304,3.88539624214172,7.51496028900146
355,1613760136,-28.97237586975098,-85.71011352539062,73.84193420410156,9.69839286804199,-0.66475129127502,-0.08539811521769,-3.56298327445984,5.58175802230835,6.47100496292114
356,1613776803,-29.07581138610840,-85.55635833740234,73.89516448974609,9.73939037322998,-0.64695978164673,-0.01705293729901,-2.47530746459961,7.01086235046387,5.35045480728149
357,1613793470,-28.80304718017578,-85.39929962158203,73.61018371582031,9.67649936676025,-0.79882949590683,0.10754484683275,-0.11659543961287,7.94435691833496,4.03571701049805
358,1613810137,-28.40243148803711,-85.25546264648438,73.25240325927734,9.53369045257568,-0.92939180135727,0.18793261051178,3.17813944816589,7.47429895401001,3.25876832008362
359,1613826804,-28.11159133911133,-85.12621307373047,73.04167175292969,9.59937381744385,-0.89825654029846,0.27326491475105,5.38131332397461,6.38156604766846,3.39105200767517
360,1613843471,-27.85991477966309,-85.01218414306641,72.89374542236328,9.58886909484863,-0.78097432851791,0.27802082896233,6.77988767623901,5.43738508224487,3.18175125122070
361,1613860138,-27.53008079528809,-84.92137145996094,72.68287658691406,9.40857410430908,-0.71339952945709,0.26209536194801,7.72935056686401,4.39846944808960,2.20793008804321
362,1613876805,-27.13418769836426,-84.85182189941406,72.40225982666016,9.43019008636475,-0.57368820905685,0.24006000161171,7.50227546691895,3.44381380081177,1.23309159278870
363,1613893472,-26.71855926513672,-84.79621124267578,72.06158447265625,9.48883438110352,-0.54600459337234,0.18121853470802,5.10620594024658,2.85636091232300,0.51642256975174
364,1613910139,-26.26026344299316,-84.73816680908203,71.67675781250000,9.56406402587891,-0.68304061889648,0.07964593917131,5.03826189041138,3.10390090942383,0.31933918595314
365,1613926806,-25.77066040039062,-84.67535400390625,71.25122070312500,9.75848865509033,-0.69141334295273,0.18331921100616,4.48867702484131,3.47224974632263,0.19075058400631
366,1613943473,-25.16476249694824,-84.60588073730469,70.70194244384766,9.89164638519287,-0.74278128147125,0.27265608310699,4.06891727447510,4.13942861557007,-0.33469393849373
367,1613960140,-24.29032135009766,-84.50981140136719,69.87570190429688,9.89249324798584,-0.73751401901245,0.18947371840477,3.64829874038696,6.26210069656372,-1.20313751697540
368,1613976807,-23.10808944702148,-84.38605499267578,68.72550964355469,9.71154594421387,-0.68585443496704,0.43135342001915,2.77278065681458,8.53104209899902,-2.47760033607483
369,1613993474,-21.90822219848633,-84.29250335693359,67.55997467041016,9.68910026550293,-0.60668313503265,0.45573645830154,2.93474245071411,6.87980365753174,-3.57003355026245
370,1614010141,-20.80432891845703,-84.21070861816406,66.46456146240234,9.68689918518066,-0.61550217866898,0.34365656971931,1.36972880363464,6.01571941375732,-3.69261503219604
371,1614026808,-19.66610336303711,-84.11457061767578,65.32051086425781,9.72220993041992,-0.60659235715866,0.41197866201401,0.53722643852234,6.88318395614624,-3.90197348594666
372,1614043475,-18.39665031433105,-84.02066802978516,64.05370330810547,9.71295833587646,-0.70276910066605,0.36969473958015,1.09667205810547,6.94437265396118,-4.93457555770874
373,1614060142,-16.95115089416504,-83.92729949951172,62.65415954589844,9.80669784545898,-0.83064579963684,0.42095923423767,3.75237011909485,7.06689786911011,-6.04576444625854
374,1614076809,-15.45761299133301,-83.82860565185547,61.24391555786133,10.00466537475586,-0.81746023893356,0.38214772939682,6.00999689102173,7.25503110885620,-6.36272954940796
375,1614093476,-14.02339076995850,-83.70698547363281,59.90235900878906,9.96221923828125,-0.78493702411652,0.47210514545441,6.56396198272705,8.33754062652588,-5.94147682189941
376,1614110143,-12.81883049011230,-83.60282135009766,58.79655838012695,9.91649246215820,-0.83512198925018,0.36118152737617,6.86767053604126,6.84006023406982,-5.02992582321167
377,1614126810,-11.79418182373047,-83.48850250244141,57.89124298095703,9.97925281524658,-0.81690323352814,0.18825697898865,8.03162670135498,7.05620574951172,-3.85649251937866
378,1614143477,-10.89184093475342,-83.34168243408203,57.11445999145508,10.10199642181396,-0.77902710437775,0.22169573605061,8.37972450256348,8.75423431396484,-2.85698914527893
379,1614160144,-10.04825305938721,-83.17533111572266,56.41715240478516,10.13836288452148,-0.84356296062469,0.28821206092834,9.59842300415039,9.76576423645020,-2.36980366706848
380,1614176811,-9.29110336303711,-82.99243164062500,55.82282257080078,10.23318481445312,-0.77131199836731,0.30595403909683,10.56271743774414,10.60097026824951,-1.74280488491058
381,1614193478,-8.55031394958496,-82.76684570312500,55.23125076293945,10.28401947021484,-0.95451354980469,0.68137037754059,9.76006603240967,13.11575508117676,-1.60235738754272
382,1614210145,-7.68504953384399,-82.55144500732422,54.52412414550781,10.05353355407715,-1.01571357250214,0.92482721805573,10.36972045898438,12.62372875213623,-2.89531970024109
383,1614226812,-6.57887935638428,-82.36133575439453,53.59198379516602,9.94681262969971,-0.96668016910553,0.88308858871460,11.46571540832520,11.29831123352051,-5.22245407104492
384,1614243479,-5.06874608993530,-82.15865325927734,52.27559280395508,9.96905422210693,-1.07718753814697,1.25675678253174,12.87515735626221,12.23887348175049,-8.70270824432373
385,1614260146,-3.05158758163452,-81.96485900878906,50.52755355834961,9.79145622253418,-1.18520283699036,1.93147802352905,17.68218803405762,11.68263053894043,-12.97993564605713
386,1614276813,-0.60936236381531,-81.72606658935547,48.47315216064453,9.55806446075439,-1.57860589027405,2.48754692077637,25.04788970947266,13.93976211547852,-16.37056350708008
387,1614293480,2.11804628372192,-81.26924896240234,46.47378921508789,9.05824184417725,-2.04858469963074,3.18093037605286,45.53268051147461,26.23320388793945,-17.45162582397461
388,1614310147,4.52216339111328,-80.44165039062500,45.35417175292969,7.58238077163696,-1.99729335308075,3.59825015068054,78.46114349365234,48.02373504638672,-12.89517688751221
389,1614326814,5.70057296752930,-79.29382324218750,45.91845703125000,4.30173492431641,-1.69502234458923,3.59454011917114,104.56887054443359,68.18601226806641,0.42944613099098
390,1614343481,5.22022438049316,-78.12442779541016,48.15761947631836,0.08258517086506,-0.52406799793243,2.36622858047485,103.47182464599609,71.39105224609375,20.13703536987305
391,1614360148,3.05471467971802,-77.18898010253906,51.44441986083984,-3.20848417282104,0.37867581844330,0.20453134179115,63.26850891113281,58.05002975463867,38.61935424804688
392,1614376815,-0.20306047797203,-76.29892730712891,55.02942276000977,-3.56388378143311,0.21615578234196,-1.42795109748840,14.45748043060303,53.63340377807617,48.60001373291016
393,1614393482,-2.37122273445129,-75.23880767822266,57.60715484619141,-2.12860321998596,-0.51205581426620,-2.18321347236633,20.38098907470703,61.76880264282227,40.06736373901367
394,1614410149,-2.56424045562744,-73.96281433105469,58.45390701293945,-0.82508313655853,0.59369641542435,-0.48475432395935,37.94396972656250,74.95259094238281,17.40753555297852
395,1614426816,-1.93320524692535,-72.49298858642578,58.19710540771484,0.34094870090485,1.06167721748352,-0.00209930189885,23.65088653564453,87.34247589111328,-0.34745270013809
396,1614443483,-1.26949346065521,-71.21874237060547,57.83349227905273,0.91246241331100,1.27881908416748,-0.04610628634691,19.63413429260254,75.66184997558594,-4.01718902587891
397,1614460150,-0.49974620342255,-69.94177246093750,57.53009796142578,2.69286656379700,0.79069828987122,1.52612352371216,29.55851554870605,75.74594879150391,-4.23027324676514
398,1614476817,1.26124036312103,-69.17115020751953,56.39122009277344,3.87535929679871,-0.07194089889526,2.61921000480652,42.16996765136719,45.11863708496094,-23.53441619873047
399,1614493484,4.02036762237549,-68.76457977294922,54.19278335571289,3.37061786651611,0.12152171134949,0.55177229642868,42.96837997436523,21.22354888916016,-47.76882171630859
400,1614510151,6.70934486389160,-68.35741424560547,51.61910629272461,1.58578240871429,1.76739907264709,-1.77655839920044,18.14245033264160,18.08300209045410,-57.83229827880859
401,1614526818,8.96244239807129,-68.03170013427734,49.24191665649414,1.35519504547119,3.15643739700317,-1.76833462715149,3.29888749122620,11.17396831512451,-54.50247955322266
402,1614543485,10.54925918579102,-67.60623168945312,47.14279556274414,1.13730311393738,4.35339832305908,-1.21623957157135,-20.87403106689453,16.14644241333008,-50.53792190551758
403,1614560152,11.49556159973145,-67.10502624511719,45.26152038574219,0.17349581420422,3.88855099678040,-1.14428174495697,-46.85203933715820,20.25250244140625,-47.75216293334961
404,1614576819,11.93258476257324,-66.61649322509766,43.64855575561523,-1.17984235286713,2.01898121833801,-0.21476314961910,-62.22571563720703,20.02744483947754,-42.53309249877930
405,1614593486,11.77128314971924,-66.27397918701172,42.70982742309570,-0.81553232669830,-0.84885549545288,0.22899240255356,-60.76337814331055,14.53805446624756,-25.59361648559570
406,1614610153,9.06376171112061,-65.62647247314453,43.19411849975586,4.35363435745239,2.09927892684937,9.37513828277588,-135.36300659179688,39.40536880493164,5.27645826339722
407,1614626820,5.51322603225708,-64.71576690673828,44.56568145751953,22.42741394042969,10.21758460998535,14.03868103027344,-137.78788757324219,57.62813568115234,27.99952507019043
408,1614643487,1.55589151382446,-62.54509353637695,46.17929077148438,36.01053619384766,11.85751247406006,17.99440765380859,-150.10751342773438,131.68611145019531,35.55978393554688
409,1614660154,0.67203557491302,-61.13253021240234,44.59002304077148,10.21979713439941,-10.04597949981689,10.72537231445312,-136.55191040039062,82.90489196777344,-45.96683883666992
410,1614676821,1.46647489070892,-60.40863800048828,44.00269317626953,37.21084213256836,-4.58035898208618,12.07861137390137,17.45741653442383,42.14216995239258,-17.35005378723145
411,1614693488,0.67239511013031,-59.90074539184570,44.94092941284180,28.06845664978027,-2.78347158432007,21.06258392333984,1.73281180858612,30.03631782531738,28.10132217407227
412,1614710155,-0.87725323438644,-59.81644821166992,45.31268692016602,31.79655647277832,-1.46050584316254,14.19487571716309,-73.13849639892578,4.08019495010376,11.86517238616943
413,1614726822,-1.27772879600525,-60.15737533569336,44.37115478515625,34.83519363403320,2.02977824211121,10.63779258728027,-72.39571380615234,-20.87442398071289,-27.98099517822266
414,1614743489,-1.27907192707062,-60.77327728271484,43.30372238159180,31.93027877807617,0.46282571554184,10.51659011840820,-55.25877380371094,-37.18673706054688,-31.73196220397949
415,1614760156,-1.12603831291199,-61.43674087524414,42.18012237548828,34.31000137329102,-1.74142014980316,10.49771118164062,-49.29380798339844,-40.05147552490234,-32.74396514892578
416,1614776823,-1.91275906562805,-62.10396194458008,42.06093597412109,32.86469268798828,-0.95875579118729,10.50318813323975,-52.95671463012695,-40.86011886596680,-3.78728818893433
417,1614793490,-2.51855993270874,-63.33458328247070,42.07910537719727,30.24297332763672,-0.47482341527939,9.70069599151611,-34.83235549926758,-74.72472381591797,-1.70024371147156
418,1614810157,-3.18005466461182,-64.89367675781250,41.82516860961914,30.57359313964844,0.23099207878113,6.57052612304688,-52.85002517700195,-94.01771545410156,-10.63865470886230
419,1614826824,-3.93896031379700,-67.01045989990234,41.68058013916016,28.11049461364746,-2.79011845588684,3.74349570274353,-52.90675354003906,-127.45395660400391,-10.75629520416260
420,1614843491,-4.67731523513794,-70.51558685302734,42.13317489624023,27.36358642578125,-3.53363394737244,1.86024558544159,-18.43368530273438,-211.35591125488281,-5.33576726913452
421,1614860158,-6.24088716506958,-75.86271667480469,43.67077255249023,23.04825401306152,-1.06698429584503,-2.34518814086914,-4.87497854232788,-322.79354858398438,-3.30755853652954
422,1614876825,-10.63677978515625,-81.47126770019531,47.81614303588867,18.41408729553223,-1.31586706638336,-6.37668132781982,-19.05756568908691,-340.75958251953125,-0.36787256598473
423,1614893492,-12.26499557495117,-84.11990356445312,49.72216796875000,14.94410514831543,-4.88805723190308,-6.99286746978760,16.29813003540039,-159.50028991699219,-16.85683822631836
424,1614910159,-2.40590763092041,-79.85049438476562,38.47970581054688,8.36584854125977,-5.38377618789673,13.69686126708984,-76.31157684326172,264.05538940429688,-59.91003417968750
425,1614926826,7.73971939086914,-80.07434844970703,29.46821594238281,1.91768491268158,-3.48687076568604,36.16991424560547,76.80648040771484,-18.63131332397461,-92.75701141357422
426,1614943493,13.11373519897461,-77.87405395507812,24.63468360900879,-6.15953111648560,2.85304450988770,26.40495872497559,38.26033401489258,118.79772949218750,-77.76018524169922
427,1614960160,14.76827621459961,-79.44965362548828,23.00862884521484,-17.71585464477539,3.05571579933167,22.78728675842285,4.12796449661255,-97.32015991210938,4.80427742004395
428,1614976827,17.48755264282227,-82.36288452148438,20.50366783142090,-7.37532472610474,-2.98708558082581,-5.34037446975708,15.20409679412842,-175.48080444335938,26.38288307189941
429,1614993494,13.62506675720215,-83.06593322753906,25.11204147338867,-7.22191381454468,-4.06767702102661,-7.11599445343018,43.05044174194336,-32.18740844726562,45.70588302612305
430,1615010161,10.05399131774902,-85.21500396728516,29.61318397521973,4.26335859298706,4.51939821243286,-5.85606241226196,54.91841125488281,-121.48339843750000,54.04671859741211
431,1615026828,11.27685451507568,-86.02507019042969,28.35535621643066,14.06928062438965,4.08287620544434,-6.05539941787720,-1.38019084930420,-49.82552719116211,3.98756742477417
432,1615043495,11.04222679138184,-85.01564025878906,28.20471954345703,10.09517192840576,0.25820544362068,0.03253862634301,-22.51977539062500,58.38745117187500,-11.77121448516846
433,1615060162,9.77900886535645,-84.33631896972656,29.23633766174316,0.55595684051514,-2.19325876235962,3.99017786979675,-13.60275554656982,40.21322250366211,-1.07600283622742
434,1615076829,8.81567478179932,-83.51409149169922,30.47455596923828,0.34073472023010,-2.38752651214600,4.07331895828247,16.62585067749023,49.02812576293945,0.42895907163620
435,1615093496,9.74208545684814,-82.64590454101562,30.06255149841309,3.46431827545166,-1.71534061431885,6.07968950271606,31.58949470520020,49.99884033203125,-10.69501209259033
436,1615110163,11.60286331176758,-81.86175537109375,28.72500610351562,2.18793511390686,-2.34632134437561,3.89965629577637,32.66989517211914,43.29202651977539,-18.69802474975586
437,1615126830,12.14652061462402,-81.09175109863281,28.50566673278809,-2.14580225944519,-0.69998019933701,3.15506720542908,20.14351654052734,43.85599517822266,-10.77627849578857
438,1615143497,11.48124790191650,-80.22151184082031,29.48057174682617,-4.12948226928711,2.24244141578674,1.28419291973114,18.34368705749512,52.08922195434570,-0.75751662254333
439,1615160164,10.66819763183594,-79.73136138916016,30.31688690185547,-5.43851757049561,2.39477491378784,-1.77262353897095,1.17257213592529,29.57554244995117,3.56137347221375
440,1615176831,9.50942325592041,-79.62240600585938,31.51165199279785,-3.82215929031372,0.66767817735672,-2.80566787719727,1.53700006008148,7.71828365325928,12.14380264282227
441,1615193498,7.98911285400391,-79.47170257568359,33.15382385253906,-1.03433084487915,0.66340380907059,-2.63986611366272,6.21709012985229,10.69036769866943,16.93428039550781
442,1615210165,6.26728487014771,-78.97320556640625,35.01009750366211,0.76245135068893,0.11572716385126,-0.98545944690704,6.64722394943237,31.30166053771973,17.59703445434570
443,1615226832,4.85561609268188,-78.38436889648438,36.61238861083984,2.46353602409363,-1.25097692012787,0.25861275196075,10.10665130615234,36.02783966064453,16.00347137451172
444,1615243499,4.11542320251465,-77.68339538574219,37.62131500244141,3.88982725143433,-2.08788394927979,1.74257707595825,15.35301399230957,41.95412445068359,9.86656570434570
445,1615260166,4.18224477767944,-77.03495025634766,37.93072509765625,2.28231501579285,-1.10669255256653,2.01129531860352,22.66361808776855,38.13807678222656,1.88056159019470
446,1615276833,5.03836154937744,-76.50509643554688,37.46414184570312,-0.32218459248543,-0.40640005469322,0.97844266891479,24.65464019775391,30.21130752563477,-8.29737663269043
447,1615293500,6.34913444519043,-76.07269287109375,36.50038528442383,-0.88369739055634,-0.14697280526161,0.26222732663155,23.00979614257812,23.49323844909668,-15.56699848175049
448,1615310167,7.32587909698486,-75.64775085449219,35.77742004394531,-0.80284863710403,0.43901002407074,0.21599318087101,17.07813835144043,23.08401870727539,-12.91173839569092
449,1615326834,7.64515542984009,-75.31486511230469,35.55538940429688,-0.82115626335144,0.48147815465927,1.21331107616425,6.80413246154785,18.40580368041992,-5.26993560791016
450,1615343501,7.63131904602051,-75.09249877929688,35.62057113647461,-0.32106351852417,0.72767496109009,0.99933409690857,3.49185800552368,12.38685798645020,-0.13807173073292
451,1615360168,7.35813617706299,-74.83663177490234,35.88149261474609,-0.45146411657333,0.42052617669106,0.97602230310440,-0.72889322042465,14.78159999847412,2.66965222358704
452,1615376835,6.98385000228882,-74.58564758300781,36.24800491333008,-1.10136878490448,-0.44163909554482,0.83057302236557,-0.70044392347336,14.69708728790283,4.52069044113159
453,1615393502,6.50951576232910,-74.43482971191406,36.69225311279297,-1.26859128475189,-1.03155291080475,1.53414499759674,-2.23461961746216,8.85093975067139,6.65233182907104
454,1615410169,5.96213912963867,-74.61418914794922,37.29739379882812,-1.53087186813354,-0.60502499341965,0.37238958477974,2.69080853462219,-10.61755466461182,11.44555759429932
455,1615426836,5.33390903472900,-74.92790222167969,38.01521301269531,-1.62805366516113,0.04820638522506,-0.71577632427216,4.40123796463013,-18.59073448181152,13.75732040405273
456,1615443503,4.43411254882812,-75.17358398437500,38.98623275756836,-0.68995791673660,1.12641847133636,0.50958836078644,2.84424996376038,-14.37789344787598,16.87652397155762
457,1615460170,3.06995534896851,-75.37212371826172,40.32212448120117,7.42552661895752,-3.84038233757019,10.21410751342773,-3.79062986373901,-11.52710342407227,21.75863838195801
458,1615476837,0.68810868263245,-75.82624053955078,43.13007354736328,29.04526710510254,4.76529502868652,9.23641872406006,20.81364250183105,-26.83017349243164,43.41094589233398
459,1615493504,0.47712144255638,-74.61644744873047,43.22026062011719,97.04113769531250,-6.87371110916138,33.39337539672852,-6.88077163696289,71.62584686279297,1.29755651950836
460,1615510171,-0.00167715316638,-73.19142913818359,44.50696945190430,29.30862236022949,6.58104324340820,4.89213037490845,45.99487686157227,84.60392761230469,21.69650268554688
461,1615526838,-0.26596617698669,-73.23331451416016,44.55354690551758,3.97576045989990,8.11851119995117,-5.12670230865479,-12.64232730865479,-3.49609041213989,1.45852899551392
462,1615543505,0.35737612843513,-74.51169586181641,43.73725509643555,38.08327102661133,-1.58032405376434,-3.99679565429688,-9.11703681945801,-77.68885040283203,-12.87746047973633
463,1615560172,0.40322715044022,-75.08184051513672,43.12474441528320,30.40297698974609,-0.37534043192863,0.42033261060715,-32.17189025878906,-35.23132705688477,-8.74345493316650
464,1615576839,0.29402971267700,-75.49191284179688,42.93803024291992,30.78740119934082,-2.05712437629700,3.84610438346863,-16.84930419921875,-25.57305717468262,-2.03063225746155
465,1615593506,1.23807561397552,-75.30697631835938,42.07025527954102,22.63838958740234,-2.74674940109253,5.28343248367310,6.79604148864746,9.97300529479980,-12.60600566864014
466,1615610173,2.27976393699646,-74.97399139404297,41.19021987915039,15.07302570343018,-1.80372738838196,3.42300868034363,12.00326728820801,18.60961914062500,-13.48287200927734
467,1615626840,3.11494231224060,-74.74285125732422,40.41794586181641,10.06832885742188,0.82395857572556,1.09241890907288,5.92284727096558,12.33810520172119,-12.07917976379395
468,1615643507,3.89192724227905,-74.41146850585938,39.62997436523438,8.10619544982910,1.66129922866821,1.77210712432861,1.58211839199066,18.13467407226562,-13.09951019287109
469,1615660174,4.41177225112915,-74.23108673095703,39.00447082519531,4.34512042999268,1.03267431259155,1.55580163002014,-4.40387630462646,9.11694335937500,-10.23169136047363
470,1615676841,4.83288526535034,-74.39956665039062,38.50431823730469,2.81521773338318,0.22941990196705,1.50898098945618,-3.08729219436646,-11.67430019378662,-6.60244512557983
471,1615693508,5.81425428390503,-74.68080139160156,37.41231155395508,2.27082681655884,-0.41471680998802,0.85066187381744,-3.72851920127869,-19.36300659179688,-15.15287017822266
472,1615710175,6.77859449386597,-74.87560272216797,36.26844024658203,1.10106432437897,-0.40496307611465,0.65586984157562,-7.82662773132324,-14.53844738006592,-15.95790767669678
473,1615726842,7.59731149673462,-75.11206054687500,35.33403778076172,1.45371723175049,-0.29549595713615,1.53931522369385,-4.49268007278442,-16.83775329589844,-11.95460700988770
474,1615743509,8.34712123870850,-75.46863555908203,34.60138702392578,4.15812397003174,-0.38867238163948,2.60811853408813,3.00881338119507,-23.68220329284668,-7.41644144058228
475,1615760176,8.82084369659424,-75.62789154052734,34.23689651489258,6.48996877670288,-0.19892430305481,2.74973416328430,7.78063058853149,-11.21122932434082,-3.29892420768738
476,1615776843,8.71825218200684,-75.67750549316406,34.45467376708984,6.75759267807007,0.23688715696335,3.68407249450684,7.04409551620483,-3.39377927780151,4.32587099075317
477,1615793510,8.05542182922363,-75.82862091064453,35.26604843139648,8.35439491271973,0.85440778732300,3.69775724411011,7.95106172561646,-8.17228603363037,13.84557437896729
478,1615810177,7.26354789733887,-76.03940582275391,36.23064422607422,10.43753814697266,1.41072165966034,4.06665992736816,9.16818904876709,-11.60528659820557,16.29858589172363
479,1615826844,6.99958276748657,-76.42926025390625,36.63162994384766,12.48542594909668,1.16493499279022,3.65234947204590,8.06559181213379,-23.45279884338379,9.25873756408691
480,1615843511,7.15702629089355,-76.85909271240234,36.59885787963867,12.80082130432129,0.82527995109558,3.03903293609619,8.06995010375977,-26.60229110717773,3.40300846099854
481,1615860178,7.36973047256470,-77.30020904541016,36.46534729003906,10.97552776336670,0.68674945831299,2.58596324920654,5.48852252960205,-27.43256378173828,2.24622750282288
482,1615876845,7.71912050247192,-77.76106262207031,36.19939804077148,9.35135650634766,0.12552978098392,2.30391931533813,5.91911315917969,-28.81313896179199,0.89359152317047
483,1615893512,8.12174606323242,-78.19106292724609,35.86697006225586,8.48405170440674,-0.31397265195847,1.98550152778625,5.18550300598145,-27.07523155212402,0.11869595944881
484,1615910179,8.47359848022461,-78.64183807373047,35.55329895019531,8.93851852416992,-0.51175165176392,1.88668918609619,3.20847940444946,-28.26029968261719,0.84312754869461
485,1615926846,8.77143287658691,-79.06278228759766,35.27181243896484,9.64653968811035,-0.51313507556915,1.67307984828949,1.83585882186890,-26.40920829772949,1.23736524581909
486,1615943513,9.14785575866699,-79.43341064453125,34.90732955932617,9.54872798919678,-0.29710549116135,1.51633036136627,1.63470172882080,-23.55108833312988,0.11260004341602
487,1615960180,9.55471134185791,-79.77001190185547,34.56004333496094,9.19333744049072,-0.14164511859417,1.36183440685272,4.45108461380005,-21.48940277099609,0.25054383277893
488,1615976847,9.79312419891357,-80.10548400878906,34.37387847900391,9.52748203277588,0.18820498883724,1.50429141521454,3.84574055671692,-21.11561203002930,2.13693523406982
489,1615993514,9.89120864868164,-80.42357635498047,34.29844284057617,9.70157146453857,0.26451045274734,1.46172368526459,1.95220279693604,-19.89143371582031,3.18850350379944
490,1616010181,10.19489479064941,-80.70330810546875,34.01392745971680,9.89335536956787,0.32416725158691,1.58021831512451,1.91572320461273,-17.96512603759766,0.85055392980576
491,1616026848,10.76042461395264,-80.96399688720703,33.44777297973633,10.06124019622803,0.63788521289825,1.68242239952087,0.93238645792007,-17.31114006042480,-1.79511904716492
492,1616043515,11.31426811218262,-81.21372222900391,32.85762786865234,10.06131935119629,0.91198402643204,1.67831802368164,-1.21639955043793,-16.70538711547852,-1.83220636844635
493,1616060182,11.59231662750244,-81.48302459716797,32.48480224609375,9.88320159912109,0.92286092042923,1.74804353713989,-4.89450883865356,-17.45123863220215,0.59243518114090
494,1616076849,11.64310646057129,-81.80648040771484,32.28977584838867,9.76774024963379,0.90818673372269,1.66866791248322,-7.99269866943359,-20.30026245117188,2.92544889450073
495,1616093516,11.58163928985596,-82.16338348388672,32.16511154174805,9.66353225708008,0.57140803337097,1.59456956386566,-10.56559371948242,-22.13885879516602,3.97187852859497
496,1616110183,11.55429458618164,-82.54128265380859,31.98149108886719,9.46134567260742,0.11628945916891,1.44809889793396,-12.02108001708984,-23.45259284973145,3.79296159744263
497,1616126850,11.69067573547363,-82.92346191406250,31.65044784545898,9.44481372833252,-0.34321320056915,1.36551427841187,-10.98709297180176,-23.92365074157715,2.84414982795715
498,1616143517,11.95950603485107,-83.29460144042969,31.21693611145020,9.52843856811523,-0.44230142235756,1.17599809169769,-9.16855335235596,-23.39550399780273,2.19411659240723
499,1616160184,12.41473579406738,-83.61687469482422,30.66272735595703,9.92612648010254,-0.34752988815308,0.96340960264206,-5.18903255462646,-20.65094375610352,1.06305670738220
500,1616176851,12.98293781280518,-83.86806488037109,30.05847167968750,10.29531192779541,-0.11493232846260,0.86912071704865,-1.41038370132446,-16.51321983337402,0.14149747788906
501,1616193518,13.54235267639160,-84.05937957763672,29.49926567077637,10.30974388122559,0.14751291275024,0.89676725864410,0.72497439384460,-12.93747043609619,-0.11384852975607
502,1616210185,13.97486305236816,-84.20627593994141,29.05628395080566,10.41911411285400,0.35602030158043,0.94747143983841,0.04473899304867,-10.15781974792480,0.14273320138454
503,1616226852,14.31184482574463,-84.31666564941406,28.67340087890625,10.41957283020020,0.39684620499611,1.02706038951874,-2.09839153289795,-7.92492341995239,0.07431526482105
504,1616243519,14.51446628570557,-84.41419219970703,28.41346168518066,10.35182285308838,0.33727657794952,0.97467321157455,-2.83233594894409,-7.00031709671021,0.65936064720154
505,1616260186,14.47688293457031,-84.47685241699219,28.39152145385742,10.21645641326904,0.22471423447132,0.87148123979568,-3.03178167343140,-4.62431573867798,1.50384974479675
506,1616276853,14.20475101470947,-84.50838470458984,28.60182571411133,10.00926113128662,0.25048166513443,0.89159268140793,-3.22553563117981,-2.47061395645142,2.32366752624512
507,1616293520,13.96849155426025,-84.52997589111328,28.76957321166992,9.81372547149658,0.23018878698349,0.86605101823807,-3.61667346954346,-1.96333515644073,1.92958390712738
508,1616310187,13.87614250183105,-84.56243133544922,28.79100608825684,9.71930789947510,0.05902288854122,0.86422491073608,-3.72133946418762,-2.80204844474792,1.27067148685455
509,1616326854,13.81869029998779,-84.57949829101562,28.79325103759766,9.87396717071533,0.03821450471878,0.78822636604309,-2.77945828437805,-1.94083416461945,0.94248330593109
510,1616343521,13.61791801452637,-84.54177856445312,28.94418334960938,10.10611629486084,0.04486352205276,1.02499210834503,-2.49536228179932,1.45783650875092,0.98146587610245
511,1616360188,13.39253616333008,-84.48036956787109,29.13276100158691,10.08698177337646,0.05254098773003,1.17048048973083,-1.71455883979797,2.89730834960938,0.87395650148392
512,1616376855,13.15031147003174,-84.43155670166016,29.34185409545898,9.87255573272705,0.09867040067911,1.16498148441315,-1.50837039947510,2.18596076965332,1.19072806835175
513,1616393522,12.95193958282471,-84.40773773193359,29.49694824218750,9.75167560577393,0.06674354523420,1.20454144477844,-2.10223913192749,0.65313023328781,1.24297785758972
514,1616410189,12.85492420196533,-84.40297698974609,29.54863548278809,9.81821060180664,0.06570565700531,1.31483721733093,-2.20470929145813,-0.60697621107101,0.91512900590897
515,1616426856,12.79228687286377,-84.42346191406250,29.58050727844238,9.77028751373291,0.14526152610779,1.15054094791412,-1.31103086471558,-2.09280729293823,1.13692212104797
516,1616443523,12.65333271026611,-84.44596862792969,29.68002128601074,9.71052932739258,0.20504054427147,0.86823683977127,-1.85865581035614,-2.13376188278198,1.54570078849792
517,1616460190,12.46904373168945,-84.44173431396484,29.81865692138672,9.68279170989990,0.10910361260176,0.85894453525543,-2.23992013931274,-0.52541893720627,1.41640138626099
518,1616476857,12.34914779663086,-84.44684600830078,29.89855194091797,9.77254104614258,0.07551668584347,0.78042972087860,-1.88748311996460,-1.14571380615234,1.20316946506500
519,1616493524,12.15083599090576,-84.44335174560547,30.06161880493164,9.89294910430908,0.06007095798850,0.76116085052490,-1.62068843841553,-0.53426170349121,1.56432127952576
520,1616510191,11.90689945220947,-84.42642211914062,30.27303504943848,9.89630699157715,0.06630732864141,0.83923858404160,-1.47162902355194,0.30683374404907,1.67596054077148
521,1616526858,11.60302829742432,-84.38103485107422,30.50328636169434,9.94505882263184,0.11907996982336,0.87738734483719,-3.94301152229309,1.99793791770935,1.44799494743347
522,1616543525,11.26476097106934,-84.32156372070312,30.77297973632812,9.95783710479736,0.05877970531583,0.78335487842560,-3.64377832412720,2.88674974441528,1.53446328639984
523,1616560192,10.96827697753906,-84.26472473144531,31.01371765136719,9.89513301849365,0.13671055436134,0.87671452760696,-2.87774038314819,2.67840313911438,1.43535482883453
524,1616576859,10.68987274169922,-84.19776153564453,31.22417640686035,9.81878852844238,0.13411591947079,0.92242240905762,-3.60225963592529,3.23982119560242,1.17644906044006
525,1616593526,10.46817874908447,-84.14475250244141,31.37335014343262,9.86171340942383,0.15594647824764,0.89944380521774,-3.85861754417419,2.35341691970825,0.99398422241211
526,1616610193,10.32188129425049,-84.08911895751953,31.46228599548340,9.88198947906494,0.16797202825546,0.94467729330063,-2.93225765228271,2.43865585327148,0.62092238664627
527,1616626860,10.17876625061035,-84.03536987304688,31.54500007629395,9.80003833770752,0.22404488921165,1.10607206821442,-3.11016321182251,2.32306575775146,0.61574852466583
528,1616643527,9.90899944305420,-83.98128509521484,31.71763038635254,9.73628997802734,0.25749742984772,1.04267990589142,-5.34503221511841,2.43856000900269,1.18317890167236
529,1616660194,9.70357418060303,-83.96925354003906,31.83898925781250,9.85232067108154,0.14380268752575,0.89771038293839,-4.54113864898682,-0.09410747140646,1.31420052051544
530,1616676861,9.56744861602783,-83.95898437500000,31.90375518798828,9.85353660583496,0.05533553287387,0.91111999750137,-3.76619458198547,-0.26752468943596,0.98480206727982
531,1616693528,9.46982002258301,-83.94022369384766,31.94789314270020,9.80850028991699,0.05922830849886,0.93527555465698,-2.68953824043274,0.21300162374973,0.77462404966354
532,1616710195,9.40781211853027,-83.92752838134766,31.97226524353027,9.79022407531738,0.15340799093246,0.97401213645935,-1.72288942337036,-0.16153928637505,0.71253883838654
533,1616726862,9.33697319030762,-83.90973663330078,32.01155853271484,9.78221416473389,0.18810099363327,0.93957817554474,-1.36653983592987,0.15451501309872,0.75741237401962
534,1616743529,9.27491474151611,-83.88631439208984,32.03989791870117,9.75874710083008,0.21509230136871,0.99067270755768,-1.49546134471893,0.47371327877045,0.63666123151779
535,1616760196,9.18983173370361,-83.86649322509766,32.08167266845703,9.74916076660156,0.18634039163589,1.02143204212189,-2.08169794082642,0.26508507132530,0.75901323556900
536,1616776863,9.12132740020752,-83.85069274902344,32.10850143432617,9.75364875793457,0.14442500472069,0.97634702920914,-1.97021842002869,0.02228945307434,0.70370250940323
537,1616793530,9.10416221618652,-83.82804107666016,32.09130859375000,9.85209369659424,0.13335667550564,0.97622746229172,-1.51265394687653,0.39011982083321,0.36024260520935
538,1616810197,9.13165569305420,-83.79167938232422,32.03955841064453,9.85232830047607,0.11196760833263,0.99601930379868,-0.89855748414993,1.15914762020111,0.01007219497114
539,1616826864,9.18105697631836,-83.75257873535156,31.96836662292480,9.74662971496582,0.09979342669249,1.01093411445618,-0.74352383613586,1.30303955078125,-0.14591555297375
540,1616843531,9.28593254089355,-83.73547363281250,31.85425376892090,9.77120876312256,0.09986915439367,1.07035160064697,0.02463301271200,-0.04597479477525,-0.21597908437252
541,1616860198,9.39076995849609,-83.71999359130859,31.74981117248535,9.83700561523438,0.21140365302563,1.10192918777466,0.59386885166168,-0.14425711333752,-0.13949315249920
542,1616876865,9.53138256072998,-83.70356750488281,31.60238838195801,9.75756263732910,0.13811664283276,1.06732952594757,0.18776673078537,-0.12349803745747,-0.43229755759239
543,1616893532,9.71462154388428,-83.69000244140625,31.41908264160156,9.80711078643799,0.08843970298767,1.11344194412231,0.60455578565598,-0.34017506241798,-0.64034307003021
544,1616910199,9.92950916290283,-83.67401885986328,31.21959686279297,9.85209465026855,0.03737981989980,1.21763098239899,1.53356695175171,-0.22528931498528,-0.77381092309952
545,1616926866,10.14680004119873,-83.66094970703125,31.02914619445801,9.78765487670898,0.14045645296574,1.24946188926697,2.21592140197754,-0.39398097991943,-0.69131880998611
546,1616943533,10.34356880187988,-83.65733337402344,30.85140228271484,9.77630615234375,0.10990447551012,1.15378820896149,1.74709975719452,-0.93535012006760,-0.51193386316299
547,1616960200,10.52185916900635,-83.65059661865234,30.70870780944824,9.75026893615723,0.06180494278669,1.14995384216309,2.72979521751404,-0.71182823181152,-0.31804570555687
548,1616976867,10.68302154541016,-83.63951873779297,30.59283828735352,9.79641819000244,0.13745298981667,1.11203765869141,3.29712939262390,-0.42961460351944,-0.19224892556667
549,1616993534,10.78721714019775,-83.62173461914062,30.53404617309570,9.83550071716309,0.18658348917961,1.17881929874420,3.28178715705872,0.03190701827407,0.10261087119579
550,1617010201,10.87020587921143,-83.61273193359375,30.49650382995605,9.77586746215820,0.17320227622986,1.19981539249420,3.27764439582825,-0.45976719260216,0.33866390585899
551,1617026868,10.91541767120361,-83.61033630371094,30.49250984191895,9.76305866241455,0.20091407001019,1.16266191005707,3.00944089889526,-0.81326073408127,0.63323551416397
552,1617043535,10.97353839874268,-83.60938262939453,30.46739387512207,9.81005477905273,0.17063027620316,1.19315207004547,2.53143763542175,-0.91051864624023,0.50890517234802
553,1617060202,11.06218051910400,-83.60929107666016,30.40896606445312,9.84433364868164,0.15975183248520,1.18485951423645,2.37516808509827,-1.00905704498291,0.30114132165909
554,1617076869,11.15963077545166,-83.60021972656250,30.34067726135254,9.85794830322266,0.14463773369789,1.13733053207397,2.31824398040771,-0.48940110206604,0.13203346729279
555,1617093536,11.24422931671143,-83.58525085449219,30.28172683715820,9.84067916870117,0.14276650547981,1.16614282131195,2.09392786026001,-0.14302772283554,0.12484911084175
556,1617110203,11.32866001129150,-83.56880187988281,30.21810913085938,9.81198978424072,0.17364113032818,1.26258099079132,1.81386578083038,-0.05226911604404,0.07339318841696
557,1617126870,11.46261119842529,-83.56886291503906,30.10403823852539,9.78060245513916,0.17327478528023,1.27690720558167,1.77062511444092,-1.10295963287354,-0.06424944847822
558,1617143537,11.59513854980469,-83.57059478759766,29.98812675476074,9.76626682281494,0.16609473526478,1.24182498455048,1.57968235015869,-1.19794428348541,-0.05716754496098
559,1617160204,11.73613834381104,-83.56221771240234,29.86182212829590,9.78137302398682,0.15893109142780,1.28048157691956,1.46453404426575,-0.62566059827805,-0.24655425548553
560,1617176871,11.87062168121338,-83.55883789062500,29.73707389831543,9.79363918304443,0.17026923596859,1.28367829322815,1.16958475112915,-0.91544908285141,-0.17698375880718
561,1617193538,12.01158237457275,-83.56446838378906,29.60320472717285,9.76644611358643,0.19198878109455,1.24381160736084,1.01220762729645,-1.46001362800598,-0.12625780701637
562,1617210205,12.15354728698730,-83.57481384277344,29.46682548522949,9.75252914428711,0.15097711980343,1.24653911590576,0.92525231838226,-1.74212455749512,-0.07942496985197
563,1617226872,12.35053062438965,-83.58788299560547,29.27990531921387,9.73608875274658,0.14425975084305,1.18324720859528,1.21723723411560,-1.96829771995544,-0.37327954173088
564,1617243539,12.56403923034668,-83.60693359375000,29.08309173583984,9.77584266662598,0.10718025267124,1.16671979427338,1.60382246971130,-2.35060548782349,-0.35217460989952
565,1617260206,12.72799301147461,-83.62997436523438,28.94375038146973,9.87601280212402,0.07935153692961,1.10630261898041,2.06820631027222,-2.49999141693115,0.08375993371010
566,1617276873,12.85997104644775,-83.64433288574219,28.84807586669922,9.92065238952637,0.10792691260576,1.09970510005951,2.74972796440125,-1.92190635204315,0.25528177618980
567,1617293540,12.99316406250000,-83.64908599853516,28.75302124023438,9.89806747436523,0.13086465001106,1.13773047924042,2.86544656753540,-1.35811996459961,0.13387759029865
568,1617310207,13.11040973663330,-83.64131164550781,28.68265914916992,9.89986228942871,0.15743364393711,1.10749554634094,3.37760448455811,-0.59134608507156,0.12497078627348
569,1617326874,13.16711807250977,-83.62065124511719,28.67720222473145,9.88111019134521,0.16073705255985,1.16570949554443,3.61475253105164,0.25535222887993,0.36841949820518
570,1617343541,13.16794586181641,-83.60110473632812,28.72277641296387,9.84357929229736,0.23109260201454,1.24325251579285,3.30535721778870,0.26772955060005,0.71464550495148
571,1617360208,13.11780166625977,-83.58999633789062,28.80803680419922,9.74135017395020,0.21634456515312,1.20330464839935,2.61569023132324,-0.16027145087719,1.08904564380646
572,1617376875,13.04297828674316,-83.58638000488281,28.90635108947754,9.81030750274658,0.16545186936855,1.25022077560425,1.90746116638184,-0.58719676733017,1.27873325347900
573,1617393542,13.02943515777588,-83.58821868896484,28.95836067199707,9.79530143737793,0.12476431578398,1.26160013675690,2.82604765892029,-0.97279590368271,1.05075454711914
574,1617410209,13.04981899261475,-83.58983612060547,28.97115325927734,9.88188648223877,0.21634660661221,1.12634491920471,2.52704524993896,-1.01348173618317,0.78964596986771
575,1617426876,13.04016304016113,-83.57007598876953,28.99601173400879,9.81627082824707,0.19967487454414,1.16632509231567,1.43904948234558,0.24817423522472,0.58097285032272
576,1617443543,13.00481033325195,-83.55217742919922,29.04231262207031,9.78246402740479,0.21583685278893,1.17849731445312,1.17524516582489,0.17125292122364,0.74737221002579
577,1617460210,12.90420627593994,-83.54351043701172,29.14907836914062,9.81186008453369,0.23724606633186,1.23253595829010,0.86380755901337,-0.27838441729546,1.27069091796875
578,1617476877,12.81667041778564,-83.55274963378906,29.23959541320801,9.78691101074219,0.24993415176868,1.24537312984467,0.68641388416290,-1.34174680709839,1.40274989604950
579,1617493544,12.73044776916504,-83.56742858886719,29.33594703674316,9.72013092041016,0.19179634749889,1.22105407714844,1.11236596107483,-1.65570747852325,1.51150155067444
580,1617510211,12.69115924835205,-83.59149169921875,29.38688659667969,9.75803470611572,0.18301165103912,1.15969753265381,1.21929907798767,-2.27402353286743,1.33614408969879
581,1617526878,12.66770172119141,-83.61392974853516,29.42302703857422,9.78973007202148,0.17803262174129,1.12895047664642,1.28040432929993,-2.20631003379822,1.21714103221893
582,1617543545,12.67858123779297,-83.63486480712891,29.42685699462891,9.80386924743652,0.14989070594311,1.15578103065491,1.41612613201141,-2.16851830482483,0.98710054159164
583,1617560212,12.73075389862061,-83.65110015869141,29.39344978332520,9.77562522888184,0.15656040608883,1.15624749660492,1.67607581615448,-1.94331240653992,0.68344289064407
584,1617576879,12.81884002685547,-83.66902923583984,29.32586479187012,9.75424861907959,0.16048608720303,1.20479023456573,1.79974675178528,-2.08352923393250,0.48621231317520
585,1617593546,12.92045497894287,-83.69286346435547,29.24649429321289,9.75581836700439,0.18081657588482,1.20030140876770,1.89291310310364,-2.46537613868713,0.49426755309105
586,1617610213,13.01169109344482,-83.72377777099609,29.17492103576660,9.82208919525146,0.21184213459492,1.15918445587158,1.74882221221924,-2.85142970085144,0.64345496892929
587,1617626880,13.07028198242188,-83.75238800048828,29.13010787963867,9.90759086608887,0.21064420044422,1.15123188495636,1.37709236145020,-2.68531870841980,0.78805160522461
588,1617643547,13.11987876892090,-83.77392578125000,29.08901405334473,9.87794399261475,0.18449142575264,1.16508138179779,1.06522572040558,-2.25951385498047,0.71643197536469
589,1617660214,13.19703769683838,-83.79325103759766,29.01654243469238,9.78853988647461,0.17281192541122,1.16753423213959,0.84645497798920,-2.18011474609375,0.49151414632797
590,1617676881,13.31289291381836,-83.81711578369141,28.90356826782227,9.80368328094482,0.21269817650318,1.17293334007263,0.75075948238373,-2.50270009040833,0.30202493071556
591,1617693548,13.41346931457520,-83.84062957763672,28.80028533935547,9.81147289276123,0.20231781899929,1.14245283603668,0.40530180931091,-2.47532653808594,0.36433425545692
592,1617710215,13.50558853149414,-83.85585784912109,28.70750999450684,9.80964565277100,0.15849842131138,1.12373352050781,0.52861404418945,-1.97504639625549,0.31907659769058
593,1617726882,13.60812759399414,-83.87426757812500,28.61171340942383,9.75981998443604,0.17698033154011,1.11912739276886,0.97793132066727,-2.15690279006958,0.34707766771317
594,1617743549,13.63073348999023,-83.89970397949219,28.59190368652344,9.78094863891602,0.25332230329514,1.09062576293945,0.71045786142349,-2.46232175827026,0.92278718948364
595,1617760216,13.66515445709229,-83.92965698242188,28.55121803283691,9.83697319030762,0.21393056213856,1.10107862949371,0.17551101744175,-2.74789047241211,0.85700088739395
596,1617776883,13.78624439239502,-83.95632934570312,28.42816543579102,9.85374927520752,0.13761435449123,1.11227500438690,0.46241804957390,-2.68033051490784,0.30834487080574
597,1617793550,13.93406677246094,-83.98268890380859,28.29025650024414,9.76958465576172,0.13784413039684,1.12142622470856,1.17653858661652,-2.69097280502319,0.22105681896210
598,1617810217,14.06935024261475,-84.01640319824219,28.16706275939941,9.74252033233643,0.13242861628532,1.12410104274750,1.30054879188538,-3.09660720825195,0.42633616924286
599,1617826884,14.21584320068359,-84.05350494384766,28.03837394714355,9.76451587677002,0.18416364490986,1.11133456230164,1.64601922035217,-3.29960703849792,0.45198088884354
600,1617843551,14.30790328979492,-84.09070587158203,27.96928787231445,9.73645496368408,0.17809437215328,1.07170081138611,1.94150674343109,-3.21017456054688,0.82025969028473
601,1617860218,14.28770542144775,-84.13478851318359,28.01458740234375,9.75818347930908,0.17077496647835,1.14730536937714,2.02446627616882,-3.44659256935120,1.61060345172882
602,1617876885,14.28161811828613,-84.19002532958984,28.05312156677246,9.85495185852051,0.14798465371132,1.03732359409332,2.47610783576965,-4.09209680557251,1.72927987575531
603,1617893552,14.29071140289307,-84.23571014404297,28.07922554016113,9.96682643890381,0.21270470321178,0.93978863954544,2.63631534576416,-3.56840682029724,1.51551651954651
604,1617910219,14.25828933715820,-84.26311492919922,28.13102149963379,9.85535430908203,0.24040585756302,0.96179449558258,1.68435525894165,-2.45292210578918,1.39074409008026
605,1617926886,14.20777988433838,-84.28598022460938,28.19763755798340,9.84628009796143,0.20992641150951,0.95119267702103,1.48517787456512,-2.17928838729858,1.40979969501495
606,1617943553,14.08422374725342,-84.29755401611328,28.34807395935059,9.83809280395508,0.24697153270245,1.02463209629059,2.10573530197144,-1.39705121517181,1.72449028491974
607,1617960220,13.92689800262451,-84.32411956787109,28.52455902099609,9.76780033111572,0.26746475696564,0.99354594945908,1.63694596290588,-2.23252439498901,2.08866453170776
608,1617976887,13.77058887481689,-84.35346984863281,28.69650077819824,9.83049106597900,0.26539003849030,0.97439867258072,1.42142796516418,-2.41474604606628,2.09516978263855
609,1617993554,13.70921897888184,-84.38958740234375,28.76751708984375,9.84706974029541,0.21305857598782,1.01414406299591,1.10233855247498,-2.94593405723572,1.60566651821136
610,1618010221,13.68827915191650,-84.42479705810547,28.79676818847656,9.80023288726807,0.18577840924263,0.99050581455231,1.02052509784698,-2.96316504478455,1.35231208801270
611,1618026888,13.66358852386475,-84.46009826660156,28.83009147644043,9.73418426513672,0.19185313582420,0.98455065488815,1.04435777664185,-2.95687699317932,1.37471032142639
612,1618043555,13.65878105163574,-84.50681304931641,28.83925819396973,9.77053260803223,0.17391271889210,0.95067071914673,0.79731708765030,-3.65693068504333,1.39892089366913
613,1618060222,13.68320083618164,-84.54763793945312,28.82735252380371,9.87239551544189,0.10570169985294,0.95087456703186,1.28368937969208,-3.34966754913330,1.19897532463074
614,1618076889,13.76413917541504,-84.58348083496094,28.77633857727051,9.88423347473145,0.12927703559399,0.98963177204132,2.34853768348694,-3.09598660469055,0.91318893432617
615,1618093556,13.88575744628906,-84.62265777587891,28.68783950805664,9.82594299316406,0.20116059482098,1.00228726863861,2.54722762107849,-3.34544086456299,0.76293182373047
616,1618110223,14.04088306427002,-84.66972351074219,28.56111335754395,9.80066013336182,0.17463983595371,0.93416583538055,2.27500319480896,-3.85862994194031,0.67866611480713
617,1618126890,14.30448341369629,-84.72237396240234,28.33045196533203,9.80390262603760,0.18480165302753,0.96182763576508,2.57139348983765,-4.32018375396729,0.21994267404079
618,1618143557,14.59961795806885,-84.77385711669922,28.07575035095215,9.78676509857178,0.20378224551678,0.93533724546432,3.02061438560486,-4.29673528671265,0.10582527518272
619,1618160224,14.83333587646484,-84.82566070556641,27.87684249877930,9.81542301177979,0.25993818044662,0.89381098747253,2.67986321449280,-4.21506929397583,0.42772567272186
620,1618176891,15.01400756835938,-84.87413024902344,27.71959686279297,9.92512416839600,0.25005841255188,0.89087468385696,1.97944557666779,-3.97767806053162,0.61877083778381
621,1618193558,15.20531272888184,-84.91426849365234,27.54949378967285,9.93995571136475,0.19162490963936,0.88128006458282,1.84846246242523,-3.51069498062134,0.43804761767387
622,1618210225,15.39089393615723,-84.94534301757812,27.38352012634277,9.80917263031006,0.16941352188587,0.93036139011383,1.75133860111237,-2.97535037994385,0.32953935861588
623,1618226892,15.58253192901611,-84.98323822021484,27.21211624145508,9.78092765808105,0.16345675289631,0.91377770900726,1.79106426239014,-3.37584400177002,0.42205250263214
624,1618243559,15.75191593170166,-85.02487945556641,27.06158256530762,9.79442691802979,0.16046698391438,0.89490038156509,1.70001125335693,-3.56334185600281,0.60367226600647
625,1618260226,15.91648578643799,-85.07471466064453,26.90778923034668,9.81247043609619,0.18148912489414,0.88592976331711,1.21779429912567,-4.04089641571045,0.73571205139160
626,1618276893,16.11919975280762,-85.12649536132812,26.71982574462891,9.79503726959229,0.16728034615517,0.89561551809311,1.47438228130341,-4.18695306777954,0.61620318889618
627,1618293560,16.27685928344727,-85.17549896240234,26.57632064819336,9.77614593505859,0.16304065287113,0.88277477025986,1.40864086151123,-3.98049521446228,0.80941891670227
628,1618310227,16.39011573791504,-85.22857666015625,26.47081184387207,9.82297039031982,0.20164762437344,0.85403245687485,1.02903497219086,-4.14629936218262,1.07276868820190
629,1618326894,16.49435043334961,-85.28225708007812,26.36769866943359,9.88940048217773,0.19092948734760,0.78639590740204,0.62068533897400,-4.18291854858398,1.10764682292938
630,1618343561,16.59773445129395,-85.32349395751953,26.26107978820801,9.88758850097656,0.20039327442646,0.84408420324326,0.35645192861557,-3.47185254096985,0.89031022787094
631,1618360228,16.74101448059082,-85.36038208007812,26.12482070922852,9.82159805297852,0.15596435964108,0.84635329246521,0.98108154535294,-3.26219344139099,0.68635624647141
632,1618376895,16.84716415405273,-85.39725494384766,26.02131843566895,9.89879417419434,0.19669917225838,0.68858247995377,0.72035068273544,-3.20220184326172,0.84475159645081
633,1618393562,16.86884880065918,-85.42029571533203,25.98542213439941,9.89032840728760,0.15589547157288,0.67434990406036,-0.30214023590088,-2.30949711799622,0.91851627826691
634,1618410229,16.88930892944336,-85.44035339355469,25.95769882202148,9.84601402282715,0.17438529431820,0.68701034784317,0.10293744504452,-2.14245772361755,0.91040349006653
635,1618426896,16.81347465515137,-85.44654846191406,26.02097320556641,9.80405139923096,0.21499596536160,0.71995484828949,-0.23515658080578,-1.21613574028015,1.08180367946625
636,1618443563,16.69118881225586,-85.46076202392578,26.12245559692383,9.77306938171387,0.20238181948662,0.72686344385147,-0.73077517747879,-1.62240445613861,1.39233195781708
637,1618460230,16.54304313659668,-85.48439025878906,26.24211120605469,9.76864337921143,0.18989887833595,0.76153284311295,-1.19131064414978,-2.14232325553894,1.63473689556122
638,1618476897,16.43546295166016,-85.50839233398438,26.31925392150879,9.78810691833496,0.18222394585609,0.74253112077713,-1.30556893348694,-2.22713971138000,1.44374310970306
639,1618493564,16.36315345764160,-85.52954864501953,26.35075187683105,9.77304458618164,0.16774813830853,0.80411207675934,-1.91688024997711,-2.11782455444336,1.18458104133606
640,1618510231,16.34060668945312,-85.56235504150391,26.33178710937500,9.73404693603516,0.13755235075951,0.79230111837387,-1.94458663463593,-2.85390162467957,1.15305829048157
641,1618526898,16.33779907226562,-85.60239410400391,26.28554344177246,9.78390216827393,0.14620943367481,0.77180403470993,-2.39315438270569,-3.30364751815796,1.15476143360138
642,1618543565,16.30006408691406,-85.64369201660156,26.26950454711914,9.81924343109131,0.15335142612457,0.79122877120972,-2.68752145767212,-3.34626698493958,1.31177985668182
643,1618560232,16.27647781372070,-85.69502258300781,26.23809814453125,9.79681396484375,0.18802025914192,0.78930878639221,-2.75740575790405,-3.94153237342834,1.41309118270874
644,1618576899,16.24776268005371,-85.75315093994141,26.20037460327148,9.85449600219727,0.15700669586658,0.74003976583481,-3.44768714904785,-4.34620666503906,1.50197362899780
645,1618593566,16.22439765930176,-85.80651855468750,26.15401077270508,9.85927581787109,0.13945624232292,0.72262996435165,-3.63194513320923,-4.06893634796143,1.38190114498138
646,1618610233,16.21158790588379,-85.86000823974609,26.09768104553223,9.79732799530029,0.13902629911900,0.71537709236145,-3.60972595214844,-4.10411500930786,1.34841263294220
647,1618626900,16.21151161193848,-85.91218566894531,26.02671813964844,9.80929088592529,0.09330894052982,0.69510167837143,-3.71631360054016,-4.04579544067383,1.26841163635254
648,1618643567,16.18370819091797,-85.96250152587891,25.98752403259277,9.80025100708008,0.06673523038626,0.72108757495880,-3.48314213752747,-3.89601898193359,1.36869180202484
649,1618660234,16.18078231811523,-86.01356506347656,25.92941284179688,9.77780437469482,0.07613588869572,0.71030086278915,-3.11739253997803,-3.95792436599731,1.30555641651154
650,1618676901,16.19327926635742,-86.06209564208984,25.86305809020996,9.78448677062988,0.11306803673506,0.67909818887711,-2.68557500839233,-3.82215094566345,1.23437833786011
651,1618693568,16.20554924011230,-86.10997009277344,25.79839897155762,9.81114292144775,0.13656331598759,0.66570860147476,-2.58758091926575,-3.76954340934753,1.23001170158386
652,1618710235,16.18818092346191,-86.15998077392578,25.76581192016602,9.84558200836182,0.11630707234144,0.65828150510788,-2.46676611900330,-3.87391567230225,1.39804387092590
653,1618726902,16.10001564025879,-86.20930480957031,25.80895614624023,9.86580371856689,0.10626181215048,0.66775500774384,-2.16679620742798,-3.73575353622437,1.67222142219543
654,1618743569,15.94013881683350,-86.25294494628906,25.92122650146484,9.86507225036621,0.13066567480564,0.68232744932175,-2.33461046218872,-3.33965301513672,1.83167314529419
655,1618760236,15.75778961181641,-86.29361724853516,26.05485153198242,9.84506320953369,0.09686594456434,0.65739154815674,-2.40368151664734,-3.15106010437012,1.85211849212646
656,1618776903,15.54654693603516,-86.32794952392578,26.22678184509277,9.81286430358887,0.08083740621805,0.67497104406357,-1.84398651123047,-2.75196981430054,1.87937688827515
657,1618793570,15.40577697753906,-86.36100006103516,26.32677650451660,9.78358364105225,0.10572604089975,0.70720666646957,-1.92606234550476,-2.75969195365906,1.58367812633514
658,1618810237,15.37109375000000,-86.39826202392578,26.31431579589844,9.80976581573486,0.11642386764288,0.62096244096756,-2.29592275619507,-3.12092089653015,1.23391127586365
659,1618826904,15.36667060852051,-86.43103027343750,26.27385711669922,9.92681217193604,0.10960933566093,0.65422123670578,-2.14394927024841,-2.87384748458862,1.05824637413025
660,1618843571,15.35545921325684,-86.45503234863281,26.25173759460449,9.88105392456055,0.08847326040268,0.75848436355591,-1.47517621517181,-2.37646174430847,0.99289554357529
661,1618860238,15.39158916473389,-86.48364257812500,26.19412994384766,9.82181930541992,0.11926814168692,0.66392201185226,-0.73399585485458,-2.64469051361084,0.93189883232117
662,1618876905,15.37713623046875,-86.50100708007812,26.18180847167969,9.85790061950684,0.11006237566471,0.57855194807053,-1.07071971893311,-1.96062016487122,0.91698586940765
663,1618893572,15.41663837432861,-86.51709747314453,26.12095832824707,9.82401561737061,0.10006986558437,0.63271957635880,-0.73453384637833,-1.93498837947845,0.72740715742111
664,1618910239,15.42299938201904,-86.52284240722656,26.09550476074219,9.81467056274414,0.10711463540792,0.62621921300888,-0.60382580757141,-1.29962038993835,0.68659967184067
665,1618926906,15.39697837829590,-86.52926635742188,26.10222434997559,9.77909564971924,0.11923984438181,0.67809170484543,-0.62741512060165,-1.31884276866913,0.81229400634766
666,1618943573,15.37962722778320,-86.55117034912109,26.10063171386719,9.76634788513184,0.10344006121159,0.69321876764297,-0.59035992622375,-2.20037436485291,1.02406620979309
667,1618960240,15.46419048309326,-86.58293151855469,26.00273323059082,9.77785110473633,0.08521026372910,0.67161697149277,-0.25806716084480,-2.88187026977539,0.85405552387238
668,1618976907,15.68897533416748,-86.61360931396484,25.76999473571777,9.77348518371582,0.06460274010897,0.67068946361542,0.08299795538187,-2.94854044914246,0.38337090611458
669,1618993574,16.01873016357422,-86.64287567138672,25.44178390502930,9.78558349609375,0.04714864492416,0.66691172122955,0.66276711225510,-2.94752883911133,0.05077717825770
670,1619010241,16.40260124206543,-86.66951751708984,25.06821441650391,9.78584861755371,0.03554816171527,0.68306380510330,1.19152855873108,-2.84820270538330,-0.12160269916058
671,1619026908,16.83869743347168,-86.69903564453125,24.65122413635254,9.83626747131348,0.06136842817068,0.70879650115967,1.71612763404846,-3.07134032249451,-0.18916900455952
