sep=,
DeviceTag:,Xsens_DOT_3
FirmwareVersion:,3.0.0
AppVersion:,2023.6.0
StartTime: ,2025-04-09_11:00:30_000 CEST
© Movella Technologies B. V. 2005-2025

PacketCounter,SampleTimeFine,Euler_X,Euler_Y,Euler_Z,Acc_X,Acc_Y,Acc_Z,Gyr_X,Gyr_Y,Gyr_Z
0,2285123563,161.95669555664062,-88.29521942138672,-165.03253173828125,0.00000000000000,0.00000000000000,0.00000000000000,0.00000000000000,0.00000000000000,0.00000000000000
1,2285140230,162.54846191406250,-88.27956390380859,-165.63429260253906,9.79107284545898,0.07336881011724,-0.42102923989296,0.56080925464630,-0.58034539222717,1.06499528884888
2,2285156897,163.15187072753906,-88.26044464111328,-166.23535156250000,9.76809024810791,0.03104228526354,-0.43450748920441,1.28905534744263,-0.76508980989456,1.02853572368622
3,2285173564,163.59191894531250,-88.24431610107422,-166.67623901367188,9.78019809722900,0.04627010226250,-0.40473553538322,1.09567916393280,-0.51975852251053,0.81492561101913
4,2285190231,163.88182067871094,-88.23564147949219,-166.97825622558594,9.80000591278076,0.03476073592901,-0.50731718540192,0.41202512383461,0.01637291908264,0.71516418457031
5,2285206898,164.16929626464844,-88.23708343505859,-167.25917053222656,9.80127906799316,0.04483432695270,-0.49307429790497,1.53320801258087,0.56780153512955,0.83567184209824
6,2285223565,164.45909118652344,-88.24075317382812,-167.52812194824219,9.75612735748291,0.03930091485381,-0.50471800565720,2.39082384109497,0.71941596269608,0.85375458002090
7,2285240232,164.52600097656250,-88.24721527099609,-167.59417724609375,9.76863193511963,0.05589309334755,-0.41529676318169,1.18317222595215,0.97205948829651,0.53138023614883
8,2285256899,164.40225219726562,-88.25527191162109,-167.45620727539062,9.79812240600586,0.03549282997847,-0.37618431448936,1.98979318141937,1.18832063674927,0.19872254133224
9,2285273566,164.12358093261719,-88.26753997802734,-167.20942687988281,9.82909297943115,0.09745164215565,-0.41013681888580,-0.78057265281677,1.45936691761017,0.07182441651821
10,2285290233,163.99057006835938,-88.27342987060547,-167.08148193359375,9.76476383209229,0.06738346070051,-0.44783613085747,0.82285279035568,1.04584980010986,0.18462274968624
11,2285306900,163.81347656250000,-88.27796173095703,-166.91156005859375,9.76767730712891,0.14730115234852,-0.32912445068359,0.70073151588440,0.99918347597122,0.09360802173615
12,2285323567,163.53005981445312,-88.28479766845703,-166.66465759277344,9.78026294708252,0.01787920854986,-0.41550922393799,-1.06094205379486,1.13420081138611,-0.00978405214846
13,2285340234,163.17063903808594,-88.28366088867188,-166.30801391601562,9.77801132202148,0.02268419787288,-0.39895102381706,0.95368254184723,0.78032290935516,-0.32023561000824
14,2285356901,162.86622619628906,-88.27455902099609,-166.00920104980469,9.75414943695068,0.11801546066999,-0.33925092220306,0.79122108221054,0.26724928617477,-0.36950162053108
15,2285373568,162.44129943847656,-88.26539611816406,-165.64416503906250,9.77784824371338,0.07008306682110,-0.32335358858109,-2.47045993804932,0.31094455718994,-0.48840853571892
16,2285390235,162.00610351562500,-88.25448608398438,-165.26354980468750,9.76558303833008,0.02257155440748,-0.46017897129059,-2.15181279182434,0.22251674532890,-0.55514246225357
17,2285406902,161.64666748046875,-88.23908233642578,-164.93045043945312,9.75824356079102,0.08742039650679,-0.48220473527908,-0.45760929584503,-0.02312826551497,-0.55332392454147
18,2285423569,161.31019592285156,-88.22216033935547,-164.63009643554688,9.77229309082031,0.14505578577518,-0.40251713991165,-1.05661356449127,-0.13268658518791,-0.53635549545288
19,2285440236,160.90536499023438,-88.21195220947266,-164.28359985351562,9.84020042419434,0.09706966578960,-0.36407700181007,-2.37687158584595,0.28041425347328,-0.49820548295975
20,2285456903,160.62036132812500,-88.20452117919922,-164.02381896972656,9.84565734863281,0.09034612774849,-0.41069555282593,-0.38571444153786,0.38753935694695,-0.29399535059929
21,2285473570,160.49346923828125,-88.19171142578125,-163.90480041503906,9.78626251220703,0.16700887680054,-0.44376084208488,0.65621656179428,-0.00767100276425,-0.15361216664314
22,2285490237,160.54158020019531,-88.17083740234375,-163.96466064453125,9.73483276367188,0.12186674773693,-0.35963779687881,0.43315556645393,-0.57540208101273,0.00765179377049
23,2285506904,160.64758300781250,-88.14681243896484,-164.08583068847656,9.73680782318115,0.09667942672968,-0.41649588942528,0.22664037346840,-0.77921521663666,0.06598471850157
24,2285523571,160.88241577148438,-88.11518859863281,-164.33404541015625,9.74332618713379,0.10860419273376,-0.42138078808784,0.33479002118111,-1.31863152980804,0.15154394507408
25,2285540238,161.16812133789062,-88.07390594482422,-164.63761901855469,9.71606063842773,0.07815295457840,-0.39770135283470,0.06837949156761,-1.87458062171936,0.09736027568579
26,2285556905,161.46702575683594,-88.02573394775391,-164.97550964355469,9.76812648773193,0.11300430446863,-0.37032905220985,-1.19191253185272,-2.32747697830200,0.04749234765768
27,2285573572,161.68449401855469,-87.97560882568359,-165.23782348632812,9.78604507446289,0.13989700376987,-0.38997724652290,-1.55367910861969,-2.36119651794434,-0.09976146370173
28,2285590239,161.95024108886719,-87.92981719970703,-165.54264831542969,9.74300861358643,0.09992432594299,-0.50314480066299,-1.20035195350647,-2.17645192146301,0.08539914339781
29,2285606906,162.29566955566406,-87.88031005859375,-165.91993713378906,9.73350811004639,0.15672478079796,-0.52577602863312,-0.76338642835617,-2.43319320678711,0.20225706696510
30,2285623573,162.71527099609375,-87.83364105224609,-166.37258911132812,9.80859851837158,0.10093858838081,-0.47479063272476,-0.83327078819275,-2.31525993347168,0.45797431468964
31,2285640240,163.13525390625000,-87.79106140136719,-166.81964111328125,9.78728389739990,0.02347846329212,-0.51816302537918,-0.47790738940239,-2.11042261123657,0.55178076028824
32,2285656907,163.56446838378906,-87.74779510498047,-167.25357055664062,9.76860332489014,0.11975283175707,-0.52439689636230,0.86551070213318,-2.10579919815063,0.56029695272446
33,2285673574,163.94439697265625,-87.70569610595703,-167.65933227539062,9.76327228546143,0.07566753774881,-0.54926955699921,-0.39994230866432,-2.04229283332825,0.54779797792435
34,2285690241,164.29609680175781,-87.66393280029297,-168.02952575683594,9.76395702362061,0.08672321587801,-0.56124132871628,0.04254909232259,-2.01068639755249,0.50173354148865
35,2285706908,164.57810974121094,-87.62966918945312,-168.32514953613281,9.77207756042480,0.06024491041899,-0.58140039443970,0.33450824022293,-1.55901932716370,0.46553000807762
36,2285723575,164.82550048828125,-87.60183715820312,-168.57582092285156,9.77438259124756,0.05310197174549,-0.60705679655075,0.96030336618423,-1.11647045612335,0.48955476284027
37,2285740242,165.07977294921875,-87.57714843750000,-168.81816101074219,9.77530097961426,0.11766327172518,-0.58477830886841,1.85510861873627,-0.95220339298248,0.52591198682785
38,2285756909,165.27375793457031,-87.55904388427734,-169.00410461425781,9.79935264587402,0.10240551084280,-0.55511569976807,1.62332665920258,-0.53212946653366,0.50018405914307
39,2285773576,165.44403076171875,-87.54784393310547,-169.17222595214844,9.77787017822266,0.09195511788130,-0.59106349945068,1.26827692985535,-0.13939072191715,0.56144320964813
40,2285790243,165.66874694824219,-87.53947448730469,-169.38000488281250,9.73885822296143,0.08027579635382,-0.62184244394302,2.15655732154846,0.03153563663363,0.71554845571518
41,2285806910,165.93937683105469,-87.53026580810547,-169.63087463378906,9.75459194183350,0.08456412702799,-0.56093257665634,2.32677936553955,-0.07802908867598,0.80797183513641
42,2285823577,166.08512878417969,-87.52536010742188,-169.76840209960938,9.80650520324707,0.10751277208328,-0.51767373085022,1.63138175010681,0.26792803406715,0.59397780895233
43,2285840244,166.20184326171875,-87.52416992187500,-169.87446594238281,9.78922939300537,0.07740804553032,-0.56088948249817,1.77465903759003,0.48477795720100,0.56429255008698
44,2285856911,166.31697082519531,-87.52124786376953,-169.97602844238281,9.73656654357910,0.09710076451302,-0.58498305082321,1.95092546939850,0.40791422128677,0.53431290388107
45,2285873578,166.46472167968750,-87.51548767089844,-170.11415100097656,9.74788570404053,0.11060120910406,-0.52628397941589,1.71626186370850,0.20851935446262,0.58427041769028
46,2285890245,166.62391662597656,-87.51061248779297,-170.26594543457031,9.77870273590088,0.05870795622468,-0.53990536928177,1.58454895019531,0.26941362023354,0.63771140575409
47,2285906912,166.72441101074219,-87.51280975341797,-170.36474609375000,9.79213523864746,0.05020773783326,-0.53196847438812,1.23894393444061,0.68093281984329,0.59416985511780
48,2285923579,166.80537414550781,-87.51777648925781,-170.43733215332031,9.77972412109375,0.08586095273495,-0.58060443401337,1.63755428791046,0.88911277055740,0.57169461250305
49,2285940246,166.85949707031250,-87.52069091796875,-170.48260498046875,9.75683403015137,0.11003012210131,-0.52787172794342,1.66230893135071,0.75711780786514,0.46706676483154
50,2285956913,166.88461303710938,-87.52488708496094,-170.50318908691406,9.76564502716064,0.10610695183277,-0.54931128025055,1.40323662757874,0.87292557954788,0.42863494157791
51,2285973580,166.93522644042969,-87.52970886230469,-170.54673767089844,9.76619625091553,0.08834883570671,-0.49857032299042,1.55065035820007,0.88269686698914,0.49147567152977
52,2285990247,166.94277954101562,-87.53479003906250,-170.56225585937500,9.76524448394775,0.07614638656378,-0.50941413640976,0.66017377376556,0.90275168418884,0.42120727896690
53,2286006914,166.97923278808594,-87.53947448730469,-170.59533691406250,9.76398277282715,0.04363123700023,-0.52675318717957,1.33404386043549,0.87342512607574,0.46107342839241
54,2286023581,167.05760192871094,-87.53740692138672,-170.66348266601562,9.75379467010498,0.06576219946146,-0.51049029827118,1.75360524654388,0.47295764088631,0.46172645688057
55,2286040248,167.06924438476562,-87.53335571289062,-170.67701721191406,9.76230907440186,0.15174825489521,-0.44939652085304,1.02588462829590,0.38496524095535,0.29647335410118
56,2286056915,167.03204345703125,-87.52773284912109,-170.65129089355469,9.77486896514893,0.04309687390924,-0.50372666120529,0.43272012472153,0.30707705020905,0.17487709224224
57,2286073582,167.02496337890625,-87.51753997802734,-170.64122009277344,9.76243591308594,0.10417319089174,-0.51794916391373,1.31409168243408,0.05179528892040,0.15762697160244
58,2286090249,167.02978515625000,-87.50276184082031,-170.65339660644531,9.77661037445068,0.13162565231323,-0.46673417091370,0.67064923048019,-0.24816140532494,0.14857284724712
59,2286106916,167.08439636230469,-87.48308563232422,-170.71578979492188,9.73667907714844,0.07815330475569,-0.51661807298660,0.65305340290070,-0.56889641284943,0.21241250634193
60,2286123583,167.24743652343750,-87.45255279541016,-170.88168334960938,9.69973278045654,0.09953751415014,-0.50224125385284,1.01798319816589,-1.26026010513306,0.33847823739052
61,2286140250,167.43669128417969,-87.40957641601562,-171.07252502441406,9.72751903533936,0.15463176369667,-0.41797780990601,1.05386662483215,-1.98764801025391,0.25827208161354
62,2286156917,167.60713195800781,-87.35588073730469,-171.27233886718750,9.74964332580566,0.11994758993387,-0.44793891906738,-0.62178665399551,-2.62712001800537,0.16085414588451
63,2286173584,167.84471130371094,-87.28907012939453,-171.53224182128906,9.72889614105225,0.11773473024368,-0.39002630114555,-0.17985236644745,-3.44002866744995,0.18144674599171
64,2286190251,168.02220153808594,-87.21498107910156,-171.76347351074219,9.72769260406494,0.14103704690933,-0.47111463546753,-2.09082865715027,-3.84002256393433,0.04764602705836
65,2286206918,168.26220703125000,-87.12942504882812,-172.05490112304688,9.73859882354736,0.08199690282345,-0.52926594018936,-1.91985118389130,-4.56887006759644,0.11298403143883
66,2286223585,168.40028381347656,-87.03858947753906,-172.25244140625000,9.75140285491943,0.05107264593244,-0.39820232987404,-2.41041135787964,-4.82080984115601,-0.18858632445335
67,2286240252,168.35208129882812,-86.95515441894531,-172.29133605957031,9.80955886840820,0.01672085560858,-0.59795552492142,-4.10269403457642,-4.28779697418213,-0.56506747007370
68,2286256919,168.27816772460938,-86.88372802734375,-172.26626586914062,9.88829135894775,0.03313389047980,-0.67030042409897,-1.79306828975677,-3.55825781822205,-0.62830519676208
69,2286273586,168.12174987792969,-86.82503509521484,-172.17652893066406,9.78442764282227,0.03519931435585,-0.85452425479889,-2.87388610839844,-2.75268673896790,-0.68936592340469
70,2286290253,167.96099853515625,-86.77511596679688,-172.05216979980469,9.72398281097412,0.06751623004675,-0.83136284351349,-1.10458600521088,-2.23018741607666,-0.70948457717896
71,2286306920,167.77894592285156,-86.73751831054688,-171.90075683593750,9.69082546234131,0.08313776552677,-0.79128563404083,-0.70897233486176,-1.45791339874268,-0.65669685602188
72,2286323587,167.53256225585938,-86.71586608886719,-171.69888305664062,9.75226211547852,0.08727896958590,-0.76174330711365,-1.55843043327332,-0.50678575038910,-0.63767945766449
73,2286340254,167.28495788574219,-86.71067810058594,-171.47404479980469,9.82635879516602,0.01328192185611,-0.81960582733154,-0.21167613565922,0.48561033606529,-0.50933408737183
74,2286356921,166.96719360351562,-86.72403717041016,-171.17756652832031,9.82740116119385,0.00827445182949,-0.85633814334869,-0.10446140170097,1.62193071842194,-0.50464701652527
75,2286373588,166.69781494140625,-86.74833679199219,-170.88072204589844,9.78500652313232,0.06838320195675,-0.78767669200897,2.75758481025696,2.27110981941223,-0.34158372879028
76,2286390255,166.48129272460938,-86.78441619873047,-170.64480590820312,9.80025291442871,-0.04716913774610,-0.80946123600006,2.24887847900391,2.90663814544678,0.04133249819279
77,2286406922,166.35908508300781,-86.82682800292969,-170.42247009277344,9.82266044616699,0.13329413533211,-0.68002843856812,7.09430360794067,3.26140046119690,0.18870800733566
78,2286423589,166.14328002929688,-86.87162780761719,-170.12696838378906,9.76353931427002,0.36377206444740,-0.56033754348755,5.87815999984741,3.44664359092712,0.00223470805213
79,2286440256,165.90718078613281,-86.90908050537109,-169.85803222656250,9.71016883850098,0.25695770978928,-0.53030782938004,3.04371690750122,3.01195740699768,0.01011061295867
80,2286456923,165.65873718261719,-86.93861389160156,-169.58914184570312,9.73440265655518,0.15672238171101,-0.51739299297333,2.32315492630005,2.54768872261047,-0.08856870979071
81,2286473590,165.49060058593750,-86.95972442626953,-169.41137695312500,9.77885913848877,0.14297796785831,-0.52847158908844,1.69985711574554,1.97738337516785,0.07941856980324
82,2286490257,165.36741638183594,-86.97412109375000,-169.27853393554688,9.76709461212158,0.11486650258303,-0.56102901697159,1.65645658969879,1.55596518516541,0.12731432914734
83,2286506924,165.28248596191406,-86.98364257812500,-169.18359375000000,9.77671909332275,0.15187807381153,-0.54321551322937,1.69985711574554,1.23364210128784,0.16966491937637
84,2286523591,165.10914611816406,-86.99046325683594,-169.01683044433594,9.79012680053711,0.16583982110023,-0.54631882905960,0.81274855136871,1.14873600006104,-0.09179590642452
85,2286540258,164.82301330566406,-86.99795532226562,-168.74789428710938,9.79441642761230,0.20504112541676,-0.53515928983688,-0.02294897846878,1.24833095073700,-0.38435700535774
86,2286556925,164.53080749511719,-87.00579071044922,-168.48576354980469,9.75379848480225,0.14437663555145,-0.63559097051620,-0.54931551218033,1.29639303684235,-0.35871863365173
87,2286573592,164.28527832031250,-87.01496124267578,-168.25950622558594,9.75848865509033,0.14184297621250,-0.62137973308563,0.13408888876438,1.32861411571503,-0.22835002839565
88,2286590259,164.06300354003906,-87.02264404296875,-168.05688476562500,9.77395343780518,0.12522490322590,-0.62586611509323,-0.04817749187350,1.24868953227997,-0.16170577704906
89,2286606926,163.83459472656250,-87.03159332275391,-167.85481262207031,9.77494525909424,0.14592729508877,-0.58267915248871,-0.45767331123352,1.29786598682404,-0.14008864760399
90,2286623593,163.63442993164062,-87.03839111328125,-167.67788696289062,9.76951217651367,0.15502221882343,-0.58023244142532,-0.28554317355156,1.15659916400909,-0.09603482484818
91,2286640260,163.41299438476562,-87.04421997070312,-167.47708129882812,9.77461433410645,0.23266860842705,-0.56961131095886,-0.23529107868671,1.10938203334808,-0.17708620429039
92,2286656927,163.13087463378906,-87.05171203613281,-167.22697448730469,9.75691699981689,0.17817696928978,-0.56007629632950,-0.81237077713013,1.25538718700409,-0.29603156447411
93,2286673594,162.90441894531250,-87.06095123291016,-167.02348327636719,9.73906230926514,0.05533600226045,-0.62821626663208,-0.26223561167717,1.32524585723877,-0.11947043240070
94,2286690261,162.77737426757812,-87.07209777832031,-166.89570617675781,9.76179027557373,0.05989590659738,-0.60749125480652,1.15129745006561,1.37483227252960,0.14406503736973
95,2286706928,162.66178894042969,-87.08315277099609,-166.77825927734375,9.76723670959473,0.11182501912117,-0.59211432933807,1.26981985569000,1.34892475605011,0.16988262534142
96,2286723595,162.52685546875000,-87.09586334228516,-166.64054870605469,9.76035499572754,0.16772741079330,-0.58923554420471,1.11499118804932,1.44558715820312,0.14937965571880
97,2286740262,162.29373168945312,-87.11093902587891,-166.42300415039062,9.76106166839600,0.15900318324566,-0.60538446903229,0.26375323534012,1.67698514461517,-0.04069858416915
98,2286756929,162.05618286132812,-87.13311004638672,-166.19203186035156,9.81224250793457,0.16583117842674,-0.58523601293564,0.71977460384369,2.07822108268738,0.05822407454252
99,2286773596,161.79759216308594,-87.15999603271484,-165.94172668457031,9.79071807861328,0.12042821198702,-0.61347109079361,0.74486219882965,2.36458373069763,0.09618210047483
100,2286790263,161.57342529296875,-87.18853759765625,-165.70576477050781,9.74808216094971,0.09313440322876,-0.57956218719482,1.77371156215668,2.45714831352234,0.19673755764961
101,2286806930,161.33493041992188,-87.21864318847656,-165.41773986816406,9.74440574645996,0.10232651233673,-0.56186193227768,2.36583852767944,2.55868935585022,0.17057417333126
102,2286823597,161.07882690429688,-87.24523162841797,-165.14389038085938,9.79282283782959,0.18399465084076,-0.50674402713776,1.90365767478943,2.35782217979431,0.08665417879820
103,2286840264,160.82254028320312,-87.26992797851562,-164.88522338867188,9.77298069000244,0.12907013297081,-0.51761609315872,1.56860494613647,2.24767446517944,0.08205667883158
104,2286856931,160.62792968750000,-87.28805541992188,-164.65979003906250,9.74781894683838,0.14516776800156,-0.49402314424515,2.47752308845520,1.85587704181671,0.09801340848207
105,2286873598,160.45207214355469,-87.30339813232422,-164.47221374511719,9.77618408203125,0.15810430049896,-0.47021725773811,1.83335065841675,1.64511024951935,0.12030926346779
106,2286890265,160.27436828613281,-87.31496429443359,-164.27932739257812,9.76455688476562,0.15003548562527,-0.50475794076920,1.90388810634613,1.42071723937988,0.03797723352909
107,2286906932,160.10618591308594,-87.32233428955078,-164.10154724121094,9.73633861541748,0.14751902222633,-0.51441264152527,1.90199279785156,1.19618368148804,-0.01077014021575
108,2286923599,160.01687622070312,-87.32482147216797,-163.99682617187500,9.76278305053711,0.15284095704556,-0.52021640539169,2.04688382148743,0.85682809352875,0.09739869087934
109,2286940266,159.90664672851562,-87.32767486572266,-163.89659118652344,9.75857639312744,0.20631851255894,-0.49519219994545,1.24132597446442,0.86407649517059,0.07856055349112
110,2286956933,159.72412109375000,-87.32980346679688,-163.72273254394531,9.77473068237305,0.14367614686489,-0.52148991823196,0.99512386322021,0.88867747783661,-0.11573099344969
111,2286973600,159.55328369140625,-87.33567810058594,-163.55514526367188,9.78286647796631,0.12630268931389,-0.52203631401062,1.09745955467224,1.10533523559570,-0.00336807011627
112,2286990267,159.40811157226562,-87.33950042724609,-163.40426635742188,9.74744701385498,0.15214696526527,-0.51478976011276,1.42536580562592,0.96557956933975,0.00639677140862
113,2287006934,159.26414489746094,-87.34325408935547,-163.26725769042969,9.75992393493652,0.15425918996334,-0.50272715091705,0.92091101408005,0.96497768163681,0.03580015525222
114,2287023601,159.13360595703125,-87.34745788574219,-163.14703369140625,9.76746845245361,0.14694447815418,-0.51682072877884,0.91347056627274,0.95981669425964,0.07607611268759
115,2287040268,158.98898315429688,-87.35233306884766,-163.00158691406250,9.77695178985596,0.12595672905445,-0.54041427373886,1.29602181911469,1.01214349269867,0.03732410818338
116,2287056935,158.89073181152344,-87.35655212402344,-162.88655090332031,9.76762294769287,0.18010871112347,-0.52738445997238,2.32925081253052,0.96353054046631,0.10591491311789
117,2287073602,158.77505493164062,-87.36232757568359,-162.76071166992188,9.75803470611572,0.19213221967220,-0.49377563595772,1.67699754238129,1.05291867256165,0.12348520755768
118,2287090269,158.62409973144531,-87.37036132812500,-162.59500122070312,9.75893020629883,0.16298267245293,-0.52404618263245,1.66443467140198,1.19081747531891,0.07474423944950
119,2287106936,158.46861267089844,-87.38199615478516,-162.40228271484375,9.76578712463379,0.13061299920082,-0.55125188827515,2.09978675842285,1.42860591411591,0.13599701225758
120,2287123603,158.32133483886719,-87.39488983154297,-162.24212646484375,9.77987003326416,0.14999984204769,-0.51562255620956,2.00089621543884,1.47268533706665,0.18818290531635
121,2287140270,158.08303833007812,-87.41223144531250,-161.99725341796875,9.77663516998291,0.17299605906010,-0.50390625000000,1.53474509716034,1.80509996414185,0.08067359775305
122,2287156937,157.80036926269531,-87.43425750732422,-161.72259521484375,9.78158664703369,0.15027068555355,-0.51081752777100,1.59758555889130,2.11260581016541,0.08283787220716
123,2287173604,157.50604248046875,-87.45516204833984,-161.42826843261719,9.78062820434570,0.18006257712841,-0.47859603166580,2.10848212242126,2.06851363182068,0.02047094888985
124,2287190271,157.16175842285156,-87.47780609130859,-161.10917663574219,9.77525901794434,0.20229355990887,-0.48813763260841,1.29599618911743,2.20641231536865,-0.01274231728166
125,2287206938,156.80895996093750,-87.49993896484375,-160.73512268066406,9.77980518341064,0.10860399156809,-0.50249129533768,1.62440204620361,2.18840646743774,-0.04010948538780
126,2287223605,156.53768920898438,-87.52030181884766,-160.43502807617188,9.77642917633057,0.15488794445992,-0.49043905735016,2.42817997932434,2.02776360511780,0.10101007670164
127,2287240272,156.32777404785156,-87.53979492187500,-160.20108032226562,9.76302433013916,0.16690152883530,-0.45863604545593,2.50107359886169,1.91289079189301,0.23333807289600
128,2287256939,156.08528137207031,-87.55567932128906,-159.95092773437500,9.78006076812744,0.19831657409668,-0.43336045742035,1.76591253280640,1.72439432144165,0.10295666009188
129,2287273606,155.89935302734375,-87.56562805175781,-159.75468444824219,9.74441337585449,0.17257963120937,-0.43579280376434,1.98957538604736,1.33570873737335,0.08648768812418
130,2287290273,155.77584838867188,-87.56941223144531,-159.62716674804688,9.74140930175781,0.18211847543716,-0.42266991734505,1.71668469905853,0.95649981498718,0.10784866660833
131,2287306940,155.65557861328125,-87.57118225097656,-159.53259277343750,9.77747249603271,0.16704049706459,-0.41770777106285,1.37534439563751,0.82865411043167,0.07512845098972
132,2287323607,155.50540161132812,-87.57222747802734,-159.36027526855469,9.78955364227295,0.14774098992348,-0.43984937667847,0.94068408012390,0.79566490650177,0.00012166031956
133,2287340274,155.41653442382812,-87.57360076904297,-159.26400756835938,9.76925277709961,0.15119239687920,-0.50256103277206,1.39614176750183,0.78306341171265,0.14416746795177
134,2287356941,155.31956481933594,-87.57392120361328,-159.16351318359375,9.75736141204834,0.20863977074623,-0.44493111968040,1.53008365631104,0.71900612115860,0.08611630648375
135,2287373608,155.19076538085938,-87.57295989990234,-159.05238342285156,9.74968147277832,0.21470445394516,-0.42505681514740,0.76148474216461,0.66333687305450,0.00712673319504
136,2287390275,155.04933166503906,-87.57231140136719,-158.92224121093750,9.77734565734863,0.18717356026173,-0.44329077005386,0.58195257186890,0.68246960639954,-0.00996334012598
137,2287406942,154.93934631347656,-87.57222747802734,-158.81901550292969,9.77610206604004,0.15643388032913,-0.44498485326767,0.66790872812271,0.71412682533264,0.08825495839119
138,2287423609,154.81838989257812,-87.57247161865234,-158.69798278808594,9.78383350372314,0.13381572067738,-0.46467420458794,0.54948848485947,0.72045314311981,0.06766235083342
139,2287440276,154.67227172851562,-87.57279205322266,-158.53425598144531,9.79883384704590,0.16291718184948,-0.44795006513596,0.48580250144005,0.75675928592682,0.01691078394651
140,2287456943,154.46034240722656,-87.57594299316406,-158.28417968750000,9.80012130737305,0.17063839733601,-0.46760717034340,0.16372278332710,0.97725898027420,-0.04795978218317
141,2287473610,154.29185485839844,-87.58071136474609,-158.11360168457031,9.77789878845215,0.20641243457794,-0.47693794965744,1.03906226158142,1.03930556774139,0.06277032196522
142,2287490277,154.13990783691406,-87.58483886718750,-157.95654296875000,9.75624465942383,0.20823673903942,-0.48163223266602,1.21238350868225,0.98346996307373,0.07675486057997
143,2287506944,153.97784423828125,-87.59133148193359,-157.81240844726562,9.79446411132812,0.19928112626076,-0.42515808343887,0.71901899576187,1.10998392105103,0.13522866368294
144,2287523611,153.75718688964844,-87.60077667236328,-157.61952209472656,9.79425430297852,0.16169552505016,-0.44122508168221,0.05655923485756,1.30593383312225,0.10083077847958
145,2287540278,153.51126098632812,-87.61042022705078,-157.38574218750000,9.76558971405029,0.14739014208317,-0.50305587053299,0.31248134374619,1.38042855262756,0.05872351303697
146,2287556945,153.30950927734375,-87.61837768554688,-157.18484497070312,9.75747013092041,0.16528132557869,-0.48429563641548,1.23699736595154,1.25073838233948,0.08023817837238
147,2287573612,153.18827819824219,-87.62471771240234,-157.03768920898438,9.72916698455811,0.20164148509502,-0.41655308008194,1.69596409797668,1.06856811046600,0.19580268859863
148,2287590279,153.05415344238281,-87.63314056396484,-156.91157531738281,9.78829956054688,0.18297424912453,-0.39210230112076,1.37289822101593,1.19521009922028,0.24161097407341
149,2287606946,152.94747924804688,-87.63942718505859,-156.81808471679688,9.77732181549072,0.21360130608082,-0.39719897508621,1.63775920867920,1.05609476566315,0.23723119497299
150,2287623613,152.85725402832031,-87.64116668701172,-156.74638366699219,9.76620197296143,0.19491428136826,-0.37253081798553,0.56965851783752,0.75909006595612,0.18370069563389
151,2287640280,152.80155944824219,-87.63884735107422,-156.69526672363281,9.76432228088379,0.16821049153805,-0.41229379177094,0.57863569259644,0.53149551153183,0.16299280524254
152,2287656947,152.79968261718750,-87.63536834716797,-156.68978881835938,9.75468158721924,0.18647775053978,-0.40311008691788,0.61084359884262,0.38510614633560,0.23657809197903
153,2287673614,152.86155700683594,-87.62867736816406,-156.75192260742188,9.75359249114990,0.19267004728317,-0.43918767571449,0.90865528583527,0.15040415525436,0.28195095062256
154,2287690281,152.95040893554688,-87.62059783935547,-156.85621643066406,9.76471328735352,0.19294993579388,-0.41066384315491,1.05692720413208,0.06621523201466,0.30824241042137
155,2287706948,152.97462463378906,-87.61378479003906,-156.88505554199219,9.78527545928955,0.16732358932495,-0.41838765144348,0.43059435486794,0.16828182339668,0.21049155294895
156,2287723615,152.95034790039062,-87.60649108886719,-156.86772155761719,9.76489448547363,0.18736481666565,-0.43503475189209,0.63644355535507,0.22669157385826,0.09299330413342
157,2287740282,152.94972229003906,-87.59775543212891,-156.86068725585938,9.73869514465332,0.18979647755623,-0.43803891539574,0.31908938288689,0.09920438379049,0.11099903285503
158,2287756949,152.89843750000000,-87.59116363525391,-156.81181335449219,9.78404998779297,0.19750295579433,-0.44157937169075,-0.16549645364285,0.27457454800606,0.08053273707628
159,2287773616,152.85510253906250,-87.58776092529297,-156.78350830078125,9.78466320037842,0.16038607060909,-0.42811831831932,0.28648442029953,0.43966117501259,0.16446554660797
160,2287790283,152.84257507324219,-87.58329772949219,-156.78904724121094,9.76104354858398,0.17811299860477,-0.46974554657936,0.56721234321594,0.36088931560516,0.19810780882835
161,2287806950,152.73309326171875,-87.58159637451172,-156.70094299316406,9.78805446624756,0.21251253783703,-0.41109219193459,0.07949541509151,0.58724153041840,0.06083656102419
162,2287823617,152.63813781738281,-87.58184051513672,-156.60485839843750,9.76871776580811,0.15966334939003,-0.48654299974442,0.22725504636765,0.68522286415100,0.14654946327209
163,2287840284,152.56785583496094,-87.58280944824219,-156.52140808105469,9.78009414672852,0.19785512983799,-0.45280575752258,0.87428307533264,0.71613746881485,0.20298703014851
164,2287856951,152.53227233886719,-87.58273315429688,-156.47036743164062,9.75541687011719,0.21283201873302,-0.46694710850716,1.18586146831512,0.61796396970749,0.23597617447376
165,2287873618,152.49620056152344,-87.58306121826172,-156.43205261230469,9.76590538024902,0.20209275186062,-0.45895880460739,0.73847174644470,0.63316518068314,0.26426541805267
166,2287890285,152.49220275878906,-87.58492279052734,-156.43022155761719,9.75630569458008,0.18244619667530,-0.44846019148827,1.54482364654541,0.68620902299881,0.34547048807144
167,2287906952,152.42195129394531,-87.59003448486328,-156.31271362304688,9.78959846496582,0.20605891942978,-0.42176270484924,1.19171416759491,0.94250261783600,0.30770459771156
168,2287923619,152.35087585449219,-87.60126495361328,-156.25180053710938,9.77375221252441,0.16134150326252,-0.47712880373001,1.37621510028839,1.25907540321350,0.46136790513992
169,2287940286,152.22903442382812,-87.61468505859375,-156.16471862792969,9.79365730285645,0.15619067847729,-0.45217654109001,1.67534601688385,1.45483338832855,0.40747883915901
170,2287956953,152.07687377929688,-87.63008117675781,-156.02465820312500,9.76108646392822,0.19680260121822,-0.45287466049194,2.04685807228088,1.57170403003693,0.37118563055992
171,2287973620,151.97583007812500,-87.64366149902344,-155.95989990234375,9.76696014404297,0.19127982854843,-0.47243940830231,1.71796560287476,1.44214224815369,0.46604233980179
172,2287990287,151.90084838867188,-87.65798950195312,-155.85305786132812,9.77142620086670,0.17801535129547,-0.44803044199944,2.26127481460571,1.42516112327576,0.51064682006836
173,2288006954,151.81173706054688,-87.67148590087891,-155.72772216796875,9.75525474548340,0.21474097669125,-0.40296784043312,2.14437818527222,1.42030727863312,0.47672277688980
174,2288023621,151.72749328613281,-87.68446350097656,-155.64817810058594,9.75127315521240,0.17214816808701,-0.42362150549889,1.58023297786713,1.37885332107544,0.49582985043526
175,2288040288,151.65504455566406,-87.69972991943359,-155.56787109375000,9.77869224548340,0.19982020556927,-0.41480287909508,1.35733854770660,1.45889294147491,0.58684450387955
176,2288056955,151.49925231933594,-87.71681213378906,-155.41314697265625,9.80649471282959,0.15114240348339,-0.41848954558372,1.36932539939880,1.67005693912506,0.47363647818565
177,2288073622,151.34977722167969,-87.73574829101562,-155.22666931152344,9.78254795074463,0.17443507909775,-0.45089983940125,1.66244995594025,1.74712562561035,0.52812749147415
178,2288090289,151.28363037109375,-87.75667572021484,-155.11836242675781,9.74620914459229,0.20072905719280,-0.41468954086304,2.13711738586426,1.75553917884827,0.74329978227615
179,2288106956,151.15850830078125,-87.77700805664062,-154.99697875976562,9.75251579284668,0.20898704230785,-0.43476095795631,1.29143714904785,1.79203736782074,0.64516472816467
180,2288123623,151.03520202636719,-87.79735565185547,-154.87507629394531,9.77782344818115,0.18253859877586,-0.44480398297310,1.31179928779602,1.79257524013519,0.65721541643143
181,2288140290,150.99632263183594,-87.82031250000000,-154.84533691406250,9.75570678710938,0.17743629217148,-0.44160214066505,1.84996044635773,1.84187960624695,0.88760179281235
182,2288156957,150.97154235839844,-87.84468841552734,-154.79301452636719,9.74709224700928,0.18764527142048,-0.44317623972893,1.68197965621948,1.86790227890015,0.95176160335541
183,2288173624,150.94401550292969,-87.87348937988281,-154.78794860839844,9.79386997222900,0.15230393409729,-0.44534733891487,1.64467453956604,2.10131072998047,1.07489466667175
184,2288190291,150.86715698242188,-87.90725708007812,-154.72093200683594,9.79607582092285,0.16413240134716,-0.44286188483238,2.28549146652222,2.44601893424988,1.11736035346985
185,2288206958,150.75079345703125,-87.94309997558594,-154.54846191406250,9.76950168609619,0.18104790151119,-0.38343316316605,2.52380490303040,2.61574149131775,1.11173832416534
186,2288223625,150.57582092285156,-87.98045349121094,-154.36572265625000,9.75835132598877,0.16980642080307,-0.39453065395355,2.10729169845581,2.70703840255737,1.04896187782288
187,2288240292,150.36203002929688,-88.02038574218750,-154.16320800781250,9.78860569000244,0.15057994425297,-0.36918380856514,2.35372424125671,2.89691829681396,1.06850433349609
188,2288256959,150.18385314941406,-88.05690002441406,-153.95249938964844,9.75850009918213,0.13550028204918,-0.35942119359970,2.84094190597534,2.65756750106812,1.01882839202881
189,2288273626,150.14506530761719,-88.08818054199219,-153.86018371582031,9.75840663909912,0.15070377290249,-0.27246880531311,3.61014175415039,2.26972699165344,1.10692334175110
190,2288290293,150.07693481445312,-88.11487579345703,-153.74491882324219,9.76706314086914,0.17343327403069,-0.24564935266972,3.16363596916199,2.07834911346436,0.95045530796051
191,2288306960,149.90325927734375,-88.14311981201172,-153.57447814941406,9.82355976104736,0.18327264487743,-0.25262573361397,1.39957404136658,2.19105768203735,0.84996378421783
192,2288323627,149.74266052246094,-88.16815948486328,-153.37258911132812,9.79508399963379,0.12006085366011,-0.28392514586449,1.83281302452087,2.03092718124390,0.78296101093292
193,2288340294,149.51312255859375,-88.18976593017578,-153.14590454101562,9.76822757720947,0.14320392906666,-0.27218335866928,1.52132403850555,1.91295504570007,0.58127379417419
194,2288356961,149.30671691894531,-88.20867156982422,-152.90496826171875,9.74833774566650,0.17232108116150,-0.28080222010612,1.39863920211792,1.73880147933960,0.54644054174423
195,2288373628,149.09046936035156,-88.22226715087891,-152.68289184570312,9.75277042388916,0.16546314954758,-0.27227881550789,0.86133587360382,1.45220792293549,0.38404321670532
196,2288390295,148.97024536132812,-88.23143005371094,-152.60316467285156,9.75404071807861,0.15010176599026,-0.28999012708664,0.89251929521561,1.19349420070648,0.43898245692253
197,2288406962,148.92405700683594,-88.23731231689453,-152.47294616699219,9.75845336914062,0.18153342604637,-0.26706761121750,1.20339357852936,0.88857501745224,0.41404849290848
198,2288423629,148.87963867187500,-88.23719024658203,-152.43803405761719,9.75575256347656,0.15003214776516,-0.28641235828400,0.58724153041840,0.59084016084671,0.25793907046318
199,2288440296,148.91952514648438,-88.23530578613281,-152.48214721679688,9.75030326843262,0.15728905797005,-0.30445623397827,0.82122647762299,0.42908319830894,0.33585295081139
200,2288456963,148.90632629394531,-88.23087310791016,-152.48936462402344,9.79149436950684,0.14402817189693,-0.29468306899071,0.56182092428207,0.36569169163704,0.19065454602242
201,2288473630,148.83970642089844,-88.22877502441406,-152.44947814941406,9.79225635528564,0.14900267124176,-0.32425114512444,0.18845182657242,0.50627982616425,0.17321227490902
202,2288490297,148.78967285156250,-88.22689819335938,-152.40682983398438,9.77772331237793,0.15650250017643,-0.33316990733147,0.68261051177979,0.51802325248718,0.19895306229591
203,2288506964,148.74252319335938,-88.22535705566406,-152.35656738281250,9.78155040740967,0.17293192446232,-0.32232943177223,0.66154396533966,0.51140230894089,0.20220585167408
204,2288523631,148.70411682128906,-88.22513580322266,-152.31735229492188,9.78757762908936,0.17196911573410,-0.35200613737106,0.90313583612442,0.58685737848282,0.25846418738365
205,2288540298,148.70494079589844,-88.22535705566406,-152.31069946289062,9.76600074768066,0.17396588623524,-0.36234852671623,1.20202326774597,0.59016138315201,0.33564800024033
206,2288556965,148.72250366210938,-88.22480010986328,-152.33491516113281,9.76420593261719,0.15842700004578,-0.33583566546440,0.93046450614929,0.53050947189331,0.34541925787926
207,2288573632,148.72116088867188,-88.22568511962891,-152.33198547363281,9.76650619506836,0.16201226413250,-0.32213094830513,1.00319182872772,0.63110333681107,0.36313048005104
208,2288590299,148.73284912109375,-88.22579956054688,-152.34262084960938,9.78082370758057,0.16872791945934,-0.30228728055954,1.18030357360840,0.53634911775589,0.32837399840355
209,2288606966,148.64398193359375,-88.22877502441406,-152.25198364257812,9.80575656890869,0.16015560925007,-0.29555714130402,0.59815251827240,0.81227469444275,0.29768994450569
210,2288623633,148.47604370117188,-88.23564147949219,-152.08627319335938,9.78867244720459,0.13367095589638,-0.36245635151863,0.82759106159210,1.07799363136292,0.27903112769127
211,2288640300,148.27520751953125,-88.24710083007812,-151.87345886230469,9.76894950866699,0.18664142489433,-0.36251467466354,1.07531726360321,1.33450496196747,0.36037710309029
212,2288656967,148.15609741210938,-88.25920104980469,-151.71812438964844,9.78667354583740,0.15473048388958,-0.32129269838333,1.52767586708069,1.29383194446564,0.50264281034470
213,2288673634,148.05404663085938,-88.26889801025391,-151.62794494628906,9.80082607269287,0.15500341355801,-0.30458241701126,1.64525091648102,1.16315579414368,0.45508003234863
214,2288690301,148.02676391601562,-88.27490234375000,-151.56756591796875,9.75361156463623,0.17149639129639,-0.26221254467964,1.68761420249939,0.89555436372757,0.45103320479393
215,2288706968,147.97744750976562,-88.27864837646484,-151.51963806152344,9.75466632843018,0.19113388657570,-0.27451571822166,0.93278253078461,0.81173676252365,0.37808820605278
216,2288723635,147.89276123046875,-88.28183746337891,-151.43737792968750,9.78765296936035,0.15273046493530,-0.31104716658592,0.45963913202286,0.80519288778305,0.31682270765305
217,2288740302,147.83039855957031,-88.28479766845703,-151.36669921875000,9.78298664093018,0.13560949265957,-0.30211272835732,0.95902281999588,0.75511997938156,0.31674584746361
218,2288756969,147.75097656250000,-88.28799438476562,-151.30268859863281,9.77306365966797,0.11766549944878,-0.32276505231857,0.79799562692642,0.80491107702255,0.31665620207787
219,2288773636,147.67993164062500,-88.28982543945312,-151.22872924804688,9.74589347839355,0.17497386038303,-0.28709208965302,0.94531995058060,0.71752053499222,0.27452334761620
220,2288790303,147.61108398437500,-88.29199981689453,-151.17752075195312,9.76357650756836,0.15653930604458,-0.28422743082047,0.52867811918259,0.71419084072113,0.29397615790367
221,2288806970,147.57537841796875,-88.29222869873047,-151.13079833984375,9.78071498870850,0.16758228838444,-0.25968438386917,0.95196646451950,0.62343233823776,0.29123559594154
222,2288823637,147.57553100585938,-88.29268646240234,-151.15144348144531,9.77398204803467,0.19150947034359,-0.29142871499062,0.50269401073456,0.56083482503891,0.34564974904060
223,2288840304,147.56709289550781,-88.29302978515625,-151.14570617675781,9.78874111175537,0.15756429731846,-0.28189796209335,-0.22948974370956,0.56348568201065,0.35608693957329
224,2288856971,147.64250183105469,-88.29235076904297,-151.25381469726562,9.79946994781494,0.13890704512596,-0.29099240899086,0.38312113285065,0.44758829474449,0.43800920248032
225,2288873638,147.77845764160156,-88.28982543945312,-151.38290405273438,9.77106475830078,0.13440108299255,-0.28852951526642,0.68011319637299,0.30568113923073,0.46939748525620
226,2288890305,148.04797363281250,-88.28433990478516,-151.64588928222656,9.76947784423828,0.18764038383961,-0.27326726913452,1.60457789897919,0.02158510312438,0.54492938518524
227,2288906972,148.40606689453125,-88.27603912353516,-152.01316833496094,9.78031158447266,0.20060057938099,-0.28319835662842,1.01178491115570,-0.18155561387539,0.63417679071426
228,2288923639,148.83332824707031,-88.26223754882812,-152.44665527343750,9.74333763122559,0.17207409441471,-0.29126489162445,1.01788067817688,-0.52640503644943,0.58028775453568
229,2288940306,149.29299926757812,-88.24610137939453,-152.91297912597656,9.79668331146240,0.12657977640629,-0.25604230165482,1.11200726032257,-0.71572124958038,0.54815655946732
230,2288956973,149.55250549316406,-88.23265075683594,-153.18411254882812,9.80777931213379,0.16484907269478,-0.24056805670261,-0.18407846987247,-0.41050752997398,0.36014655232430
231,2288973640,149.69790649414062,-88.22051239013672,-153.34881591796875,9.80585670471191,0.16887924075127,-0.31731685996056,-0.00243320642039,-0.20254522562027,0.23413205146790
232,2288990307,149.89553833007812,-88.20801544189453,-153.56541442871094,9.77894210815430,0.10855934768915,-0.35008206963539,0.01775600388646,-0.31376838684082,0.28954517841339
233,2289006974,150.24980163574219,-88.19160461425781,-153.89202880859375,9.78135776519775,0.13224834203720,-0.34669092297554,0.89733457565308,-0.61380833387375,0.43555033206940
234,2289023641,150.57965087890625,-88.17201232910156,-154.25233459472656,9.73784828186035,0.18033778667450,-0.26869654655457,0.25218904018402,-0.79065126180649,0.31866681575775
235,2289040308,150.81060791015625,-88.15337371826172,-154.52043151855469,9.77761554718018,0.18311567604542,-0.29461890459061,-0.80726104974747,-0.67494583129883,0.21836748719215
236,2289056975,151.08764648437500,-88.13481903076172,-154.83668518066406,9.79007816314697,0.10613110661507,-0.35262477397919,-0.37070539593697,-0.66790235042572,0.32067739963531
237,2289073642,151.24111938476562,-88.12195587158203,-155.02124023437500,9.79110908508301,0.13713191449642,-0.39086845517159,-0.75858408212662,-0.28802758455276,0.27556061744690
238,2289090309,151.25486755371094,-88.11539459228516,-155.03182983398438,9.79747009277344,0.12176954746246,-0.39054721593857,0.32788735628128,0.18359822034836,0.18195901811123
239,2289106976,151.16380310058594,-88.11758422851562,-154.99125671386719,9.80095100402832,0.10464724153280,-0.41566994786263,0.34385690093040,0.75371128320694,0.25393065810204
240,2289123643,150.97549438476562,-88.12549591064453,-154.80183410644531,9.78144741058350,0.15484261512756,-0.36654254794121,1.68762707710266,1.15709853172302,0.20803274214268
241,2289140310,150.75160217285156,-88.13964080810547,-154.60133361816406,9.76380825042725,0.13678456842899,-0.35630166530609,1.34599220752716,1.50759541988373,0.33954116702080
242,2289156977,150.50994873046875,-88.15294647216797,-154.32873535156250,9.76286029815674,0.13037276268005,-0.36121496558189,1.41974389553070,1.48846280574799,0.29569223523140
243,2289173644,150.19787597656250,-88.16677093505859,-153.99044799804688,9.75730514526367,0.16154052317142,-0.34705719351768,1.51198816299438,1.58439528942108,0.19698087871075
244,2289190311,149.85043334960938,-88.18091583251953,-153.64163208007812,9.78735065460205,0.14476652443409,-0.34592807292938,1.22333300113678,1.60701107978821,0.15270930528641
245,2289206978,149.53547668457031,-88.19538879394531,-153.38363647460938,9.77567863464355,0.14161702990532,-0.31173467636108,2.09840393066406,1.62469685077667,0.21163134276867
246,2289223645,149.23492431640625,-88.20790863037109,-153.03956604003906,9.75771522521973,0.14546567201614,-0.32527530193329,1.87069380283356,1.48284089565277,0.18348297476768
247,2289240312,148.89163208007812,-88.22051239013672,-152.71658325195312,9.81187343597412,0.15859146416187,-0.26975974440575,1.76283895969391,1.56325197219849,0.14881619811058
248,2289256979,148.54974365234375,-88.23464202880859,-152.35047912597656,9.80250453948975,0.17054246366024,-0.29760763049126,1.47086703777313,1.61561715602875,0.20634230971336
249,2289273646,148.15866088867188,-88.24677276611328,-151.95916748046875,9.76722049713135,0.17021211981773,-0.25799390673637,1.06224179267883,1.54693663120270,0.08395202457905
250,2289290313,147.90000915527344,-88.25684356689453,-151.70013427734375,9.73567867279053,0.15243700146675,-0.28110158443451,1.42517375946045,1.32790958881378,0.23153239488602
251,2289306980,147.70376586914062,-88.26426696777344,-151.49945068359375,9.76092529296875,0.18927708268166,-0.22955490648746,1.34628677368164,1.10388827323914,0.23709037899971
252,2289323647,147.56381225585938,-88.26652526855469,-151.36395263671875,9.77794837951660,0.15499022603035,-0.24025814235210,1.21895325183868,0.83594083786011,0.19568742811680
253,2289340314,147.45761108398438,-88.26449584960938,-151.26698303222656,9.76518344879150,0.11509948223829,-0.24804382026196,0.96916532516479,0.53504294157028,0.08826776593924
254,2289356981,147.31042480468750,-88.26111602783203,-151.11933898925781,9.75996017456055,0.16194644570351,-0.26191332936287,0.90496706962585,0.52025151252747,-0.00948950462043
255,2289373648,147.04505920410156,-88.25920104980469,-150.88380432128906,9.77754020690918,0.16077913343906,-0.25629961490631,-0.13531188666821,0.71205222606659,-0.10813681036234
256,2289390315,146.84635925292969,-88.25852966308594,-150.66755676269531,9.76335811614990,0.13156300783157,-0.32071888446808,0.74534875154495,0.71891641616821,0.01095583196729
257,2289406982,146.65341186523438,-88.26033020019531,-150.48385620117188,9.77249622344971,0.16559454798698,-0.31907182931900,1.44392240047455,0.83848941326141,0.07603771239519
258,2289423649,146.48828125000000,-88.26494598388672,-150.33073425292969,9.77486133575439,0.17264211177826,-0.33962175250053,1.71595478057861,0.94797080755234,0.20075872540474
259,2289440316,146.33833312988281,-88.26900482177734,-150.17395019531250,9.77718353271484,0.14274770021439,-0.30375796556473,1.84248149394989,0.91215139627457,0.20690578222275
260,2289456983,146.27017211914062,-88.27342987060547,-150.09297180175781,9.79528808593750,0.17470376193523,-0.28795805573463,2.69259262084961,0.85600841045380,0.32004988193512
261,2289473650,146.16615295410156,-88.27819824218750,-149.96028137207031,9.77967453002930,0.21396264433861,-0.23183830082417,2.22304797172546,0.91965603828430,0.30253082513809
262,2289490317,146.02653503417969,-88.28263092041016,-149.83529663085938,9.77729701995850,0.16451314091682,-0.28056809306145,1.38283598423004,0.91422605514526,0.25339281558990
263,2289506984,145.94432067871094,-88.28400421142578,-149.73684692382812,9.77557563781738,0.17029152810574,-0.22568252682686,2.00357294082642,0.72457695007324,0.22982917726040
264,2289523651,145.87272644042969,-88.28639984130859,-149.65969848632812,9.76519012451172,0.19451497495174,-0.26702472567558,1.45046651363373,0.75376260280609,0.29436036944389
265,2289540318,145.87684631347656,-88.28879547119141,-149.64540100097656,9.77989673614502,0.16204790771008,-0.26067063212395,2.03616476058960,0.68958991765976,0.39541527628899
266,2289556985,145.93191528320312,-88.28719329833984,-149.67912292480469,9.77795124053955,0.16418386995792,-0.24571809172630,1.89216983318329,0.42294889688492,0.33212625980377
267,2289573652,146.09248352050781,-88.28205871582031,-149.86053466796875,9.74698925018311,0.17295449972153,-0.22322045266628,1.90107047557831,0.12082149833441,0.35890433192253
268,2289590319,146.30291748046875,-88.27161407470703,-150.07312011718750,9.75228881835938,0.18827556073666,-0.26411482691765,1.44180929660797,-0.15739004313946,0.30119895935059
269,2289606986,146.56880187988281,-88.25707244873047,-150.38815307617188,9.78319072723389,0.18652781844139,-0.23233188688755,0.56899249553680,-0.46622797846794,0.25679931044579
270,2289623653,146.80590820312500,-88.24075317382812,-150.65274047851562,9.79532146453857,0.17075894773006,-0.23873402178288,0.75187999010086,-0.49354386329651,0.17850129306316
271,2289640320,147.13859558105469,-88.22116851806641,-151.01214599609375,9.77250194549561,0.13653007149696,-0.28139492869377,0.50332158803940,-0.78267294168472,0.22565430402756
272,2289656987,147.53350830078125,-88.19778442382812,-151.42819213867188,9.76387023925781,0.18949331343174,-0.27546066045761,1.18171238899231,-1.03066790103912,0.19862009584904
273,2289673654,147.92881774902344,-88.17169189453125,-151.78762817382812,9.80038070678711,0.23427318036556,-0.27181810140610,0.53008687496185,-1.18074548244476,0.15525779128075
274,2289690321,148.32713317871094,-88.14511871337891,-152.19087219238281,9.78159809112549,0.18329019844532,-0.27115067839622,0.37424638867378,-1.22121345996857,0.16826905310154
275,2289706988,148.85751342773438,-88.11591339111328,-152.71755981445312,9.73540210723877,0.15701659023762,-0.28711843490601,0.87671625614166,-1.49176037311554,0.31848749518394
276,2289723655,149.41108703613281,-88.08327484130859,-153.27444458007812,9.79032230377197,0.17960485816002,-0.28185322880745,0.71226996183395,-1.68964409828186,0.29897063970566
277,2289740322,149.88101196289062,-88.04856109619141,-153.76693725585938,9.80435657501221,0.17878009378910,-0.27518054842949,0.36770233511925,-1.71169686317444,0.14476938545704
278,2289756989,150.31303405761719,-88.01485443115234,-154.20790100097656,9.76282215118408,0.15522560477257,-0.35097220540047,0.27639305591583,-1.67752945423126,0.11703083664179
279,2289773656,150.82720947265625,-87.97599792480469,-154.73826599121094,9.70353794097900,0.15536423027515,-0.37775263190269,0.99238330125809,-2.00524377822876,0.14042803645134
280,2289790323,151.39865112304688,-87.93569183349609,-155.31945800781250,9.77118110656738,0.20740519464016,-0.30732235312462,1.25387609004974,-2.14549899101257,0.24250744283199
281,2289806990,151.97865295410156,-87.89215850830078,-155.93505859375000,9.74746990203857,0.12142840027809,-0.35208588838577,0.89944744110107,-2.34609770774841,0.22638425230980
282,2289823657,152.50643920898438,-87.84814453125000,-156.45095825195312,9.75079059600830,0.17420603334904,-0.34938168525696,1.35226738452911,-2.32660651206970,0.14523042738438
283,2289840324,152.99002075195312,-87.80251312255859,-156.95639038085938,9.76990699768066,0.18876500427723,-0.33763107657433,0.38782113790512,-2.38427352905273,0.09483743458986
284,2289856991,153.33230590820312,-87.75990295410156,-157.31747436523438,9.78540802001953,0.15476581454277,-0.35345846414566,-0.74479168653488,-2.15737056732178,-0.06048439443111
285,2289873658,153.61589050292969,-87.72136688232422,-157.62814331054688,9.76082229614258,0.12252736091614,-0.40503677725792,-0.18386076390743,-1.81553041934967,-0.03939232975245
286,2289890325,153.88972473144531,-87.68589782714844,-157.87477111816406,9.76919937133789,0.11023736745119,-0.43920499086380,1.06792783737183,-1.64128720760345,-0.00950231030583
287,2289906992,154.01235961914062,-87.65673828125000,-157.99255371093750,9.81907367706299,0.18866065144539,-0.42823630571365,1.04760420322418,-1.13966250419617,-0.15844015777111
288,2289923659,153.97227478027344,-87.63454437255859,-157.95280456542969,9.76631832122803,0.13516642153263,-0.46640539169312,0.08058395981789,-0.64377522468567,-0.31510022282600
289,2289940326,153.85926818847656,-87.61756134033203,-157.87097167968750,9.75357151031494,0.11056134104729,-0.52395594120026,0.84049999713898,-0.25613981485367,-0.36797770857811
290,2289956993,153.74751281738281,-87.60371398925781,-157.76162719726562,9.77917385101318,0.17774522304535,-0.46024018526077,1.71354734897614,-0.05853783711791,-0.31138643622398
291,2289973660,153.55642700195312,-87.59426116943359,-157.59109497070312,9.80219936370850,0.18790957331657,-0.38994854688644,1.07010495662689,0.24944846332073,-0.35720750689507
292,2289990327,153.30046081542969,-87.58264923095703,-157.34413146972656,9.76983070373535,0.17052409052849,-0.36090433597565,0.89847427606583,0.21224603056908,-0.55602604150772
293,2290006994,153.03979492187500,-87.56844329833984,-157.09226989746094,9.74916267395020,0.20404350757599,-0.39599293470383,1.13195967674255,0.09149497747421,-0.64876961708069
294,2290023661,152.82077026367188,-87.55000305175781,-156.85278320312500,9.74893474578857,0.20556716620922,-0.39144414663315,0.96355623006821,-0.19591154158115,-0.67513799667358
295,2290040328,152.60673522949219,-87.52868652343750,-156.65823364257812,9.78835391998291,0.21460446715355,-0.36041757464409,0.25646635890007,-0.33671733736992,-0.70953577756882
296,2290056995,152.45565795898438,-87.50730895996094,-156.47492980957031,9.74975299835205,0.16254125535488,-0.38328576087952,0.68309712409973,-0.43455791473389,-0.60248756408691
297,2290073662,152.30348205566406,-87.48246765136719,-156.32078552246094,9.78156375885010,0.17426988482475,-0.40183377265930,0.39496701955795,-0.60714894533157,-0.69192695617676
298,2290090329,152.12190246582031,-87.45824432373047,-156.15640258789062,9.77579498291016,0.20567476749420,-0.40298935770988,0.35064426064491,-0.51195937395096,-0.73728710412979
299,2290106996,151.94338989257812,-87.43226623535156,-155.99081420898438,9.74838638305664,0.22933556139469,-0.41439694166183,0.33928501605988,-0.62494981288910,-0.79646533727646
300,2290123663,151.71763610839844,-87.40406799316406,-155.78506469726562,9.75362110137939,0.23644167184830,-0.41741773486137,0.02058620750904,-0.69176059961319,-0.97183537483215
301,2290140330,151.50724792480469,-87.37155151367188,-155.60894775390625,9.76041316986084,0.22312456369400,-0.41440781950951,-0.48628264665604,-0.92361950874329,-1.03987550735474
302,2290156997,151.28749084472656,-87.33685302734375,-155.41250610351562,9.75224018096924,0.18011765182018,-0.37088415026665,-0.52294725179672,-1.01590204238892,-1.13182520866394
303,2290173664,150.88442993164062,-87.30252838134766,-155.07748413085938,9.77717304229736,0.20773176848888,-0.31974032521248,-1.29664289951324,-0.77343958616257,-1.56800961494446
304,2290190331,150.36375427246094,-87.26612854003906,-154.62338256835938,9.80949020385742,0.15020550787449,-0.38281077146530,-1.42300331592560,-0.67657232284546,-1.92652344703674
305,2290206998,149.82458496093750,-87.22908020019531,-154.13545227050781,9.78908061981201,0.17598748207092,-0.44664722681046,-2.10040783882141,-0.68004280328751,-1.99694538116455
306,2290223665,149.40679931640625,-87.18513488769531,-153.74865722656250,9.72686672210693,0.20683318376541,-0.50021082162857,-1.38679957389832,-1.17249810695648,-1.95721995830536
307,2290240332,149.15927124023438,-87.13672637939453,-153.53053283691406,9.70733356475830,0.28413775563240,-0.46602120995522,-0.90745788812637,-1.63539636135101,-1.70754742622375
308,2290256999,148.83802795410156,-87.08577728271484,-153.28750610351562,9.72005462646484,0.24081666767597,-0.37233239412308,-2.40586519241333,-1.65785896778107,-1.92418003082275
309,2290273666,148.49615478515625,-87.03456115722656,-153.00453186035156,9.76238918304443,0.27298906445503,-0.42836871743202,-2.54809236526489,-1.61981129646301,-2.00348949432373
310,2290290333,148.16317749023438,-86.98156738281250,-152.73901367187500,9.78290271759033,0.29147058725357,-0.44693854451180,-2.68002319335938,-1.70343649387360,-2.05389499664307
311,2290307000,147.84262084960938,-86.92591094970703,-152.50933837890625,9.76639556884766,0.33759197592735,-0.50664192438126,-3.47623276710510,-1.86442542076111,-2.09563112258911
312,2290323667,147.66586303710938,-86.87093353271484,-152.38555908203125,9.76596546173096,0.27776265144348,-0.50553524494171,-2.23692369461060,-2.05661034584045,-1.77467846870422
313,2290340334,147.59811401367188,-86.81636047363281,-152.29594421386719,9.74940395355225,0.32272052764893,-0.50389266014099,-0.10922535508871,-2.12613558769226,-1.54584157466888
314,2290357001,147.63330078125000,-86.75743865966797,-152.32357788085938,9.73402500152588,0.35855984687805,-0.48559734225273,0.00267012370750,-2.54524922370911,-1.41155421733856
315,2290373668,147.72631835937500,-86.68831634521484,-152.44190979003906,9.73932552337646,0.35295739769936,-0.41764035820961,-0.11674267798662,-3.16935372352600,-1.55524134635925
316,2290390335,147.89627075195312,-86.61389923095703,-152.64068603515625,9.75771999359131,0.29978781938553,-0.43943789601326,-0.55789583921432,-3.59393596649170,-1.44910264015198
317,2290407002,148.21659851074219,-86.52999877929688,-152.98843383789062,9.71873855590820,0.31694144010544,-0.41815522313118,0.15883074700832,-4.38111639022827,-1.31015360355377
318,2290423669,148.67851257324219,-86.42998504638672,-153.48753356933594,9.75353813171387,0.35664829611778,-0.41315978765488,-0.23119308054447,-5.48347473144531,-1.26663780212402
319,2290440336,149.33326721191406,-86.30832672119141,-154.17182922363281,9.66102695465088,0.34599652886391,-0.35864412784576,0.33755618333817,-7.02520513534546,-1.24242091178894
320,2290457003,150.07893371582031,-86.16319274902344,-154.95404052734375,9.66436481475830,0.36508476734161,-0.24396029114723,-0.63250583410263,-8.51247215270996,-1.40784072875977
321,2290473670,150.76164245605469,-85.99968719482422,-155.72364807128906,9.66228771209717,0.45685437321663,-0.32728382945061,-3.82562947273254,-9.54082393646240,-1.76822471618652
322,2290490337,151.37509155273438,-85.81867980957031,-156.46508789062500,9.77565574645996,0.33554118871689,-0.40533304214478,-5.88481521606445,-10.47872447967529,-2.17089533805847
323,2290507004,152.00683593750000,-85.61621856689453,-157.24337768554688,9.71912765502930,0.22603547573090,-0.55257469415665,-6.83102703094482,-11.77793025970459,-2.39574933052063
324,2290523671,152.66885375976562,-85.39028167724609,-158.05232238769531,9.68871974945068,0.27224674820900,-0.58983105421066,-5.07376337051392,-13.13934898376465,-2.75523662567139
325,2290540338,153.34912109375000,-85.13864898681641,-158.82200622558594,9.62350463867188,0.36186197400093,-0.61060094833374,-4.13814496994019,-14.64549636840820,-3.11334180831909
326,2290557005,154.03868103027344,-84.86397552490234,-159.66703796386719,9.64237117767334,0.37339344620705,-0.57326042652130,-4.88598585128784,-16.04461669921875,-3.23899817466736
327,2290573672,154.66314697265625,-84.57086181640625,-160.42802429199219,9.68200492858887,0.39440345764160,-0.55642133951187,-4.96816539764404,-17.05838394165039,-3.64609980583191
328,2290590339,155.10124206542969,-84.27505493164062,-160.99055480957031,9.87471389770508,0.30613735318184,-0.67082512378693,-6.09904479980469,-16.91543006896973,-4.23310565948486
329,2290607006,155.41413879394531,-83.98321533203125,-161.45570373535156,9.78288650512695,0.38624247908592,-1.02005660533905,-6.07139444351196,-16.48497962951660,-4.56923389434814
330,2290623673,155.61764526367188,-83.70434570312500,-161.80558776855469,9.67485713958740,0.45444524288177,-1.30531966686249,-7.31909227371216,-15.61540031433105,-4.57348489761353
331,2290640340,155.71949768066406,-83.44455718994141,-162.04637145996094,9.64938449859619,0.37563896179199,-1.39461326599121,-6.98388576507568,-14.32058620452881,-4.62736082077026
332,2290657007,155.71369934082031,-83.21548461914062,-162.16551208496094,9.75655937194824,0.32757607102394,-1.42167282104492,-5.70892047882080,-12.30892086029053,-4.63117599487305
333,2290673674,155.57214355468750,-83.01988983154297,-162.17364501953125,9.82958221435547,0.46744343638420,-1.39826214313507,-4.70718050003052,-10.01522254943848,-4.80046176910400
334,2290690341,155.29815673828125,-82.85781860351562,-162.00218200683594,9.84352016448975,0.57324951887131,-1.39390599727631,-5.55109500885010,-7.80794620513916,-4.81310224533081
335,2290707008,154.90339660644531,-82.73072814941406,-161.75440979003906,9.80041122436523,0.52775114774704,-1.35520374774933,-6.93599796295166,-5.55123424530029,-4.67426824569702
336,2290723675,154.45225524902344,-82.63124847412109,-161.43000793457031,9.78922748565674,0.32122457027435,-1.50369453430176,-4.57028007507324,-3.67749762535095,-4.70342731475830
337,2290740342,153.99264526367188,-82.55210876464844,-161.03045654296875,9.72232627868652,0.54054397344589,-1.40249979496002,-2.46597814559937,-2.38825631141663,-4.54675388336182
338,2290757009,153.46905517578125,-82.48663330078125,-160.59490966796875,9.72768306732178,0.59185522794724,-1.27786517143250,-4.01886320114136,-1.46076929569244,-4.50565814971924
339,2290773676,152.89129638671875,-82.42879486083984,-160.09457397460938,9.70635509490967,0.42071369290352,-1.29141283035278,-3.49851632118225,-0.77066063880920,-4.78907632827759
340,2290790343,152.31066894531250,-82.36878967285156,-159.58671569824219,9.60962963104248,0.54958897829056,-1.19322848320007,-3.37597179412842,-0.79841202497482,-4.92402935028076
341,2290807010,151.64680480957031,-82.30506896972656,-159.03857421875000,9.60523605346680,0.72783762216568,-1.11201918125153,-6.91567325592041,-0.83275866508484,-5.24616098403931
342,2290823677,150.97229003906250,-82.23848724365234,-158.52020263671875,9.64755344390869,0.57754188776016,-1.15695250034332,-8.66972160339355,-0.97387188673019,-5.24397134780884
343,2290840344,150.33328247070312,-82.16381835937500,-158.00544738769531,9.63520431518555,0.46728575229645,-1.16647017002106,-6.54473829269409,-1.30751574039459,-5.52805423736572
344,2290857011,149.73924255371094,-82.08338928222656,-157.50976562500000,9.71443271636963,0.66928589344025,-1.11263883113861,-4.61027431488037,-1.57515585422516,-5.66504383087158
345,2290873678,149.06536865234375,-81.99813079833984,-157.00851440429688,9.69839382171631,0.80265033245087,-1.01209652423859,-9.41643524169922,-1.74571073055267,-5.87560606002808
346,2290890345,148.38084411621094,-81.90319061279297,-156.48982238769531,9.60727214813232,0.38657748699188,-1.23526310920715,-9.25675296783447,-2.07850980758667,-6.33723735809326
347,2290907012,147.83024597167969,-81.79632568359375,-156.05242919921875,9.57484436035156,0.64893972873688,-1.14417922496796,-5.63619136810303,-2.92726349830627,-6.25786304473877
348,2290923679,147.18836975097656,-81.68202209472656,-155.61303710937500,9.59202003479004,0.69962006807327,-1.20147001743317,-11.36974239349365,-3.22072291374207,-6.54234647750854
349,2290940346,146.60552978515625,-81.55882263183594,-155.20671081542969,9.54152202606201,0.74258518218994,-1.21265792846680,-9.60171890258789,-3.70542931556702,-6.69858264923096
350,2290957013,145.96275329589844,-81.44739532470703,-154.81147766113281,9.58483982086182,1.24425899982452,-1.10756659507751,-13.54889774322510,-3.04864335060120,-6.35350370407104
351,2290973680,145.21711730957031,-81.34892272949219,-154.36755371093750,9.63679409027100,0.62330090999603,-1.29997885227203,-17.31913566589355,-2.09300804138184,-6.29039621353149
352,2290990347,144.60803222656250,-81.25218963623047,-153.94816589355469,9.57763671875000,0.58292859792709,-1.42454147338867,-10.68339538574219,-2.04293394088745,-6.10592985153198
353,2291007014,143.94819641113281,-81.17592620849609,-153.56948852539062,9.78484439849854,1.55954337120056,-1.15522277355194,-16.30110168457031,-1.18106675148010,-5.12381267547607
354,2291023681,143.09370422363281,-81.13417053222656,-153.17793273925781,9.95544528961182,1.01295769214630,-1.48406958580017,-26.93186187744141,0.66305685043335,-4.06365728378296
355,2291040348,142.36601257324219,-81.10764312744141,-152.76641845703125,9.77112674713135,0.60191631317139,-1.55418491363525,-18.20478630065918,1.56713426113129,-3.65881705284119
356,2291057015,141.73222351074219,-81.07057952880859,-152.33723449707031,9.44363212585449,0.79861056804657,-1.22272503376007,-11.46358394622803,1.22607398033142,-4.18610239028931
357,2291073682,140.89610290527344,-81.04583740234375,-151.78289794921875,9.70964622497559,0.95766615867615,-0.72871208190918,-16.16713333129883,2.60578083992004,-4.63708066940308
358,2291090349,138.87541198730469,-81.15673065185547,-150.45904541015625,10.03933715820312,0.68210738897324,-1.13419377803802,-41.64249038696289,13.54020309448242,-4.78082227706909
359,2291107016,137.44665527343750,-81.23976135253906,-149.31527709960938,9.80308055877686,0.46007457375526,-1.53963303565979,-16.78163337707520,11.23648166656494,-4.18045949935913
360,2291123683,136.72151184082031,-81.27260589599609,-148.54098510742188,9.66839218139648,0.77677601575851,-1.32407379150391,3.53078126907349,6.78491353988647,-3.50229382514954
361,2291140350,136.17884826660156,-81.28481292724609,-148.03091430664062,9.66978836059570,2.04647040367126,-0.66118353605270,-1.17910635471344,4.26321506500244,-2.53026580810547
362,2291157017,135.50474548339844,-81.29063415527344,-147.66281127929688,9.61308765411377,1.70573532581329,-1.11168837547302,-17.48318290710449,3.10522913932800,-1.83230888843536
363,2291173684,135.23799133300781,-81.26779174804688,-147.54504394531250,9.71079063415527,1.56139123439789,-0.81431800127029,-7.89612722396851,0.30320957303047,-1.39554655551910
364,2291190351,135.30799865722656,-81.21047973632812,-147.67491149902344,9.79733371734619,1.10298347473145,-0.81103801727295,-2.37908697128296,-2.74737238883972,-1.23937308788300
365,2291207018,135.88546752929688,-81.10710906982422,-148.18974304199219,9.53584480285645,1.17167747020721,-0.66863077878952,5.25432586669922,-7.22310352325439,-0.60951846837997
366,2291223685,136.68206787109375,-80.95536804199219,-149.00219726562500,9.43732929229736,1.16165816783905,-0.51720625162125,0.76752978563309,-11.30652809143066,-0.46113130450249
367,2291240352,137.52635192871094,-80.76197052001953,-149.91146850585938,9.56135177612305,0.72849917411804,-0.78719502687454,-2.07742190361023,-13.87211799621582,-1.20743489265442
368,2291257019,138.55426025390625,-80.52535247802734,-150.86608886718750,9.53819465637207,1.14609551429749,-0.83550894260406,6.28542089462280,-16.25994682312012,-2.23013877868652
369,2291273686,139.55297851562500,-80.25775146484375,-151.82444763183594,9.46167469024658,0.82678246498108,-1.06570696830750,4.35382461547852,-17.89451217651367,-2.93578195571899
370,2291290353,140.69383239746094,-79.95629119873047,-152.76577758789062,9.62629413604736,0.32219967246056,-1.09489822387695,13.93370342254639,-19.57559776306152,-3.80862975120544
371,2291307020,141.78230285644531,-79.63690948486328,-153.60192871093750,9.71625423431396,1.13605797290802,-0.97187715768814,17.05906867980957,-19.98393630981445,-4.73329019546509
372,2291323687,142.56484985351562,-79.31093597412109,-154.31881713867188,9.58061313629150,0.87630707025528,-1.49689650535583,5.78869104385376,-19.74205780029297,-5.45049381256104
373,2291340354,143.26113891601562,-78.98088073730469,-154.92340087890625,9.59707546234131,0.88666760921478,-1.60059583187103,7.27944231033325,-19.39241790771484,-6.15744400024414
374,2291357021,143.90573120117188,-78.66876220703125,-155.45361328125000,9.65416812896729,1.04148125648499,-1.67257857322693,8.59045505523682,-18.20923614501953,-5.82308197021484
375,2291373688,144.46566772460938,-78.38130950927734,-155.94519042968750,9.49783897399902,1.60148072242737,-1.65654921531677,5.80997228622437,-16.89542388916016,-4.99974584579468
376,2291390355,144.86984252929688,-78.11168670654297,-156.39607238769531,9.54153633117676,1.41326117515564,-1.80283021926880,-1.10880053043365,-15.86420249938965,-4.52680587768555
377,2291407022,145.23684692382812,-77.85263824462891,-156.79389953613281,9.62095260620117,0.94155180454254,-1.91699349880219,-0.20369797945023,-15.06546783447266,-4.49475097656250
378,2291423689,145.47554016113281,-77.61019134521484,-157.08433532714844,9.61502933502197,0.87756520509720,-1.85470521450043,-1.59202253818512,-13.54879570007324,-4.88633012771606
379,2291440356,145.72053527832031,-77.37538146972656,-157.34056091308594,9.58982276916504,1.09930157661438,-1.80174839496613,0.83638966083527,-12.98420047760010,-4.88697052001953
380,2291457023,145.90490722656250,-77.13642883300781,-157.55497741699219,9.58808422088623,0.88630682229996,-1.84105455875397,-0.39475604891777,-12.93657493591309,-5.36982154846191
381,2291473690,146.26147460937500,-76.88215637207031,-157.80760192871094,9.61839580535889,1.15420484542847,-1.64685285091400,7.72400903701782,-14.04560756683350,-5.35212421417236
382,2291490357,146.54724121093750,-76.61952972412109,-158.06126403808594,9.53697586059570,1.59038889408112,-1.57236492633820,3.48379755020142,-14.52519130706787,-5.48656511306763
383,2291507024,146.83148193359375,-76.34948730468750,-158.34507751464844,9.54835319519043,1.28488171100616,-1.87296962738037,1.62417316436768,-15.20532608032227,-5.24099063873291
384,2291523691,147.20758056640625,-76.06221008300781,-158.68090820312500,9.46911144256592,1.46774709224701,-1.75784981250763,4.12140130996704,-16.55347824096680,-5.02092599868774
385,2291540358,147.56646728515625,-75.76106262207031,-159.04090881347656,9.36276912689209,1.31850147247314,-1.82989990711212,1.71110343933105,-17.53461647033691,-4.97897386550903
386,2291557025,147.98139953613281,-75.44302368164062,-159.44277954101562,9.41639804840088,1.22911727428436,-1.96578967571259,2.66314148902893,-18.81866073608398,-4.76962852478027
387,2291573692,148.45396423339844,-75.10363006591797,-159.86418151855469,9.55815601348877,1.14779102802277,-1.86729645729065,5.02600669860840,-20.18033790588379,-4.93198823928833
388,2291590359,148.98609924316406,-74.72580718994141,-160.30545043945312,9.56214904785156,1.14988386631012,-1.73782408237457,7.51672124862671,-22.43227577209473,-5.55616188049316
389,2291607026,149.49714660644531,-74.30230712890625,-160.74575805664062,9.45115852355957,1.23446083068848,-1.76950407028198,6.33098125457764,-24.91686058044434,-6.59933233261108
390,2291623693,149.97149658203125,-73.82635498046875,-161.21786499023438,9.35857009887695,1.29732441902161,-1.77049899101257,2.33527660369873,-28.07047653198242,-7.34173631668091
391,2291640360,150.57566833496094,-73.28526306152344,-161.75679016113281,9.36295127868652,1.18805098533630,-1.79093515872955,6.35638618469238,-32.22026443481445,-7.81753921508789
392,2291657027,151.20225524902344,-72.69244384765625,-162.32969665527344,9.41877937316895,1.49440753459930,-1.92799508571625,5.84610652923584,-35.45330429077148,-8.18671607971191
393,2291673694,151.81265258789062,-72.08533477783203,-162.91862487792969,9.45307826995850,1.39245808124542,-2.44950389862061,4.07686376571655,-36.60049819946289,-7.65064096450806
394,2291690361,152.39129638671875,-71.47397613525391,-163.49415588378906,9.36000251770020,1.47518742084503,-2.81660628318787,3.04492330551147,-36.95972061157227,-7.29149866104126
395,2291707028,152.96165466308594,-70.85191345214844,-164.03520202636719,9.30978870391846,1.51010298728943,-2.91514730453491,4.62217473983765,-37.46004486083984,-7.48980617523193
396,2291723695,153.55421447753906,-70.20360565185547,-164.56822204589844,9.22375011444092,1.45660734176636,-2.70408034324646,6.52701807022095,-39.02214813232422,-7.65155792236328
397,2291740362,154.07876586914062,-69.53681182861328,-165.09391784667969,9.32856178283691,1.65555727481842,-2.60923838615417,2.98209786415100,-40.17846679687500,-7.58062219619751
398,2291757029,154.57423400878906,-68.85584259033203,-165.57255554199219,9.22915363311768,1.13728833198547,-3.06424164772034,4.00937891006470,-40.73265838623047,-8.17817211151123
399,2291773696,155.11842346191406,-68.17218780517578,-166.00622558593750,9.15466785430908,0.95540225505829,-3.49416995048523,9.56411743164062,-40.67206192016602,-8.47961139678955
400,2291790363,155.59300231933594,-67.47810363769531,-166.42732238769531,9.33202171325684,1.37307906150818,-3.42562055587769,6.20024061203003,-41.32019805908203,-8.36916923522949
401,2291807030,156.10563659667969,-66.75472259521484,-166.84913635253906,9.58514690399170,1.46318364143372,-3.14223742485046,8.56906318664551,-43.11866760253906,-8.44990634918213
402,2291823697,156.52539062500000,-66.02275848388672,-167.23661804199219,9.68073558807373,1.82705950737000,-3.24806261062622,5.00869369506836,-43.45288848876953,-8.78716373443604
403,2291840364,156.98777770996094,-65.29238891601562,-167.59846496582031,9.28662109375000,1.36525094509125,-3.77533745765686,9.08570384979248,-43.28868103027344,-8.74450778961182
404,2291857031,157.47854614257812,-64.56702423095703,-167.95617675781250,9.26403141021729,1.69863712787628,-3.91516184806824,11.12662696838379,-43.14349365234375,-8.12768459320068
405,2291873698,157.90631103515625,-63.85197067260742,-168.29125976562500,9.49816417694092,1.48368322849274,-4.23180198669434,8.68944263458252,-42.50755691528320,-7.86599445343018
406,2291890365,158.47770690917969,-63.11572265625000,-168.61938476562500,9.67796134948730,1.36642372608185,-3.95896220207214,17.79011344909668,-43.77291870117188,-7.92325019836426
407,2291907032,159.07022094726562,-62.29198074340820,-168.94810485839844,10.33008193969727,1.42014658451080,-3.37146377563477,19.14790534973145,-48.84130859375000,-9.13891983032227
408,2291923699,159.81729125976562,-61.26683044433594,-169.25601196289062,11.54906272888184,0.95937728881836,-2.81918573379517,29.67362785339355,-60.15797042846680,-13.09447669982910
409,2291940366,160.86160278320312,-59.92008209228516,-169.55938720703125,12.79234218597412,1.17612278461456,-1.18294119834900,47.91817474365234,-78.60709381103516,-18.44669723510742
410,2291957033,161.90065002441406,-58.13248443603516,-169.81599426269531,14.03580760955811,0.70088785886765,0.69343173503876,50.25951385498047,-103.68808746337891,-26.41423225402832
411,2291973700,163.30789184570312,-55.75742721557617,-169.96881103515625,17.74838829040527,-0.65332597494125,2.25918340682983,77.85939025878906,-137.01745605468750,-37.51525497436523
412,2291990367,164.58483886718750,-53.09313964843750,-169.84835815429688,23.01587867736816,-1.53644239902496,7.40780496597290,83.60443115234375,-152.02476501464844,-47.93889617919922
413,2292007034,164.67808532714844,-50.88800430297852,-168.97453308105469,26.01045799255371,-3.66858839988708,5.57943725585938,48.02999496459961,-118.62860107421875,-65.89890289306641
414,2292023701,167.15010070800781,-46.91875076293945,-168.65820312500000,18.87646675109863,6.85375738143921,-8.53159332275391,163.68371582031250,-227.63485717773438,-69.78269958496094
415,2292040368,166.08328247070312,-42.61077499389648,-168.41265869140625,14.96544647216797,6.55850124359131,-5.47787618637085,-52.47130966186523,-248.70803833007812,-69.71067047119141
416,2292057035,165.91395568847656,-39.09126281738281,-167.91967773437500,6.47282743453979,-4.96568059921265,-3.67917132377625,10.33281040191650,-199.17028808593750,-72.50212860107422
417,2292073702,169.60221862792969,-36.79920959472656,-167.51988220214844,0.23351171612740,-10.09046363830566,3.22416353225708,237.14259338378906,-130.10614013671875,-47.36336517333984
418,2292090369,173.70101928710938,-35.67012405395508,-167.17300415039062,-7.13958406448364,2.33321142196655,12.33609867095947,259.32858276367188,-64.31088256835938,-26.16151428222656
419,2292107036,174.56549072265625,-35.92414474487305,-166.69714355468750,-12.17675971984863,-1.24645197391510,19.38521957397461,69.68989562988281,17.81663322448730,-21.17209625244141
420,2292123703,174.48464965820312,-37.61641311645508,-166.11007690429688,-14.01282024383545,-3.75744843482971,22.11552619934082,17.35980224609375,104.04460144042969,-18.08642005920410
421,2292140370,174.10676574707031,-40.63975524902344,-165.52294921875000,-13.41449737548828,-3.80910658836365,19.68406677246094,0.69101679325104,183.49166870117188,-8.85944938659668
422,2292157037,173.33604431152344,-44.81430435180664,-165.17712402343750,-15.11139583587646,-3.86938023567200,14.78134822845459,-31.01695060729980,250.90618896484375,12.53960037231445
423,2292173704,172.71856689453125,-49.89772796630859,-164.94868469238281,-13.07459449768066,-4.09725427627563,8.89209365844727,-25.81837081909180,304.14648437500000,28.10414695739746
424,2292190371,171.90446472167969,-55.48054504394531,-164.91500854492188,-9.64354133605957,-0.76814419031143,0.85502004623413,-46.07902145385742,332.39837646484375,43.88885498046875
425,2292207038,171.27836608886719,-61.21928024291992,-165.14936828613281,-5.72205686569214,-0.58470612764359,-6.27365827560425,-48.39353942871094,339.82946777343750,57.93831634521484
426,2292223705,171.28529357910156,-66.80377197265625,-165.47479248046875,0.68248903751373,-0.48478391766548,-9.43075275421143,-16.02674484252930,330.20040893554688,59.52804946899414
427,2292240372,170.98120117187500,-72.03989410400391,-165.97375488281250,10.15932941436768,1.71135735511780,-11.03306865692139,-45.15245437622070,309.10623168945312,59.10173797607422
428,2292257039,170.67353820800781,-76.21022033691406,-167.85781860351562,16.07881546020508,7.76184606552124,-14.73060703277588,-126.08082580566406,242.40339660644531,70.69295501708984
429,2292273706,171.81649780273438,-78.80068206787109,-171.88072204589844,13.89267063140869,5.20047187805176,-16.67987060546875,-165.97666931152344,145.94786071777344,75.55007934570312
430,2292290373,175.16435241699219,-79.81412506103516,-176.61077880859375,11.82562828063965,4.24461650848389,-8.99924564361572,-76.88440704345703,54.80393981933594,59.50072860717773
431,2292307040,177.59947204589844,-79.69869232177734,179.45507812500000,9.31292438507080,0.23204778134823,-1.08601367473602,-85.05044555664062,-9.11547946929932,41.76792907714844
432,2292323707,179.73275756835938,-79.17074584960938,176.69291687011719,4.64327001571655,0.97069829702377,0.96563541889191,-33.79773330688477,-31.91126251220703,29.95504760742188
433,2292340374,-177.46324157714844,-72.96417999267578,177.58549499511719,7.66960144042969,15.76613998413086,-126.69711303710938,221.18942260742188,-372.12741088867188,-5.21401548385620
434,2292357041,173.62452697753906,-65.58044433593750,-177.90086364746094,60.54819488525391,70.16475677490234,74.32581329345703,-279.34454345703125,-438.64849853515625,-110.34632873535156
435,2292373708,171.76617431640625,-60.77764511108398,-177.26617431640625,61.37468719482422,-56.05213928222656,-37.21271133422852,-76.23580932617188,-283.12979125976562,-53.18034744262695
436,2292390375,179.08819580078125,-57.64367675781250,179.39202880859375,62.27499771118164,0.22963351011276,25.73847961425781,268.05053710937500,-195.08102416992188,87.71439361572266
437,2292407042,176.61914062500000,-54.15408325195312,178.75202941894531,-5.71087408065796,2.95757889747620,-26.36344528198242,-178.74203491210938,-209.57951354980469,14.03901576995850
438,2292423709,-178.92893981933594,-51.34707260131836,178.72837829589844,-13.21985816955566,-5.91217470169067,-10.29213809967041,267.07727050781250,-167.94480895996094,-2.17106652259827
439,2292440376,179.70861816406250,-49.52655792236328,179.34140014648438,-4.91847991943359,-7.45184135437012,-13.31681442260742,-52.23286819458008,-108.87104797363281,-22.33149147033691
440,2292457043,-179.74429321289062,-48.03470993041992,179.29180908203125,11.12279891967773,2.06144952774048,-9.03388214111328,31.72281646728516,-88.98851013183594,2.27078437805176
441,2292473710,-179.58543395996094,-46.96164321899414,179.46081542968750,13.53750324249268,1.80733060836792,-9.26695823669434,18.14880943298340,-63.90200042724609,-6.13276195526123
442,2292490377,-179.49299621582031,-46.37318420410156,179.92761230468750,10.62812995910645,-0.18577310442924,-9.36561584472656,27.06089782714844,-34.94585037231445,-18.59070396423340
443,2292507044,-179.74421691894531,-46.24454498291016,-179.30007934570312,6.16189098358154,-1.83831310272217,-8.66651439666748,19.57692718505859,-7.41934537887573,-31.61315917968750
444,2292523711,-179.95623779296875,-46.36017227172852,-178.55535888671875,3.89978384971619,-4.89941883087158,-10.21526336669922,20.72628021240234,7.36857366561890,-30.54708862304688
445,2292540378,179.89472961425781,-46.73519515991211,-178.28181457519531,6.86771202087402,-6.46558952331543,-10.72083568572998,4.10454082489014,23.01968002319336,-10.94228363037109
446,2292557045,179.55796813964844,-47.43941497802734,-178.51028442382812,9.65135669708252,-3.22449755668640,-10.76129245758057,-29.12014389038086,42.71784591674805,9.85908317565918
447,2292573712,178.70983886718750,-48.56895446777344,-178.82057189941406,10.82954311370850,1.00255310535431,-9.92512893676758,-63.59950637817383,68.08345031738281,13.79576873779297
448,2292590379,178.56015014648438,-50.18480682373047,-178.99389648437500,11.90189075469971,-1.57153236865997,-10.81072616577148,-15.75102233886719,97.26601409912109,9.39810371398926
449,2292607046,178.51617431640625,-52.42001724243164,-178.83044433593750,14.38881206512451,4.07047080993652,-8.89904499053955,6.13590955734253,134.72355651855469,-2.39231514930725
450,2292623713,177.58633422851562,-55.82315063476562,-178.63075256347656,16.69470405578613,-2.17027306556702,-12.61999225616455,-44.94008255004883,204.80110168457031,0.24824471771717
451,2292640380,176.97865295410156,-60.50481414794922,-178.80046081542969,20.92963027954102,-1.07111191749573,-13.02611160278320,-43.96701812744141,280.81048583984375,19.00240516662598
452,2292657047,177.84460449218750,-66.72115325927734,-179.90414428710938,31.24287223815918,-2.01353216171265,-12.58572769165039,-6.31955194473267,371.72137451171875,46.57030487060547
453,2292673714,-178.31146240234375,-75.29013061523438,176.43295288085938,46.80109405517578,-2.99926376342773,-9.96322441101074,23.32427406311035,514.01684570312500,73.98957061767578
454,2292690381,-146.72688293457031,-84.65541076660156,146.82743835449219,56.98905181884766,-11.64072322845459,-0.10357999801636,139.85800170898438,610.63134765625000,129.37063598632812
455,2292707048,-52.15730667114258,-84.86637878417969,59.68983078002930,32.67198181152344,34.83950424194336,-37.02744293212891,460.84484863281250,429.83636474609375,62.41948699951172
456,2292723715,-37.23754119873047,-83.93134307861328,42.63233566284180,-31.03985786437988,-12.98274230957031,-9.11693382263184,-122.34237670898438,109.93725585937500,-31.45661735534668
457,2292740382,-65.72233581542969,-86.10766601562500,75.41758728027344,-13.75860309600830,25.65366744995117,-10.73785686492920,252.36090087890625,-209.49617004394531,7.50809240341187
458,2292757049,-136.02122497558594,-85.10423278808594,141.78511047363281,2.68187117576599,-1.18739795684814,1.19432353973389,-243.82472229003906,-292.70922851562500,-4.69379663467407
459,2292773716,-161.94120788574219,-81.12993621826172,166.87625122070312,7.43914127349854,-4.28854036331177,4.11656141281128,-58.20138168334961,-291.18368530273438,-33.25969696044922
460,2292790383,-173.99716186523438,-78.01696777343750,176.35971069335938,7.54007720947266,3.89113235473633,19.46252822875977,-162.29920959472656,-202.98109436035156,-61.47496795654297
461,2292807050,-179.90565490722656,-77.26187896728516,178.24603271484375,3.09919095039368,-8.68068504333496,12.08165550231934,-242.79347229003906,-46.04766082763672,-21.40989494323730
462,2292823717,-179.67802429199219,-78.56546020507812,176.63473510742188,2.90931868553162,-10.30094718933105,4.63541269302368,-79.73506927490234,78.74029541015625,20.32249832153320
463,2292840384,-173.37934875488281,-80.82033538818359,172.89683532714844,-1.67753005027771,-10.47909069061279,5.50556802749634,158.32000732421875,137.84135437011719,32.21673583984375
464,2292857051,-163.42788696289062,-83.29411315917969,167.52792358398438,-3.10562705993652,-0.97148996591568,5.40936183929443,279.01947021484375,154.63790893554688,14.14300537109375
465,2292873718,-153.65159606933594,-85.23819732666016,160.93464660644531,-1.52732622623444,6.70426797866821,2.02234172821045,193.98004150390625,123.22589111328125,-5.44879770278931
466,2292890385,-146.56184387207031,-86.60396575927734,154.39497375488281,-0.27570009231567,5.40236234664917,0.89439970254898,35.08137893676758,85.20631408691406,-16.14193916320801
467,2292907052,-137.67691040039062,-87.63346862792969,144.25436401367188,0.96830338239670,0.97927516698837,-1.54314219951630,-73.46601104736328,67.70263671875000,-13.11178874969482
468,2292923719,-121.55932617187500,-88.36434173583984,126.26970672607422,1.29299592971802,-2.06077551841736,-2.27981090545654,-110.23505401611328,57.01007080078125,-8.63905811309814
469,2292940386,-94.24921417236328,-88.73066711425781,97.34545135498047,1.35037791728973,-1.91905379295349,-0.94751322269440,-95.13064575195312,48.95091629028320,-6.01515579223633
470,2292957053,-64.28042602539062,-88.58972167968750,66.13173675537109,1.58350753784180,-2.70280790328979,-2.02726483345032,-73.04779052734375,45.21030426025391,0.01032858993858
471,2292973720,-45.57656860351562,-88.15602111816406,46.99293136596680,1.37837350368500,-2.52397227287292,-1.99049472808838,-24.50720214843750,41.94123458862305,2.20695567131042
472,2292990387,-34.71334838867188,-87.63478851318359,36.31412887573242,0.72991234064102,-1.02669954299927,-1.62202894687653,12.63345623016357,39.40607833862305,2.17999291419983
473,2293007054,-27.81938171386719,-87.08637237548828,29.63398933410645,0.66570985317230,0.36339101195335,-0.45126509666443,14.37982654571533,38.08530426025391,1.45890152454376
474,2293023721,-22.85017204284668,-86.36865234375000,24.47589874267578,0.43463045358658,-0.03783681616187,-0.18274459242821,-9.70930194854736,46.86479949951172,2.66851258277893
475,2293040388,-18.99759292602539,-85.47572326660156,20.50021553039551,-0.01342765800655,-2.22557687759399,-0.96441560983658,-5.65808916091919,56.50503158569336,3.53540611267090
476,2293057055,-15.75268936157227,-84.53374481201172,17.80357742309570,-0.10997632890940,-1.92067778110504,-1.62184250354767,34.63753509521484,58.58691024780273,3.70676255226135
477,2293073722,-13.93247318267822,-83.69351196289062,16.74275398254395,-0.06260897219181,-1.18905889987946,-2.49704003334045,47.02836227416992,50.87976074218750,6.89816236495972
478,2293090389,-13.31797695159912,-83.04889678955078,16.90814399719238,0.05860587954521,-0.86893647909164,-2.40004706382751,47.86159133911133,37.81614685058594,10.52838897705078
479,2293107056,-13.43826198577881,-82.60066223144531,17.60433197021484,-0.13597592711449,-0.53178125619888,-1.97195172309875,35.36116409301758,25.46629142761230,11.60577964782715
480,2293123723,-13.87023258209229,-82.30461120605469,18.35117912292480,-0.73733204603195,-0.29069903492928,-1.47537744045258,19.63856887817383,16.39678764343262,10.22034549713135
481,2293140390,-15.22373867034912,-82.17767333984375,19.54505157470703,-0.72374320030212,-0.00279092951678,-1.88120317459106,-9.10093116760254,5.47724866867065,11.58407688140869
482,2293157057,-17.56570434570312,-82.32167053222656,21.28000450134277,-0.57829123735428,-0.97238570451736,-2.80071473121643,-36.24139404296875,-11.71257972717285,11.34155845642090
483,2293173724,-21.20711326599121,-82.79230499267578,24.10223579406738,-0.62867295742035,-0.61759543418884,-3.34288930892944,-49.44402694702148,-33.35070419311523,11.64475440979004
484,2293190391,-27.82508468627930,-83.59417724609375,29.18205833435059,-0.33288508653641,0.46226653456688,-4.07418394088745,-93.29479980468750,-58.15015411376953,13.25565052032471
485,2293207058,-39.60207366943359,-84.69551849365234,39.20915603637695,-0.40046787261963,-0.02348782122135,-4.96053266525269,-106.96041107177734,-88.22079467773438,14.83398818969727
486,2293223725,-62.15152740478516,-85.89377593994141,59.93779373168945,-0.19268913567066,0.99293810129166,-4.85915851593018,-112.15204620361328,-122.84468078613281,9.64290142059326
487,2293240392,-104.46578216552734,-86.24688720703125,100.69578552246094,4.96442222595215,-0.86881303787231,-25.11581802368164,-97.49373626708984,-165.04806518554688,-0.25074237585068
488,2293257059,-161.73068237304688,-79.79120635986328,161.45700073242188,5.50202178955078,17.95685958862305,-93.52445983886719,192.93571472167969,-536.84698486328125,-45.03676605224609
489,2293273726,174.37983703613281,-73.84368896484375,174.40141296386719,72.16144561767578,11.82658672332764,93.65752410888672,-674.07714843750000,-371.87704467773438,-136.58979797363281
490,2293290393,178.50720214843750,-68.62429809570312,176.46461486816406,81.50267028808594,-19.71738624572754,-0.61733388900757,365.84524536132812,-309.62277221679688,-58.82072830200195
491,2293307060,175.81234741210938,-65.28414916992188,175.16722106933594,78.77028656005859,-4.18154907226562,16.14446449279785,-232.13168334960938,-201.17253112792969,20.86298751831055
492,2293323727,176.18946838378906,-62.19469070434570,173.76722717285156,14.89875888824463,7.35043287277222,-23.14613723754883,-51.58253860473633,-186.99917602539062,24.49773979187012
493,2293340394,178.71505737304688,-60.90805435180664,173.15216064453125,-24.74841499328613,-3.65240383148193,-19.17862129211426,120.21495056152344,-77.41622924804688,14.48332595825195
494,2293357061,178.44505310058594,-61.11181259155273,174.14241027832031,-19.92980003356934,-5.12652921676636,-15.87322616577148,36.90494537353516,13.43244266510010,-28.14226722717285
495,2293373728,178.47492980957031,-62.12581634521484,175.43568420410156,1.22062492370605,-5.16176128387451,-14.21067142486572,71.18995666503906,62.31145477294922,-34.90527725219727
496,2293390395,178.37704467773438,-63.86990737915039,176.04849243164062,12.70663547515869,-0.75766456127167,-8.53239822387695,28.01237487792969,105.56748962402344,-13.49275493621826
497,2293407062,178.57695007324219,-66.00189208984375,175.97424316406250,10.66522121429443,3.56006860733032,-6.71611499786377,9.08250617980957,128.32078552246094,5.60427761077881
498,2293423729,178.33222961425781,-68.46121215820312,176.07266235351562,8.50415420532227,5.93087720870972,-5.97421169281006,-8.10798263549805,148.06050109863281,2.01925039291382
499,2293440396,177.92721557617188,-71.05915832519531,176.64308166503906,13.23860168457031,0.48398080468178,-4.25604963302612,8.95074462890625,156.67196655273438,-6.41507816314697
500,2293457063,178.30624389648438,-73.51077270507812,176.80664062500000,15.60142421722412,-0.65389364957809,-0.51698875427246,33.21751403808594,147.59916687011719,2.18379306793213
501,2293473730,178.74678039550781,-75.74858093261719,176.18908691406250,12.09641456604004,-1.72337806224823,-1.44985449314117,-8.16775226593018,134.45413208007812,13.60403442382812
502,2293490397,179.53172302246094,-77.77842712402344,175.15744018554688,7.95064544677734,0.03476269915700,-2.55068206787109,-12.03294372558594,122.03244781494141,16.33242797851562
503,2293507064,-178.97895812988281,-79.66324615478516,173.56715393066406,8.12864780426025,-0.65650749206543,-1.80657935142517,-3.09289097785950,113.63953399658203,18.45081138610840
504,2293523731,-175.51950073242188,-81.33641815185547,170.58047485351562,8.47494792938232,-0.17236238718033,-0.41079300642014,31.93247985839844,102.12625885009766,25.06290245056152
505,2293540398,-170.42501831054688,-82.75427246093750,166.11596679687500,8.10102462768555,0.93827414512634,0.46121403574944,41.48072433471680,89.37105560302734,26.72995376586914
506,2293557065,-163.94554138183594,-83.94896697998047,160.16276550292969,8.77761459350586,0.85557711124420,0.47452384233475,35.09105300903320,79.42136383056641,24.79546356201172
507,2293573732,-155.52119445800781,-84.90084075927734,152.17240905761719,9.14890384674072,0.85451751947403,1.06689703464508,29.41268730163574,70.03026580810547,24.31202125549316
508,2293590399,-145.64289855957031,-85.61898803710938,142.30641174316406,9.03226566314697,0.98685848712921,2.23113727569580,3.87711048126221,61.87037277221680,21.88618087768555
509,2293607066,-133.68247985839844,-86.33863067626953,129.41435241699219,9.30519962310791,0.24578510224819,1.71365487575531,-52.88138198852539,68.23800659179688,13.95231246948242
510,2293623733,-119.82979583740234,-86.79637145996094,114.61311340332031,9.75439262390137,-0.95599073171616,0.39948314428329,-54.20607757568359,59.34762954711914,10.37123775482178
511,2293640400,-105.09644317626953,-86.98065948486328,99.26355743408203,9.61692619323730,-2.16513133049011,-0.00666362792253,-34.50677871704102,50.85813140869141,9.36315059661865
512,2293657067,-92.95891571044922,-86.95439147949219,86.99251556396484,9.58429336547852,-2.01441764831543,-0.09127109497786,-5.86505937576294,38.76900100708008,8.00819587707520
513,2293673734,-84.08287048339844,-86.83566284179688,78.22249603271484,9.70355319976807,-1.26732540130615,0.91427099704742,8.25950241088867,29.23720550537109,6.69617462158203
514,2293690401,-78.31106567382812,-86.69110107421875,72.51697540283203,9.69387245178223,-0.88494235277176,1.44642293453217,5.65102291107178,20.96536827087402,5.87334156036377
515,2293707068,-74.77266693115234,-86.57017517089844,69.03811645507812,9.25366210937500,-0.21927806735039,0.84964364767075,5.06602334976196,14.14278793334961,4.50849866867065
516,2293723735,-73.01901245117188,-86.45281982421875,67.31786346435547,9.73506927490234,-0.59779596328735,0.86443185806274,3.32269215583801,8.49389839172363,5.32905054092407
517,2293740402,-72.22689056396484,-86.33863067626953,66.67074584960938,9.48511314392090,-0.23657463490963,0.93266451358795,9.90318679809570,4.87755012512207,6.13578748703003
518,2293757069,-71.77511596679688,-86.22737884521484,66.40105438232422,9.55222797393799,-0.60680645704269,0.67744833230972,12.08643054962158,3.55167078971863,6.32536172866821
519,2293773736,-71.73825836181641,-86.14131164550781,66.51349639892578,9.57986068725586,-0.70837450027466,0.37894937396049,10.07550334930420,1.68336987495422,5.36761760711670
520,2293790403,-71.94644165039062,-86.07633972167969,66.91491699218750,9.72147655487061,-0.89488214254379,0.32200905680656,12.66840171813965,0.15510420501232,4.54616117477417
521,2293807070,-72.31474304199219,-86.03464508056641,67.42104339599609,9.56847858428955,-0.39486977458000,0.63680934906006,9.33374977111816,-0.72952675819397,3.34603786468506
522,2293823737,-72.97573852539062,-86.02117919921875,68.06772613525391,9.69322490692139,-0.59109348058701,0.50056982040405,0.17072784900665,-1.83077013492584,1.91371059417725
523,2293840404,-73.86271667480469,-86.01439666748047,68.96227264404297,9.75595474243164,-0.84038817882538,0.21318979561329,1.45444929599762,-2.96737241744995,1.78379011154175
524,2293857071,-75.09020233154297,-86.00717926025391,70.25360870361328,9.85160255432129,-0.62693655490875,0.16561326384544,4.77320337295532,-4.59048843383789,2.19519472122192
525,2293873738,-76.92368316650391,-86.00448608398438,72.21675872802734,9.49806594848633,-0.78858035802841,0.52596867084503,8.62789154052734,-7.44384860992432,2.46160554885864
526,2293890405,-79.32278442382812,-86.02428436279297,74.63231658935547,9.57457923889160,-0.26608872413635,0.82190090417862,1.76985728740692,-9.62341117858887,1.24949657917023
527,2293907072,-82.18352508544922,-86.05772399902344,77.40889739990234,9.79569911956787,-1.00882887840271,0.44947195053101,-4.32331037521362,-11.19877529144287,0.21657469868660
528,2293923739,-85.11992645263672,-86.08253479003906,80.32700347900391,9.69228076934814,-0.69686925411224,-0.09874169528484,-0.38080981373787,-11.61798954010010,0.16228853166103
529,2293940406,-87.73883819580078,-86.09449768066406,82.92515563964844,9.96537494659424,-0.58135956525803,-0.16924650967121,-0.47453305125237,-10.18241500854492,0.28111225366592
530,2293957073,-89.24827575683594,-86.09851837158203,84.39353942871094,9.85315799713135,-0.34847736358643,-0.55728662014008,-1.54001474380493,-5.51793575286865,0.24374966323376
531,2293973740,-90.32744598388672,-86.09359741210938,85.38586425781250,10.00107955932617,-0.91798716783524,-0.35983160138130,-4.21569728851318,-3.56515979766846,0.64759796857834
532,2293990407,-90.96018981933594,-86.08638763427734,85.97799682617188,9.79820156097412,-0.76609891653061,-0.50041633844376,-1.39409911632538,-1.93692195415497,0.73733198642731
533,2294007074,-91.40909576416016,-86.06811523437500,86.48721313476562,9.83424854278564,-1.16728103160858,-0.25559696555138,4.67736577987671,-1.62024044990540,1.36940872669220
534,2294023741,-91.89959716796875,-86.04344177246094,87.14682769775391,9.76475906372070,-0.80120295286179,0.15879325568676,11.18206787109375,-2.27530527114868,1.74024939537048
535,2294040408,-92.18643951416016,-86.02566528320312,87.58452606201172,9.61519813537598,-0.42587313055992,0.00810364075005,10.11924171447754,-1.36022698879242,1.32326149940491
536,2294057075,-92.96363830566406,-86.01395416259766,88.45412445068359,9.78023910522461,-0.95921951532364,0.10495255887508,6.54492235183716,-3.16302776336670,0.87905991077423
537,2294073742,-94.04710388183594,-86.00679016113281,89.71482849121094,9.62377357482910,-0.82795369625092,0.08364024758339,11.57992267608643,-4.79198455810547,0.41614893078804
538,2294090409,-95.49474334716797,-86.00379943847656,91.35818481445312,9.76664543151855,-0.60049879550934,0.33071875572205,12.63407897949219,-6.37704133987427,-0.06691321730614
539,2294107076,-97.28575134277344,-86.00507354736328,93.23447418212891,9.71236610412598,-0.29679211974144,0.26326420903206,5.97484922409058,-7.30657625198364,-0.62092888355255
540,2294123743,-99.17144775390625,-85.99532318115234,95.19248962402344,9.78584957122803,-0.90109604597092,-0.24787984788418,5.17993307113647,-7.71390628814697,-0.26456648111343
541,2294140410,-100.92931365966797,-85.96002960205078,97.19697570800781,9.83574962615967,-0.94656682014465,-0.38770800828934,15.62803459167480,-8.19664955139160,0.93567776679993
542,2294157077,-102.27458953857422,-85.92354583740234,98.80301666259766,9.96431350708008,-0.45740339159966,-0.06714887171984,16.53554534912109,-6.63638591766357,1.09287595748901
543,2294173744,-102.51718902587891,-85.93807983398438,99.04762268066406,9.69967842102051,-0.04560646414757,-0.46147206425667,1.21183288097382,-0.33728086948395,-0.74427944421768
544,2294190411,-102.85078430175781,-85.96289062500000,99.25154113769531,9.87429428100586,-0.93067574501038,-0.41568222641945,-6.67965173721313,-0.02556147612631,-1.30460846424103
545,2294207078,-103.32440185546875,-85.98776245117188,99.63125610351562,9.73978805541992,-0.79479259252548,-0.28362560272217,-4.56395244598389,-0.72801536321640,-1.48907113075256
546,2294223745,-104.00344848632812,-86.00090789794922,100.27983093261719,9.77229499816895,-0.59657573699951,-0.00049248686992,-0.79332780838013,-1.96464776992798,-1.08167564868927
547,2294240412,-104.55329132080078,-86.00855255126953,100.76370239257812,9.78147411346436,-0.46130314469337,-0.12645053863525,-2.90011310577393,-1.35655093193054,-0.61649763584137
548,2294257079,-105.02746582031250,-86.00997924804688,101.18489837646484,9.75284099578857,-0.77644163370132,-0.36879754066467,-2.11213850975037,-1.18691813945770,-0.20577244460583
549,2294273746,-105.48854064941406,-85.99993133544922,101.68933868408203,9.81206893920898,-0.74291098117828,-0.21034185588360,3.65703916549683,-1.70010733604431,0.34705850481987
550,2294290413,-105.69248962402344,-86.00502777099609,101.90960693359375,9.73576259613037,-0.58392834663391,-0.05902982875705,2.07746553421021,-0.31451117992401,-0.20844896137714
551,2294307080,-105.95522308349609,-86.02384185791016,102.11430358886719,9.76559925079346,-0.64117872714996,-0.18183486163616,-2.38720631599426,-0.02334597520530,-0.98179882764816
552,2294323747,-106.33578491210938,-86.04175567626953,102.42906951904297,9.74463653564453,-0.75324040651321,-0.31956493854523,-2.86120796203613,-0.46789288520813,-1.06108307838440
553,2294340414,-106.81546783447266,-86.04670715332031,102.93693542480469,9.76574993133545,-0.73860853910446,-0.17287367582321,2.74472737312317,-1.43536126613617,-0.56723171472549
554,2294357081,-107.50334167480469,-86.03943634033203,103.64677429199219,9.75561046600342,-0.53409588336945,-0.08985470980406,2.34706425666809,-2.44998264312744,-0.11915027350187
555,2294373748,-108.30442047119141,-86.02019500732422,104.43513488769531,9.75026893615723,-0.57179522514343,-0.28466016054153,0.25405877828598,-2.98175382614136,0.41677632927895
556,2294390415,-109.05145263671875,-85.98854064941406,105.20140075683594,9.81560993194580,-0.69008064270020,-0.42379438877106,2.17020893096924,-3.15593314170837,1.10173678398132
557,2294407082,-109.66891479492188,-85.94894409179688,105.86456298828125,9.82734012603760,-0.67904800176620,-0.28960007429123,3.77110552787781,-2.93705964088440,1.63950109481812
558,2294423749,-109.79424285888672,-85.92868804931641,106.01174926757812,9.79488468170166,-0.54897463321686,-0.14521224796772,2.41714072227478,-0.50512081384659,1.25696241855621
559,2294440416,-109.70474243164062,-85.93677520751953,105.87644195556641,9.75955486297607,-0.65580981969833,-0.21915185451508,-1.59994840621948,1.20473802089691,0.05859544500709
560,2294457083,-109.71560668945312,-85.94430541992188,105.85182952880859,9.75528335571289,-0.73289507627487,-0.29517695307732,-0.99892091751099,0.73798513412476,-0.04603882879019
561,2294473750,-109.88447570800781,-85.94779205322266,105.98792266845703,9.73107242584229,-0.72246307134628,-0.22023172676563,-0.85752594470978,0.02316028252244,-0.07047333568335
562,2294490417,-110.23117065429688,-85.94715881347656,106.32366180419922,9.74303531646729,-0.62610667943954,-0.19729363918304,0.42081022262573,-0.85705208778381,-0.12717986106873
563,2294507084,-110.75475311279297,-85.93803405761719,106.83737182617188,9.74877834320068,-0.66560041904449,-0.17064280807972,0.46076610684395,-1.74633800983429,0.07976435869932
564,2294523751,-111.37751770019531,-85.92316436767578,107.46334075927734,9.74083042144775,-0.65243983268738,-0.32148423790932,1.22576630115509,-2.31470918655396,0.19214008748531
565,2294540418,-111.90505218505859,-85.89993286132812,108.05142211914062,9.83445453643799,-0.74168813228607,-0.30322626233101,4.68043375015259,-2.36817622184753,0.70436853170395
566,2294557085,-112.45973968505859,-85.87313079833984,108.67304992675781,9.74836730957031,-0.59972685575485,-0.27631306648254,5.04728412628174,-2.58807396888733,0.79022228717804
567,2294573752,-113.14601135253906,-85.84169006347656,109.39443969726562,9.75387763977051,-0.69923830032349,-0.13369213044643,3.12265586853027,-3.12211155891418,0.84714651107788
568,2294590419,-113.93250274658203,-85.81208038330078,110.16983032226562,9.74616050720215,-0.71323662996292,-0.40620735287666,0.34148770570755,-3.33312106132507,0.61832255125046
569,2294607086,-114.70067596435547,-85.77543640136719,110.97091674804688,9.79333877563477,-0.70761215686798,-0.49473303556442,2.97552371025085,-3.62835907936096,0.87497478723526
570,2294623753,-115.39681243896484,-85.72767639160156,111.72264099121094,9.81185150146484,-0.63294833898544,-0.46524482965469,4.34115409851074,-3.74677968025208,1.49665892124176
571,2294640420,-115.86403656005859,-85.67740631103516,112.29915618896484,9.84307861328125,-0.72380471229553,-0.41493934392929,7.58876895904541,-3.15005493164062,1.92102313041687
572,2294657087,-115.93524932861328,-85.64611816406250,112.50918579101562,9.84863853454590,-0.72427177429199,-0.46709105372429,9.42472743988037,-1.18374252319336,1.59638249874115
573,2294673754,-115.70166778564453,-85.62323760986328,112.48714447021484,9.83113861083984,-0.84145176410675,-0.49555414915085,13.82441806793213,-0.01573901437223,1.61079025268555
574,2294690421,-115.30954742431641,-85.60025787353516,112.39304351806641,9.76954078674316,-0.71070230007172,-0.47650504112244,19.02447700500488,0.29282394051552,1.75277519226074
575,2294707088,-115.00926971435547,-85.56986999511719,112.43647003173828,9.74403667449951,-0.60763639211655,-0.25806710124016,21.74111557006836,-0.45988962054253,1.88611602783203
576,2294723755,-114.98411560058594,-85.53205108642578,112.77651214599609,9.73052310943604,-0.62759983539581,-0.35483580827713,22.97698402404785,-1.90184891223907,1.71317911148071
577,2294740422,-115.36102294921875,-85.47316741943359,113.63449859619141,9.66703319549561,-0.70731198787689,-0.40593639016151,29.83299636840820,-4.66795539855957,1.80623269081116
578,2294757089,-116.03231811523438,-85.40424346923828,114.81299591064453,9.67860794067383,-0.60035610198975,-0.22063973546028,31.33416938781738,-6.37372970581055,1.61238276958466
579,2294773756,-116.88987731933594,-85.34141540527344,116.08346557617188,9.73667812347412,-0.56874078512192,-0.18042211234570,25.65246582031250,-6.70247602462769,0.96246993541718
580,2294790423,-117.81782531738281,-85.28474426269531,117.33262634277344,9.72047901153564,-0.59898424148560,-0.10030056536198,20.15040397644043,-6.51298618316650,0.52596396207809
581,2294807090,-118.77917480468750,-85.24313354492188,118.48474121093750,9.76792621612549,-0.63145804405212,-0.10662928223610,12.33852291107178,-5.70767831802368,-0.20700196921825
582,2294823757,-119.65753936767578,-85.21401977539062,119.45134735107422,9.78114700317383,-0.75814354419708,-0.33991649746895,6.22284364700317,-4.57640123367310,-0.50340491533279
583,2294840424,-120.47022247314453,-85.18578338623047,120.31774139404297,9.74788570404053,-0.62731754779816,-0.36739042401314,4.16696214675903,-4.12820434570312,-0.38280746340752
584,2294857091,-121.18898010253906,-85.15847015380859,121.03962707519531,9.74532318115234,-0.71177357435226,-0.36238044500351,1.16307914257050,-3.48062467575073,-0.13628517091274
585,2294873758,-121.73699188232422,-85.13908386230469,121.58257293701172,9.82958126068115,-0.68195700645447,-0.34395781159401,0.70878654718399,-2.46590089797974,-0.12112245708704
586,2294890425,-122.20834350585938,-85.13385772705078,122.00127410888672,9.80614662170410,-0.71219366788864,-0.51672232151031,-2.11802935600281,-1.48730385303497,-0.52763444185257
587,2294907092,-122.64035034179688,-85.12403869628906,122.40510559082031,9.69795799255371,-0.74833709001541,-0.55757772922516,-0.65071624517441,-1.55356395244598,-0.29010224342346
588,2294923759,-123.08599090576172,-85.11364746093750,122.81620025634766,9.71777534484863,-0.65976434946060,-0.45393612980843,-1.03393340110779,-1.61504709720612,-0.28234159946442
589,2294940426,-123.51673126220703,-85.09955596923828,123.20429229736328,9.75772190093994,-0.73140704631805,-0.44976723194122,-1.51537549495697,-1.63140094280243,-0.06057403981686
590,2294957093,-123.91251373291016,-85.08601379394531,123.56905364990234,9.79034519195557,-0.74137282371521,-0.48352748155594,-0.81202507019043,-1.52215003967285,-0.02890393324196
591,2294973760,-124.25028228759766,-85.06842803955078,123.90811920166016,9.75694847106934,-0.73646259307861,-0.50762218236923,1.13131928443909,-1.54276800155640,0.21738137304783
592,2294990427,-124.63565063476562,-85.05030822753906,124.27645111083984,9.70761394500732,-0.62415426969528,-0.43657967448235,0.02299380302429,-1.68969559669495,0.14284843206406
593,2295007094,-125.08155822753906,-85.03280639648438,124.66587066650391,9.74097061157227,-0.68321818113327,-0.46347233653069,-2.34659051895142,-1.77157270908356,0.03999422863126
594,2295023761,-125.54248809814453,-85.01088714599609,125.10288238525391,9.75193023681641,-0.75188624858856,-0.47493600845337,-0.40478309988976,-2.12458634376526,0.08340135216713
595,2295040428,-126.01148986816406,-84.99237823486328,125.53668212890625,9.79624748229980,-0.59587073326111,-0.42784217000008,-1.08263599872589,-1.99756014347076,-0.09841680526733
596,2295057095,-126.50548553466797,-84.97594451904297,125.95726776123047,9.76669883728027,-0.71116352081299,-0.50612187385559,-3.37319302558899,-1.87140500545502,-0.18492372334003
597,2295073762,-126.96197509765625,-84.96250152587891,126.35948181152344,9.79873943328857,-0.71719741821289,-0.55541455745697,-2.21873831748962,-1.68759500980377,-0.29233056306839
598,2295090429,-127.39741516113281,-84.94999694824219,126.74285125732422,9.74565315246582,-0.67686355113983,-0.60723334550858,-2.08592367172241,-1.57615423202515,-0.29536566138268
599,2295107096,-127.81922149658203,-84.94557189941406,127.09595489501953,9.82406711578369,-0.64956080913544,-0.51041537523270,-3.07329344749451,-1.14903676509857,-0.60194963216782
600,2295123763,-128.19046020507812,-84.95088958740234,127.38141632080078,9.78021717071533,-0.74226236343384,-0.62302488088608,-4.08559703826904,-0.50162470340729,-0.85158377885818
601,2295140430,-128.48648071289062,-84.95503997802734,127.62842559814453,9.76499748229980,-0.70167112350464,-0.66954088211060,-1.86771631240845,-0.38362699747086,-0.66906774044037
602,2295157097,-128.74900817871094,-84.96145629882812,127.83520507812500,9.76109504699707,-0.74481761455536,-0.58849459886551,-2.26575064659119,-0.11196590214968,-0.66169130802155
603,2295173764,-128.90463256835938,-84.97266387939453,127.96746063232422,9.77611732482910,-0.75375008583069,-0.67587101459503,-0.30399712920189,0.37196683883667,-0.63382470607758
604,2295190431,-128.99128723144531,-84.98569488525391,128.04551696777344,9.75778675079346,-0.66695791482925,-0.63551127910614,0.59440034627914,0.66197949647903,-0.53458827733994
605,2295207098,-129.06724548339844,-84.99810028076172,128.12380981445312,9.73334980010986,-0.73569256067276,-0.60812151432037,1.24972677230835,0.64506220817566,-0.51021772623062
606,2295223765,-129.13276672363281,-85.00809478759766,128.20408630371094,9.76108551025391,-0.66303646564484,-0.50352090597153,1.99935948848724,0.54207360744476,-0.40010881423950
607,2295240432,-129.26077270507812,-85.02055358886719,128.32995605468750,9.73899269104004,-0.60780310630798,-0.56429070234299,0.97061878442764,0.45525291562080,-0.66571891307831
608,2295257099,-129.40721130371094,-85.02823638916016,128.46717834472656,9.72476959228516,-0.63866770267487,-0.58482074737549,0.54742020368576,0.22941289842129,-0.47984746098518
609,2295273766,-129.53912353515625,-85.03406524658203,128.59510803222656,9.75261783599854,-0.67317527532578,-0.53056412935257,0.86014485359192,0.20162957906723,-0.36542922258377
610,2295290433,-129.66546630859375,-85.03987121582031,128.72636413574219,9.77579498291016,-0.63388967514038,-0.50875091552734,1.39511740207672,0.18372631072998,-0.36924549937248
611,2295307100,-129.77096557617188,-85.04718017578125,128.82241821289062,9.76991558074951,-0.70049315690994,-0.61693507432938,0.54307252168655,0.39218804240227,-0.33037820458412
612,2295323767,-129.84783935546875,-85.05359649658203,128.90890502929688,9.74114036560059,-0.69134342670441,-0.61351209878922,1.68589830398560,0.39357113838196,-0.25316873192787
613,2295340434,-129.88616943359375,-85.06208038330078,128.96774291992188,9.78600978851318,-0.66724354028702,-0.54912841320038,2.34395265579224,0.58663964271545,-0.25935420393944
614,2295357101,-129.93109130859375,-85.07041931152344,129.02284240722656,9.77303600311279,-0.61071318387985,-0.53832024335861,1.72773659229279,0.58530777692795,-0.22736392915249
615,2295373768,-130.01762390136719,-85.07840728759766,129.10871887207031,9.74487400054932,-0.63761663436890,-0.53276932239532,1.07173144817352,0.46473604440689,-0.32720226049423
616,2295390435,-130.10713195800781,-85.08238983154297,129.20811462402344,9.72767543792725,-0.63012248277664,-0.50715202093124,1.70223927497864,0.26199871301651,-0.19250507652760
617,2295407102,-130.26310729980469,-85.08529663085938,129.35562133789062,9.72832107543945,-0.59393286705017,-0.51655125617981,0.58631956577301,0.01899822056293,-0.28976929187775
618,2295423769,-130.46838378906250,-85.08426666259766,129.54971313476562,9.73467922210693,-0.63691180944443,-0.56255888938904,0.41494494676590,-0.31257739663124,-0.26667943596840
619,2295440436,-130.70318603515625,-85.08159637451172,129.75398254394531,9.76784801483154,-0.58892452716827,-0.51027512550354,-0.74717372655869,-0.41232606768608,-0.23290911316872
620,2295457103,-130.91261291503906,-85.07868957519531,129.92781066894531,9.78821468353271,-0.62307578325272,-0.54417842626572,-1.04456281661987,-0.30383068323135,-0.12119930982590
621,2295473770,-131.09002685546875,-85.07542419433594,130.08958435058594,9.74965286254883,-0.70411229133606,-0.62606155872345,0.15306788682938,-0.25875228643417,-0.07765770703554
622,2295490437,-131.24815368652344,-85.06834411621094,130.24963378906250,9.75413990020752,-0.63730198144913,-0.56254148483276,1.20678722858429,-0.41382437944412,0.10950069874525
623,2295507104,-131.42269897460938,-85.06465911865234,130.40574645996094,9.77307319641113,-0.54456698894501,-0.55630409717560,-0.01145528163761,-0.25371301174164,-0.04389376565814
624,2295523771,-131.54083251953125,-85.06533813476562,130.49560546875000,9.78476810455322,-0.70207369327545,-0.64677143096924,-0.58542943000793,0.16450396180153,-0.00340648903511
625,2295540438,-131.59535217285156,-85.06814575195312,130.54310607910156,9.78106975555420,-0.65037262439728,-0.64281255006790,0.69755542278290,0.42401182651520,0.03677343577147
626,2295557105,-131.56430053710938,-85.07411193847656,130.51489257812500,9.77111434936523,-0.64767861366272,-0.62954878807068,1.30658698081970,0.84067916870117,0.15432290732861
627,2295573772,-131.47322082519531,-85.08426666259766,130.44113159179688,9.77085399627686,-0.66857886314392,-0.58838003873825,2.18624234199524,1.17288887500763,0.13243687152863
628,2295590439,-131.32801818847656,-85.09611511230469,130.31738281250000,9.76181793212891,-0.59139907360077,-0.57382571697235,2.44224143028259,1.43732714653015,0.21797047555447
629,2295607106,-131.18908691406250,-85.10823822021484,130.18612670898438,9.75116062164307,-0.61201167106628,-0.57941824197769,1.61813998222351,1.48357093334198,0.22089032828808
630,2295623773,-131.02226257324219,-85.11886596679688,130.02775573730469,9.75914955139160,-0.61202555894852,-0.57401651144028,1.67302787303925,1.51696968078613,0.38543912768364
631,2295640440,-130.87141418457031,-85.12898254394531,129.88125610351562,9.78236007690430,-0.63113814592361,-0.55535656213760,1.41743874549866,1.45750975608826,0.35917323827744
632,2295657107,-130.69769287109375,-85.13977813720703,129.71903991699219,9.78555774688721,-0.62765103578568,-0.54883593320847,1.85439789295197,1.54301142692566,0.37559744715691
633,2295673774,-130.51123046875000,-85.14820861816406,129.54510498046875,9.73605918884277,-0.58825767040253,-0.54396814107895,1.92382764816284,1.49564731121063,0.51810008287430
634,2295690441,-130.35525512695312,-85.15192413330078,129.41143798828125,9.70919036865234,-0.62202340364456,-0.55283284187317,2.49291610717773,1.14854395389557,0.60520887374878
635,2295707108,-130.27124023437500,-85.14970397949219,129.33337402343750,9.74676990509033,-0.59532326459885,-0.48773705959320,1.50266516208649,0.70694249868393,0.68779706954956
636,2295723775,-130.22271728515625,-85.14312744140625,129.29833984375000,9.75756740570068,-0.65401530265808,-0.50659668445587,1.94477880001068,0.38022691011429,0.73742163181305
637,2295740442,-130.24353027343750,-85.13015747070312,129.33396911621094,9.72995281219482,-0.58125150203705,-0.47063544392586,2.01097488403320,-0.15047462284565,0.80854815244675
638,2295757109,-130.30830383300781,-85.11585235595703,129.39440917968750,9.73793792724609,-0.57619023323059,-0.49552094936371,0.86088770627975,-0.29838797450066,0.78344768285751
639,2295773776,-130.38836669921875,-85.10455322265625,129.44799804687500,9.77303791046143,-0.66512805223465,-0.55468761920929,-0.47475695610046,-0.16110387444496,0.67236530780792
640,2295790443,-130.40867614746094,-85.10027313232422,129.43382263183594,9.79954910278320,-0.63202780485153,-0.59548550844193,-0.93358284235001,0.38049587607384,0.57188677787781
641,2295807110,-130.34559631347656,-85.10055541992188,129.34783935546875,9.79352188110352,-0.63284134864807,-0.63593935966492,-0.22672359645367,0.83906555175781,0.60172545909882
642,2295823777,-130.19094848632812,-85.10111236572266,129.18202209472656,9.71725749969482,-0.64816844463348,-0.59872519969940,0.49357593059540,1.16590929031372,0.85010474920273
643,2295840444,-130.03582763671875,-85.10043334960938,129.03305053710938,9.74047946929932,-0.66184455156326,-0.55171167850494,1.52870035171509,1.05147171020508,0.85074502229691
644,2295857111,-129.92782592773438,-85.09891510009766,128.91961669921875,9.75144100189209,-0.65837854146957,-0.48707211017609,0.82762956619263,0.87507712841034,0.77737742662430
645,2295873778,-129.92729187011719,-85.09679412841797,128.89810180664062,9.75313949584961,-0.69587284326553,-0.53403878211975,-0.12358128279448,0.49499747157097,0.49731540679932
646,2295890445,-129.98497009277344,-85.09104156494141,128.94793701171875,9.71232795715332,-0.67165821790695,-0.48755505681038,0.65014636516571,0.07811233401299,0.42410147190094
647,2295907112,-130.11810302734375,-85.08542633056641,129.04910278320312,9.76596355438232,-0.55897921323776,-0.41239055991173,-0.81192255020142,-0.12860135734081,0.25704264640808
648,2295923779,-130.29229736328125,-85.07968902587891,129.16093444824219,9.79578685760498,-0.68403613567352,-0.55036067962646,-2.63488721847534,-0.16624562442303,0.21588943898678
649,2295940446,-130.40185546875000,-85.07495117187500,129.25028991699219,9.77827930450439,-0.69150245189667,-0.62478518486023,-0.10324478149414,-0.04735787957907,0.25049859285355
650,2295957113,-130.50384521484375,-85.06600189208984,129.34100341796875,9.74619483947754,-0.60075634717941,-0.59839248657227,0.43210545182228,-0.21504424512386,0.43585774302483
651,2295973780,-130.59603881835938,-85.05854797363281,129.41418457031250,9.73047733306885,-0.62759935855865,-0.59182655811310,-0.02813555113971,-0.08087209612131,0.41730129718781
652,2295990447,-130.66906738281250,-85.05371093750000,129.46098327636719,9.75532150268555,-0.62410181760788,-0.58584713935852,-0.45671281218529,0.11618561297655,0.39436513185501
653,2296007114,-130.72006225585938,-85.04956054687500,129.48306274414062,9.75578308105469,-0.65723538398743,-0.57446408271790,-0.60835283994675,0.24364723265171,0.44199198484421
654,2296023781,-130.75340270996094,-85.04658508300781,129.49168395996094,9.76699733734131,-0.65295088291168,-0.60682851076126,-0.35195693373680,0.33722320199013,0.43907207250595
655,2296040448,-130.75657653808594,-85.04413604736328,129.47682189941406,9.72307491302490,-0.63662213087082,-0.56769430637360,0.04554578289390,0.45565631985664,0.48905527591705
656,2296057115,-130.69906616210938,-85.04445648193359,129.39749145507812,9.78221607208252,-0.65500319004059,-0.58817213773727,-0.16134719550610,0.81858831644058,0.58126097917557
657,2296073782,-130.57324218750000,-85.04627227783203,129.25691223144531,9.78287220001221,-0.68846964836121,-0.60575026273727,0.27235904335976,1.12092065811157,0.71641927957535
658,2296090449,-130.38385009765625,-85.04757690429688,129.08113098144531,9.74819374084473,-0.69048231840134,-0.59147328138351,1.98967790603638,1.23216938972473,0.86430704593658
659,2296107116,-130.20436096191406,-85.04761505126953,128.92938232421875,9.74236488342285,-0.67104804515839,-0.53510153293610,2.82658576965332,1.09240102767944,0.83705508708954
660,2296123783,-130.02439880371094,-85.04777526855469,128.76467895507812,9.76201248168945,-0.59896290302277,-0.48210534453392,2.07888674736023,1.15330779552460,0.87021058797836
661,2296140450,-129.86433410644531,-85.05062103271484,128.60316467285156,9.77627849578857,-0.66404139995575,-0.51527875661850,1.07614982128143,1.24342608451843,0.73459142446518
662,2296157117,-129.70191955566406,-85.05430603027344,128.44458007812500,9.78023338317871,-0.66261923313141,-0.57903891801834,1.39582169055939,1.26424920558929,0.68477469682693
663,2296173784,-129.47729492187500,-85.06279754638672,128.22467041015625,9.73446559906006,-0.63684773445129,-0.60403656959534,1.46141588687897,1.68918967247009,0.66664099693298
664,2296190451,-129.19866943359375,-85.07205200195312,127.95057678222656,9.73268508911133,-0.65714514255524,-0.61459064483643,1.46072447299957,1.93366289138794,0.80201691389084
665,2296207118,-128.86105346679688,-85.08446502685547,127.61872863769531,9.77753829956055,-0.67416334152222,-0.57097995281219,1.54744875431061,2.29585146903992,0.82121354341507
666,2296223785,-128.47377014160156,-85.09847259521484,127.25092315673828,9.76800918579102,-0.65298473834991,-0.56055295467377,2.38030958175659,2.49764132499695,0.84864473342896
667,2296240452,-128.06002807617188,-85.11035919189453,126.85433197021484,9.73173046112061,-0.64251142740250,-0.51668184995651,2.24442148208618,2.51773476600647,1.04182851314545
668,2296257119,-127.68732452392578,-85.12054443359375,126.49404144287109,9.74338817596436,-0.69156390428543,-0.55339729785919,1.94909441471100,2.32419228553772,0.97532522678375
669,2296273786,-127.28548431396484,-85.13175964355469,126.11424255371094,9.80163669586182,-0.69068080186844,-0.54466021060944,2.53312802314758,2.44225430488586,0.97196996212006
670,2296290453,-126.83731079101562,-85.14384460449219,125.69193267822266,9.76127910614014,-0.69167828559875,-0.52246958017349,2.77127528190613,2.64949989318848,1.04177749156952
671,2296307120,-126.34936523437500,-85.15584564208984,125.23709106445312,9.77731513977051,-0.69073587656021,-0.54863405227661,3.21304249763489,2.77452754974365,1.12896299362183
672,2296323787,-125.84136199951172,-85.16893005371094,124.77266693115234,9.77014636993408,-0.68239384889603,-0.51220244169235,3.84307694435120,2.85208320617676,1.08539581298828
