sep=,
DeviceTag:,Xsens_DOT_4
FirmwareVersion:,3.0.0
AppVersion:,2023.6.0
StartTime: ,2025-04-09_11:00:30_000 CEST
© Movella Technologies B. V. 2005-2025

PacketCounter,SampleTimeFine,Euler_X,Euler_Y,Euler_Z,Acc_X,Acc_Y,Acc_Z,Gyr_X,Gyr_Y,Gyr_Z
0,2285123563,-179.27534484863281,-86.53994750976562,-114.79132843017578,0.00000000000000,0.00000000000000,0.00000000000000,0.00000000000000,0.00000000000000,0.00000000000000
1,2285140230,-178.94227600097656,-86.55957794189453,-115.16445159912109,9.79143810272217,-0.44886997342110,0.61736541986465,-2.37851715087891,0.00855464208871,-0.41321608424187
2,2285156897,-178.65354919433594,-86.57549285888672,-115.50991821289062,9.75009059906006,-0.54565435647964,0.62308818101883,-2.96374177932739,-0.21362914144993,-0.54615890979767
3,2285173564,-178.34820556640625,-86.59165191650391,-115.85150146484375,9.74499416351318,-0.65639203786850,0.67043834924698,-1.65838408470154,-0.17558786273003,-0.57659310102463
4,2285190231,-178.00920104980469,-86.61215972900391,-116.18898773193359,9.79828262329102,-0.60156822204590,0.68183642625809,0.18274660408497,0.09173188358545,-0.58717751502991
5,2285206898,-177.67568969726562,-86.63256835937500,-116.53312683105469,9.77124500274658,-0.55769163370132,0.65568000078201,-0.19283801317215,0.09746272861958,-0.59855592250824
6,2285223565,-177.31425476074219,-86.65110778808594,-116.86986541748047,9.77760887145996,-0.59751236438751,0.62856137752533,1.47444605827332,-0.02679088152945,-0.60667520761490
7,2285240232,-176.94085693359375,-86.66951751708984,-117.22760009765625,9.76276016235352,-0.50597757101059,0.62427210807800,1.53640341758728,-0.01300484873354,-0.58088964223862
8,2285256899,-176.57496643066406,-86.69340515136719,-117.56166839599609,9.79693794250488,-0.55448144674301,0.65716147422791,1.18847393989563,0.31914061307907,-0.61875158548355
9,2285273566,-176.21913146972656,-86.71961975097656,-117.92044067382812,9.71146869659424,-0.48908212780952,0.66454219818115,0.97493469715118,0.46889173984528,-0.66881805658340
10,2285290233,-175.88024902343750,-86.73889923095703,-118.25366210937500,9.73975467681885,-0.52155554294586,0.64772534370422,-0.55503356456757,0.06734858453274,-0.62704360485077
11,2285306900,-175.53115844726562,-86.76118469238281,-118.57988739013672,9.80152702331543,-0.57119905948639,0.65896511077881,1.92617118358612,0.24015104770660,-0.76047945022583
12,2285323567,-175.14712524414062,-86.78204345703125,-118.93157196044922,9.75598716735840,-0.60260945558548,0.59223651885986,2.16004705429077,0.17804668843746,-0.66363149881363
13,2285340234,-174.82768249511719,-86.80071258544922,-119.24364471435547,9.70756149291992,-0.46874871850014,0.64675438404083,1.52531325817108,0.03384718298912,-0.84819024801254
14,2285356901,-174.59123229980469,-86.81113433837891,-119.47565460205078,9.74117279052734,-0.63037890195847,0.59268921613693,0.13168129324913,-0.46365389227867,-1.01313579082489
15,2285373568,-174.30676269531250,-86.82566070556641,-119.73030853271484,9.80012512207031,-0.63393479585648,0.64546746015549,2.37233161926270,-0.20732200145721,-1.00672006607056
16,2285390235,-174.05261230468750,-86.84309387207031,-119.96225738525391,9.76078319549561,-0.53276544809341,0.67337888479233,1.88155388832092,-0.04322143271565,-1.10549533367157
17,2285406902,-173.89341735839844,-86.85552215576172,-120.10971069335938,9.72905731201172,-0.51179695129395,0.68351322412491,0.42941606044769,-0.36743974685669,-1.31338071823120
18,2285423569,-173.77233886718750,-86.86050415039062,-120.18338012695312,9.75278282165527,-0.63964289426804,0.69172787666321,0.75436449050903,-0.81138473749161,-1.41344976425171
19,2285440236,-173.56489562988281,-86.86487579345703,-120.33795928955078,9.74794197082520,-0.52137309312820,0.69141685962677,3.49216413497925,-0.84560984373093,-1.27303469181061
20,2285456903,-173.21427917480469,-86.86862945556641,-120.61488342285156,9.74227046966553,-0.34381848573685,0.58094775676727,4.23019361495972,-0.81004649400711,-0.84026950597763
21,2285473570,-172.89059448242188,-86.87049865722656,-120.90721893310547,9.75037956237793,-0.35194325447083,0.58770352602005,1.32847297191620,-0.91697299480438,-0.75392252206802
22,2285490237,-172.58164978027344,-86.87212371826172,-121.19138336181641,9.74698829650879,-0.53606641292572,0.58854550123215,0.89849346876144,-0.89971649646759,-0.78112965822220
23,2285506904,-172.20097351074219,-86.88052368164062,-121.53768157958984,9.77770996093750,-0.57132542133331,0.60569220781326,2.64768719673157,-0.51181215047836,-0.69026869535446
24,2285523571,-171.84091186523438,-86.88919830322266,-121.93058776855469,9.75864124298096,-0.45442101359367,0.60281133651733,0.80732506513596,-0.45784619450569,-0.66906124353409
25,2285540238,-171.48025512695312,-86.89392089843750,-122.28071594238281,9.69123840332031,-0.56528246402740,0.59237796068192,0.77219730615616,-0.69165170192719,-0.63566231727600
26,2285556905,-171.05865478515625,-86.89442443847656,-122.69637298583984,9.71872043609619,-0.52236545085907,0.61277228593826,0.51418131589890,-0.90159255266190,-0.38933867216110
27,2285573572,-170.69873046875000,-86.89348602294922,-123.02182769775391,9.72556209564209,-0.56884759664536,0.64640039205551,1.89640295505524,-1.02077496051788,-0.64900660514832
28,2285590239,-170.42250061035156,-86.88724517822266,-123.27595520019531,9.67968177795410,-0.62939345836639,0.60477322340012,0.98687005043030,-1.33610558509827,-0.82181549072266
29,2285606906,-170.18260192871094,-86.87664031982422,-123.47980499267578,9.75654697418213,-0.53426653146744,0.59028226137161,2.09672594070435,-1.64101839065552,-0.94737529754639
30,2285623573,-169.92672729492188,-86.86637115478516,-123.73126983642578,9.79454231262207,-0.48465839028358,0.57318550348282,0.49535596370697,-1.57624363899231,-0.80907940864563
31,2285640240,-169.66494750976562,-86.86187744140625,-123.99312591552734,9.77461814880371,-0.62050819396973,0.54586046934128,0.18146596848965,-1.21917092800140,-0.82847481966019
32,2285656907,-169.44020080566406,-86.85801696777344,-124.20562744140625,9.68873786926270,-0.63142949342728,0.51950466632843,0.39223286509514,-1.22283339500427,-0.96244210004807
33,2285673574,-169.22518920898438,-86.85346984863281,-124.39044952392578,9.71562957763672,-0.54616022109985,0.54360920190811,1.06240808963776,-1.25950431823730,-1.02195930480957
34,2285690241,-169.03919982910156,-86.85141754150391,-124.58162689208984,9.75665473937988,-0.51450979709625,0.56899112462997,0.00598056521267,-1.10758912563324,-1.08622813224792
35,2285706908,-168.79283142089844,-86.85440063476562,-124.83435821533203,9.76347827911377,-0.57680046558380,0.52687567472458,0.50641429424286,-0.78086084127426,-0.97208523750305
36,2285723575,-168.52807617187500,-86.85552215576172,-125.07328796386719,9.73108100891113,-0.60361599922180,0.50675886869431,1.59458255767822,-0.89657890796661,-0.94806045293808
37,2285740242,-168.27241516113281,-86.85882568359375,-125.30770111083984,9.72367382049561,-0.46984010934830,0.52535575628281,1.51622688770294,-0.75173270702362,-1.00290369987488
38,2285756909,-168.06567382812500,-86.86387634277344,-125.52237701416016,9.74551010131836,-0.56919682025909,0.54655992984772,-0.66683948040009,-0.64889782667160,-1.06655120849609
39,2285773576,-167.83078002929688,-86.87249755859375,-125.75722503662109,9.73085498809814,-0.64587348699570,0.53842478990555,0.20574678480625,-0.43813720345497,-1.06658315658569
40,2285790243,-167.62660217285156,-86.87582397460938,-125.96262359619141,9.70390033721924,-0.55142980813980,0.52463549375534,-0.11270227283239,-0.74627077579498,-1.08899414539337
41,2285806910,-167.42987060546875,-86.88046264648438,-126.14777374267578,9.73944664001465,-0.60252618789673,0.54649460315704,0.63660365343094,-0.69353425502777,-1.16647279262543
42,2285823577,-167.19241333007812,-86.88881683349609,-126.40005493164062,9.78397369384766,-0.54606556892395,0.54641711711884,0.30411240458488,-0.43599861860275,-1.06959283351898
43,2285840244,-166.93334960937500,-86.90490722656250,-126.65211486816406,9.75198650360107,-0.51424682140350,0.51000207662582,0.43198382854462,0.03038946911693,-1.11485028266907
44,2285856911,-166.69757080078125,-86.91993713378906,-126.88474273681641,9.71127986907959,-0.57156801223755,0.50824058055878,0.09764201194048,-0.03968686982989,-1.16501903533936
45,2285873578,-166.47117614746094,-86.93126678466797,-127.08726501464844,9.71468639373779,-0.58909988403320,0.53261983394623,0.08391360938549,-0.23959399759769,-1.15250730514526
46,2285890245,-166.23913574218750,-86.94558715820312,-127.33726501464844,9.77436542510986,-0.58784812688828,0.56260341405869,0.22345159947872,-0.07498118281364,-1.18517649173737
47,2285906912,-165.94218444824219,-86.96540069580078,-127.61306762695312,9.75211524963379,-0.55669039487839,0.53353041410446,-0.25923252105713,0.30710905790329,-1.04655408859253
48,2285923579,-165.66621398925781,-86.98539733886719,-127.90478515625000,9.76721858978271,-0.54654127359390,0.51501822471619,-0.47774723172188,0.30714747309685,-1.11295497417450
49,2285940246,-165.36503601074219,-87.00991058349609,-128.20425415039062,9.77075386047363,-0.51553797721863,0.53700906038284,-0.30940780043602,0.57905197143555,-1.12090778350830
50,2285956913,-165.05859375000000,-87.03509521484375,-128.55065917968750,9.75201034545898,-0.50863188505173,0.53891420364380,-1.76659762859344,0.64983266592026,-1.05797100067139
51,2285973580,-164.74943542480469,-87.06041717529297,-128.90187072753906,9.74504089355469,-0.62841278314590,0.55927473306656,-1.12352669239044,0.67397898435593,-1.10566174983978
52,2285990247,-164.42860412597656,-87.08570861816406,-129.20443725585938,9.72526168823242,-0.65274876356125,0.58710217475891,-0.35807839035988,0.64036232233047,-1.11848104000092
53,2286006914,-164.09368896484375,-87.10842895507812,-129.52616882324219,9.75567340850830,-0.55650168657303,0.57255131006241,1.14445877075195,0.53048384189606,-1.13596165180206
54,2286023581,-163.81675720214844,-87.12956237792969,-129.80802917480469,9.77641677856445,-0.49245265126228,0.55340290069580,-1.28591763973236,0.39501187205315,-1.16747176647186
55,2286040248,-163.57916259765625,-87.15242767333984,-130.08882141113281,9.74068164825439,-0.61961263418198,0.54075604677200,-1.16935408115387,0.47272077202797,-1.32971525192261
56,2286056915,-163.31936645507812,-87.17388916015625,-130.35079956054688,9.70685100555420,-0.58476966619492,0.56246316432953,-0.34646940231323,0.41145518422127,-1.29657232761383
57,2286073582,-163.08399963378906,-87.19383239746094,-130.62542724609375,9.76548671722412,-0.57792872190475,0.58922505378723,-0.78130900859833,0.30014240741730,-1.32518184185028
58,2286090249,-162.84706115722656,-87.21350860595703,-130.87745666503906,9.75879096984863,-0.48025521636009,0.58977377414703,-0.91709464788437,0.28846302628517,-1.32059717178345
59,2286106916,-162.67214965820312,-87.23430633544922,-131.08789062500000,9.78032207489014,-0.55489259958267,0.55057573318481,-1.63407111167908,0.32083749771118,-1.49143397808075
60,2286123583,-162.56506347656250,-87.25598144531250,-131.24507141113281,9.75150394439697,-0.48294061422348,0.54601866006851,-2.30107045173645,0.31428703665733,-1.66934597492218
61,2286140250,-162.48367309570312,-87.27523803710938,-131.38821411132812,9.75285911560059,-0.55453830957413,0.57491207122803,-3.38905334472656,0.18633238971233,-1.65685355663300
62,2286156917,-162.53054809570312,-87.29209899902344,-131.40023803710938,9.69103431701660,-0.37521982192993,0.60848176479340,-3.67568469047546,-0.06447356194258,-1.95159149169922
63,2286173584,-162.68040466308594,-87.30834197998047,-131.34887695312500,9.81646442413330,-0.62257629632950,0.56476867198944,-5.96050548553467,-0.13985177874565,-2.11922717094421
64,2286190251,-162.77426147460938,-87.33083343505859,-131.32307434082031,9.82100677490234,-0.56376874446869,0.55579501390457,-4.22940683364868,0.23262742161751,-2.15131998062134
65,2286206918,-162.93975830078125,-87.35514068603516,-131.25538635253906,9.75346660614014,-0.53743290901184,0.56449455022812,-5.67375087738037,0.29685756564140,-2.30671787261963
66,2286223585,-163.13632202148438,-87.37505340576172,-131.16816711425781,9.75350379943848,-0.71864098310471,0.59751349687576,-6.03708028793335,0.05088603496552,-2.29756188392639
67,2286240252,-163.22996520996094,-87.39691925048828,-131.08857727050781,9.75758934020996,-0.77410614490509,0.62515819072723,-2.19644284248352,0.20315355062485,-2.22589755058289
68,2286256919,-163.30500793457031,-87.41927337646484,-131.05477905273438,9.78821277618408,-0.55422210693359,0.62282222509384,-1.51834654808044,0.20737965404987,-2.20276904106140
69,2286273586,-163.42486572265625,-87.43677520751953,-130.95759582519531,9.71660709381104,-0.71772056818008,0.52594703435898,-1.17905485630035,-0.07516046613455,-2.25649166107178
70,2286290253,-163.55996704101562,-87.44833374023438,-130.82003784179688,9.68993568420410,-0.62982082366943,0.50935661792755,1.21433019638062,-0.48071196675301,-2.28708600997925
71,2286306920,-163.76222229003906,-87.45655059814453,-130.60684204101562,9.71450233459473,-0.57431507110596,0.55360114574432,1.02926552295685,-0.69003170728683,-2.40092134475708
72,2286323587,-163.91366577148438,-87.46765899658203,-130.44767761230469,9.73177337646484,-0.72092896699905,0.55518800020218,0.87316900491714,-0.48364463448524,-2.30418252944946
73,2286340254,-163.99795532226562,-87.48176574707031,-130.31938171386719,9.74020385742188,-0.70557284355164,0.54152005910873,3.12542819976807,-0.31286555528641,-2.26747322082520
74,2286356921,-163.99191284179688,-87.49782562255859,-130.22222900390625,9.72761249542236,-0.70354062318802,0.53100866079330,4.97224521636963,-0.10563319921494,-2.15594291687012
75,2286373588,-163.84547424316406,-87.51194763183594,-130.24591064453125,9.69868469238281,-0.68382048606873,0.53015679121017,7.62524795532227,-0.17220060527325,-1.86876046657562
76,2286390255,-163.60948181152344,-87.52385711669922,-130.24543762207031,9.70046234130859,-0.51799613237381,0.53808844089508,11.24775028228760,-0.27230149507523,-1.76025903224945
77,2286406922,-163.40577697753906,-87.53446960449219,-130.29789733886719,9.79202842712402,0.08456126600504,0.53213346004486,9.06465530395508,-0.34153899550438,-1.72559833526611
78,2286423589,-163.34359741210938,-87.54600524902344,-130.34848022460938,9.79023551940918,-0.25505724549294,0.43296808004379,0.55673044919968,-0.26686510443687,-1.74137532711029
79,2286440256,-163.17703247070312,-87.57069396972656,-130.49104309082031,9.75312137603760,-0.51551610231400,0.39981675148010,1.96659421920776,0.50129169225693,-1.75405383110046
80,2286456923,-162.87361145019531,-87.60591888427734,-130.75735473632812,9.80738830566406,-0.40749853849411,0.50274944305420,2.74762821197510,1.22109830379486,-1.64776122570038
81,2286473590,-162.52963256835938,-87.65164947509766,-131.11891174316406,9.77465438842773,-0.48662188649178,0.48188471794128,-0.77892702817917,1.86505270004272,-1.60852241516113
82,2286490257,-162.07334899902344,-87.70322418212891,-131.56059265136719,9.71937942504883,-0.64712518453598,0.49436339735985,-0.17435203492641,2.29018497467041,-1.51571476459503
83,2286506924,-161.50248718261719,-87.75842285156250,-132.10130310058594,9.68382740020752,-0.44873756170273,0.52414375543594,1.80896091461182,2.56426668167114,-1.45183658599854
84,2286523591,-160.99505615234375,-87.81555938720703,-132.66099548339844,9.73951911926270,-0.24509222805500,0.56818199157715,-2.02433180809021,2.63684034347534,-1.53856134414673
85,2286540258,-160.49208068847656,-87.87661743164062,-133.21318054199219,9.77720928192139,-0.47707495093346,0.57098060846329,-4.24413347244263,2.88616752624512,-1.61077654361725
86,2286556925,-159.90896606445312,-87.93996429443359,-133.84742736816406,9.79603767395020,-0.59709703922272,0.57495027780533,-2.79957675933838,3.02138900756836,-1.60031342506409
87,2286573592,-159.27995300292969,-88.00003051757812,-134.46606445312500,9.78404617309570,-0.48816382884979,0.63901436328888,-2.30850481987000,2.89315962791443,-1.54922914505005
88,2286590259,-158.65885925292969,-88.05429077148438,-135.15061950683594,9.72799873352051,-0.53873103857040,0.66931319236755,-3.27286124229431,2.51699852943420,-1.46667945384979
89,2286606926,-158.00068664550781,-88.10143280029297,-135.82096862792969,9.73438549041748,-0.59681391716003,0.67625612020493,-1.40928757190704,2.17478084564209,-1.39158916473389
90,2286623593,-157.34812927246094,-88.14333343505859,-136.49055480957031,9.69655799865723,-0.36249715089798,0.67986035346985,-0.07311145216227,1.81137514114380,-1.36983132362366
91,2286640260,-156.83215332031250,-88.17608642578125,-137.05163574218750,9.70060729980469,-0.38100376725197,0.67544913291931,-2.30025076866150,1.27563405036926,-1.40734100341797
92,2286656927,-156.23271179199219,-88.20703887939453,-137.67401123046875,9.77295303344727,-0.60929125547409,0.63392579555511,-1.11312794685364,1.19264888763428,-1.27489769458771
93,2286673594,-155.62426757812500,-88.24075317382812,-138.26054382324219,9.81280517578125,-0.55358946323395,0.62247890233994,1.20920753479004,1.33243036270142,-1.44020223617554
94,2286690261,-154.93383789062500,-88.27558135986328,-138.94415283203125,9.79999256134033,-0.48343825340271,0.64353960752487,-0.71488887071609,1.46320855617523,-1.31110119819641
95,2286706928,-154.22831726074219,-88.31043243408203,-139.66914367675781,9.72024345397949,-0.57153236865997,0.63442957401276,-1.83514356613159,1.48585689067841,-1.30593395233154
96,2286723595,-153.58270263671875,-88.34259033203125,-140.32751464843750,9.70019435882568,-0.62278300523758,0.66000390052795,0.00662728585303,1.30019652843475,-1.44666922092438
97,2286740262,-152.97085571289062,-88.37478637695312,-140.91653442382812,9.73746490478516,-0.44888332486153,0.69022667407990,1.03809559345245,1.21026420593262,-1.54929304122925
98,2286756929,-152.42466735839844,-88.40112304687500,-141.46604919433594,9.75119876861572,-0.44856613874435,0.67229270935059,-0.23443941771984,0.91324627399445,-1.51935172080994
99,2286773596,-151.85511779785156,-88.42604827880859,-142.01121520996094,9.77720355987549,-0.51478731632233,0.67598932981491,0.10716352611780,0.79800200462341,-1.45652365684509
100,2286790263,-151.27430725097656,-88.44808197021484,-142.59318542480469,9.74147510528564,-0.54440253973007,0.64620918035507,0.22546860575676,0.66818410158157,-1.39575767517090
101,2286806930,-150.68632507324219,-88.47068786621094,-143.15609741210938,9.76944160461426,-0.56657642126083,0.66622900962830,0.51516103744507,0.73293304443359,-1.45377051830292
102,2286823597,-150.07310485839844,-88.49520111083984,-143.76562500000000,9.77461624145508,-0.49380499124527,0.64971572160721,0.38088649511337,0.82729023694992,-1.48545336723328
103,2286840264,-149.60978698730469,-88.51931762695312,-144.24124145507812,9.73792648315430,-0.49772027134895,0.64504516124725,-0.15145426988602,0.68266803026199,-1.69373548030853
104,2286856931,-149.12066650390625,-88.54142761230469,-144.71105957031250,9.75676536560059,-0.51798063516617,0.66025400161743,0.52425998449326,0.56089890003204,-1.61867165565491
105,2286873598,-148.57801818847656,-88.56237030029297,-145.23353576660156,9.73912811279297,-0.47970122098923,0.67262834310532,0.77792811393738,0.58776658773422,-1.56629335880280
106,2286890265,-148.04019165039062,-88.58155822753906,-145.75746154785156,9.77352809906006,-0.48902922868729,0.64044660329819,0.20825046300888,0.49115553498268,-1.52028024196625
107,2286906932,-147.52091979980469,-88.60086822509766,-146.23735046386719,9.75404548645020,-0.52021414041519,0.64523649215698,0.37611609697342,0.50630551576614,-1.59095847606659
108,2286923599,-146.91261291503906,-88.61973571777344,-146.83923339843750,9.74837875366211,-0.44054031372070,0.66960740089417,0.18177974224091,0.49504870176315,-1.43838369846344
109,2286940266,-146.37266540527344,-88.63814544677734,-147.39825439453125,9.73242568969727,-0.46956926584244,0.67682784795761,0.00343850487843,0.45213460922241,-1.54972207546234
110,2286956933,-145.90626525878906,-88.65535736083984,-147.88693237304688,9.77782154083252,-0.49916708469391,0.67853862047195,-0.72692686319351,0.33733847737312,-1.60104990005493
111,2286973600,-145.39625549316406,-88.67322540283203,-148.36805725097656,9.77081298828125,-0.55302011966705,0.69639039039612,0.06984583288431,0.39770120382309,-1.60730576515198
112,2286990267,-144.90261840820312,-88.69134521484375,-148.81414794921875,9.77565383911133,-0.53806066513062,0.67767375707626,0.74742335081100,0.37062218785286,-1.65633475780487
113,2287006934,-144.42941284179688,-88.71017456054688,-149.26667785644531,9.76722908020020,-0.52846944332123,0.64869517087936,0.83450013399124,0.38226956129074,-1.71957266330719
114,2287023601,-143.94319152832031,-88.72897338867188,-149.72200012207031,9.77146530151367,-0.51463145017624,0.65353333950043,1.15494072437286,0.35396751761436,-1.70378863811493
115,2287040268,-143.50851440429688,-88.74492645263672,-150.15098571777344,9.74931907653809,-0.45642244815826,0.66312360763550,0.89129632711411,0.24364079535007,-1.72085952758789
116,2287056935,-143.00463867187500,-88.75998687744141,-150.66026306152344,9.74422645568848,-0.40081185102463,0.66124892234802,0.36494895815849,0.24882099032402,-1.60514795780182
117,2287073602,-142.44303894042969,-88.77539062500000,-151.20614624023438,9.76407527923584,-0.47416287660599,0.66523343324661,0.49301886558533,0.28938505053520,-1.55726492404938
118,2287090269,-141.78480529785156,-88.79342651367188,-151.83662414550781,9.76393413543701,-0.52350050210953,0.64581155776978,0.85605955123901,0.46447980403900,-1.56078648567200
119,2287106936,-141.03588867187500,-88.81337738037109,-152.57212829589844,9.78568649291992,-0.51451885700226,0.63575953245163,0.84550720453262,0.64843028783798,-1.58014976978302
120,2287123603,-140.28109741210938,-88.83517456054688,-153.33445739746094,9.76884651184082,-0.51276481151581,0.65369313955307,-0.08972128480673,0.72537088394165,-1.64288830757141
121,2287140270,-139.47050476074219,-88.85636138916016,-154.14122009277344,9.75210666656494,-0.52224498987198,0.69228047132492,0.21498019993305,0.73397040367126,-1.60510325431824
122,2287156937,-138.63838195800781,-88.87865447998047,-154.96228027343750,9.73715686798096,-0.47257348895073,0.68986821174622,0.79893046617508,0.79248893260956,-1.67767012119293
123,2287173604,-137.81671142578125,-88.89855194091797,-155.77819824218750,9.75395202636719,-0.47553396224976,0.70927602052689,0.61804080009460,0.65505111217499,-1.61066710948944
124,2287190271,-137.04705810546875,-88.91754913330078,-156.53640747070312,9.77350616455078,-0.43640702962875,0.72318917512894,0.40620467066765,0.59106433391571,-1.67047953605652
125,2287206938,-136.14440917968750,-88.93725585937500,-157.42733764648438,9.77218723297119,-0.51637464761734,0.69339752197266,0.24875693023205,0.68526136875153,-1.57419490814209
126,2287223605,-135.18795776367188,-88.95395660400391,-158.36111450195312,9.75993347167969,-0.48770239949226,0.66716998815536,0.86712431907654,0.62472569942474,-1.48620247840881
127,2287240272,-134.22698974609375,-88.97016906738281,-159.29986572265625,9.77019214630127,-0.40710142254829,0.66884213685989,0.71853864192963,0.56986981630325,-1.45711278915405
128,2287256939,-133.38903808593750,-88.98490142822266,-160.12617492675781,9.76463699340820,-0.40069609880447,0.67567306756973,-0.91288137435913,0.47982832789421,-1.55908989906311
129,2287273606,-132.52720642089844,-89.00102996826172,-160.99504089355469,9.76750850677490,-0.51639336347580,0.65692096948624,-0.14052407443523,0.51056993007660,-1.60540401935577
130,2287290273,-131.59008789062500,-89.01564025878906,-161.94897460937500,9.76553535461426,-0.49546775221825,0.67785310745239,0.53209739923477,0.48307469487190,-1.50475883483887
131,2287306940,-130.66311645507812,-89.02823638916016,-162.87614440917969,9.75119209289551,-0.48174157738686,0.69847410917282,-0.19998396933079,0.41280624270439,-1.45515990257263
132,2287323607,-129.75381469726562,-89.04141235351562,-163.78218078613281,9.75746154785156,-0.52333521842957,0.69492268562317,0.12290894985199,0.41276788711548,-1.52232921123505
133,2287340274,-128.92543029785156,-89.05208587646484,-164.59927368164062,9.74729919433594,-0.45256397128105,0.68749582767487,0.54907232522964,0.28287944197655,-1.54351735115051
134,2287356941,-128.11715698242188,-89.06455993652344,-165.40008544921875,9.74465370178223,-0.41674107313156,0.66521435976028,-0.38621389865875,0.27321708202362,-1.56599903106689
135,2287373608,-127.35628509521484,-89.07508087158203,-166.21122741699219,9.77220249176025,-0.49350932240486,0.65955340862274,-0.20337764918804,0.18865674734116,-1.56405234336853
136,2287390275,-126.39072418212891,-89.08592987060547,-167.19938659667969,9.77189636230469,-0.46738931536674,0.69044148921967,0.19701926410198,0.35794383287430,-1.46751797199249
137,2287406942,-125.52104949951172,-89.09387969970703,-168.06845092773438,9.75524806976318,-0.48090571165085,0.67308062314987,0.19215287268162,0.19151253998280,-1.43244147300720
138,2287423609,-124.60459136962891,-89.10343933105469,-168.96636962890625,9.76831436157227,-0.46864116191864,0.70267194509506,0.17137457430363,0.27698856592178,-1.49020445346832
139,2287440276,-123.58650970458984,-89.11353302001953,-169.96926879882812,9.77455902099609,-0.44557887315750,0.69027894735336,-0.49558016657829,0.38695028424263,-1.47410058975220
140,2287456943,-122.48918151855469,-89.12329864501953,-171.05302429199219,9.78284645080566,-0.50069928169250,0.70079284906387,-0.62793374061584,0.45064899325371,-1.44935870170593
141,2287473610,-121.23071289062500,-89.13543701171875,-172.32351684570312,9.73488044738770,-0.43611043691635,0.70151466131210,-0.12412553280592,0.62213248014450,-1.47542595863342
142,2287490277,-119.98940277099609,-89.14453887939453,-173.57756042480469,9.76316833496094,-0.44346326589584,0.68557852506638,-0.57776492834091,0.54054325819016,-1.39972770214081
143,2287506944,-118.72008514404297,-89.15373992919922,-174.86947631835938,9.77174758911133,-0.48420119285583,0.68150579929352,-0.73571205139160,0.56461280584335,-1.41981446743011
144,2287523611,-117.36954498291016,-89.16210174560547,-176.21911621093750,9.76503658294678,-0.48222360014915,0.67599707841873,-0.30940142273903,0.58971321582794,-1.35438668727875
145,2287540278,-115.95804595947266,-89.16913604736328,-177.62525939941406,9.75507545471191,-0.47169771790504,0.69085133075714,-0.34905630350113,0.62103116512299,-1.31784379482269
146,2287556945,-114.59896087646484,-89.17338562011719,-178.99998474121094,9.75382518768311,-0.44932967424393,0.69888365268707,-0.50243151187897,0.52769207954407,-1.26403796672821
147,2287573612,-113.43744659423828,-89.17528533935547,179.87260437011719,9.73989677429199,-0.46802958846092,0.70504724979401,-0.25050500035286,0.29068490862846,-1.22455596923828
148,2287590279,-112.26566314697266,-89.17575836181641,178.70872497558594,9.74003601074219,-0.48878079652786,0.71478909254074,-0.01435591746122,0.26317688822746,-1.14272332191467
149,2287606946,-111.11529541015625,-89.17409515380859,177.58172607421875,9.76840877532959,-0.47274246811867,0.72364830970764,0.79823255538940,0.22892633080482,-1.13436734676361
150,2287623613,-110.00315856933594,-89.17196655273438,176.46626281738281,9.76387977600098,-0.37941670417786,0.68516236543655,-0.01423425786197,0.19565540552139,-1.09562802314758
151,2287640280,-108.95753479003906,-89.16960906982422,175.40721130371094,9.80294227600098,-0.51537311077118,0.67899179458618,-0.59672468900681,0.14552496373653,-1.09550642967224
152,2287656947,-107.89997863769531,-89.16772460937500,174.37351989746094,9.77235794067383,-0.52093625068665,0.68217515945435,0.12686610221863,0.18818290531635,-1.19456350803375
153,2287673614,-106.94951629638672,-89.16514587402344,173.43249511718750,9.77084636688232,-0.44980844855309,0.73963844776154,0.02924329787493,0.08367028832436,-1.17927265167236
154,2287690281,-105.85856628417969,-89.16397094726562,172.29754638671875,9.76811981201172,-0.49305626749992,0.71713852882385,-0.47921359539032,0.23811486363411,-1.16983437538147
155,2287706948,-104.65368652343750,-89.16163635253906,171.10496520996094,9.75733280181885,-0.47059351205826,0.66276603937149,0.56196182966232,0.34452283382416,-1.16795194149017
156,2287723615,-103.67321014404297,-89.16024017333984,170.13122558593750,9.74209117889404,-0.46889543533325,0.67436683177948,-0.11665944755077,0.16858279705048,-1.28892719745636
157,2287740282,-102.56059265136719,-89.15930175781250,169.05320739746094,9.76174831390381,-0.48149523139000,0.70497590303421,-0.08026380091906,0.30759570002556,-1.30242490768433
158,2287756949,-101.42308807373047,-89.15837097167969,167.92892456054688,9.77037811279297,-0.46335184574127,0.70950663089752,-0.61753499507904,0.33594900369644,-1.25134706497192
159,2287773616,-100.12126159667969,-89.15721130371094,166.62475585937500,9.75394248962402,-0.50695192813873,0.67862087488174,-0.05218587815762,0.50645911693573,-1.30255949497223
160,2287790283,-99.02407836914062,-89.15651702880859,165.53819274902344,9.73697853088379,-0.48601278662682,0.69906884431839,0.34063607454300,0.30206337571144,-1.30079865455627
161,2287806950,-97.94206237792969,-89.15512084960938,164.45701599121094,9.74927330017090,-0.45043697953224,0.73658555746078,0.29176706075668,0.30468866229057,-1.36244833469391
162,2287823617,-96.78964996337891,-89.15419769287109,163.35629272460938,9.76226902008057,-0.48796260356903,0.70309734344482,0.32417994737625,0.38092488050461,-1.38383495807648
163,2287840284,-95.67620849609375,-89.15327453613281,162.24093627929688,9.76219844818115,-0.42782449722290,0.69623637199402,0.39078578352928,0.34459325671196,-1.36436939239502
164,2287856951,-94.71070861816406,-89.14936065673828,161.27844238281250,9.75135040283203,-0.47122988104820,0.69001895189285,-0.04156300798059,0.20719395577908,-1.28961873054504
165,2287873618,-93.79090118408203,-89.14636993408203,160.43797302246094,9.74625968933105,-0.49735558032990,0.69416999816895,0.73253607749939,0.16265346109867,-1.34964203834534
166,2287890285,-92.72284698486328,-89.14089202880859,159.38156127929688,9.76849269866943,-0.40136319398880,0.70661979913712,0.81128227710724,0.31148886680603,-1.25274920463562
167,2287906952,-91.60943603515625,-89.13611602783203,158.30329895019531,9.77466106414795,-0.49000540375710,0.70721864700317,0.34301170706749,0.37524527311325,-1.22111117839813
168,2287923619,-90.29234313964844,-89.12957000732422,157.02807617187500,9.76807403564453,-0.48543605208397,0.70222049951553,0.94462829828262,0.58350217342377,-1.17098701000214
169,2287940286,-88.90750885009766,-89.12196350097656,155.64805603027344,9.76921558380127,-0.43553620576859,0.68945282697678,0.23311398923397,0.68416637182236,-1.16501283645630
170,2287956953,-87.52581024169922,-89.11486053466797,154.22216796875000,9.76564502716064,-0.50494265556335,0.67514175176620,-0.24225771427155,0.70995199680328,-1.23888635635376
171,2287973620,-86.20060729980469,-89.10913085937500,152.89851379394531,9.73913955688477,-0.50835508108139,0.66940248012543,0.17202128469944,0.66178727149963,-1.29935789108276
172,2287990287,-84.67985534667969,-89.10082244873047,151.39088439941406,9.75878715515137,-0.40829685330391,0.72293585538864,0.16964571177959,0.88990038633347,-1.22186017036438
173,2288006954,-83.16436004638672,-89.09216308593750,149.86480712890625,9.76690292358398,-0.48600757122040,0.68239325284958,-0.14771483838558,0.91875308752060,-1.21440684795380
174,2288023621,-81.61677551269531,-89.08229827880859,148.28991699218750,9.73657035827637,-0.48908808827400,0.69958364963531,0.71869242191315,0.96777594089508,-1.22034919261932
175,2288040288,-80.16876220703125,-89.07022094726562,146.82756042480469,9.76681709289551,-0.44922718405724,0.68808305263519,0.12258238345385,0.91708821058273,-1.15645813941956
176,2288056955,-78.70326995849609,-89.05768585205078,145.35551452636719,9.78504276275635,-0.47071948647499,0.69026780128479,0.06958330422640,0.97494113445282,-1.16002488136292
177,2288073622,-77.22428894042969,-89.04427337646484,143.86770629882812,9.75550746917725,-0.48237130045891,0.71990549564362,-0.05053385347128,1.02867639064789,-1.17208838462830
178,2288090289,-75.73805999755859,-89.03005218505859,142.36740112304688,9.74257183074951,-0.47377938032150,0.75232547521591,0.04940049350262,1.08474266529083,-1.14665496349335
179,2288106956,-74.37015533447266,-89.01483917236328,140.99647521972656,9.74208164215088,-0.47502380609512,0.71652960777283,0.30274209380150,0.99970203638077,-1.11064982414246
180,2288123623,-73.02764892578125,-88.99868774414062,139.66088867187500,9.77101516723633,-0.41388234496117,0.70893132686615,-0.04941330105066,1.02640330791473,-1.09922659397125
181,2288140290,-71.74971771240234,-88.98316955566406,138.39292907714844,9.74869728088379,-0.47875565290451,0.73539859056473,-0.41511783003807,0.98295783996582,-1.16332876682281
182,2288156957,-70.46586608886719,-88.96504974365234,137.14198303222656,9.73949909210205,-0.47896891832352,0.72711968421936,-0.06362195312977,1.05396902561188,-1.08962821960449
183,2288173624,-69.25646972656250,-88.94724273681641,135.91952514648438,9.77784156799316,-0.46317905187607,0.72655200958252,-0.45848652720451,1.02767109870911,-1.06455993652344
184,2288190291,-67.96181488037109,-88.92917633056641,134.58973693847656,9.75983905792236,-0.47437664866447,0.75050121545792,-0.49452367424965,1.14493906497955,-1.17333710193634
185,2288206958,-66.83332061767578,-88.91033935546875,133.42582702636719,9.77055072784424,-0.50695359706879,0.75969761610031,-0.36314323544502,1.01074111461639,-1.09044158458710
186,2288223625,-65.83692169189453,-88.89217376708984,132.43241882324219,9.77267074584961,-0.48468130826950,0.76973795890808,0.13929466903210,0.86386519670486,-1.10422110557556
187,2288240292,-65.04116058349609,-88.87673950195312,131.57711791992188,9.76197147369385,-0.48769655823708,0.78646320104599,-0.08732009679079,0.60036170482635,-1.17575740814209
188,2288256959,-64.38641357421875,-88.85996246337891,130.90779113769531,9.79095649719238,-0.53314626216888,0.78394538164139,0.39061924815178,0.49176380038261,-1.02779281139374
189,2288273626,-63.65620803833008,-88.84580230712891,130.20089721679688,9.76970958709717,-0.48551827669144,0.75390529632568,0.45878744125366,0.53977483510971,-1.20382893085480
190,2288290293,-63.01533889770508,-88.83098602294922,129.56982421875000,9.76572513580322,-0.50757539272308,0.76771503686905,0.57008749246597,0.43608185648918,-1.19613230228424
191,2288306960,-62.49440002441406,-88.81998443603516,129.06634521484375,9.73710632324219,-0.49388360977173,0.77570813894272,0.53875672817230,0.26015460491180,-1.23606896400452
192,2288323627,-62.09386444091797,-88.81040954589844,128.63882446289062,9.75143051147461,-0.49004578590393,0.80943983793259,0.59970861673355,0.06595271080732,-1.29299318790436
193,2288340294,-61.64060592651367,-88.79975891113281,128.20062255859375,9.78015613555908,-0.47007077932358,0.79680472612381,1.15783500671387,0.14640219509602,-1.28418886661530
194,2288356961,-61.24283599853516,-88.78953552246094,127.84133148193359,9.79225540161133,-0.49406933784485,0.74819219112396,0.50973749160767,0.10860424488783,-1.25363910198212
195,2288373628,-60.78847122192383,-88.77827453613281,127.39914703369141,9.77461910247803,-0.47332626581192,0.73414170742035,0.54237455129623,0.18169648945332,-1.29739212989807
196,2288390295,-60.32938003540039,-88.76902008056641,127.03061676025391,9.75403118133545,-0.48948234319687,0.74487513303757,0.40361773967743,0.16294799745083,-1.37339782714844
197,2288406962,-59.92163467407227,-88.75919342041016,126.58317565917969,9.77013874053955,-0.48084720969200,0.75547075271606,0.36619755625725,0.14093385636806,-1.28709566593170
198,2288423629,-59.52588653564453,-88.74945831298828,126.20330810546875,9.77017879486084,-0.49771824479103,0.77449530363083,0.68188691139221,0.11114631593227,-1.31662714481354
199,2288440296,-59.13838195800781,-88.74197387695312,125.80701446533203,9.73876285552979,-0.51701885461807,0.79529732465744,0.52767288684845,0.04232499375939,-1.43224310874939
200,2288456963,-58.78076553344727,-88.73545837402344,125.46887207031250,9.76618766784668,-0.47424918413162,0.75741606950760,1.19393599033356,-0.03865596652031,-1.47309517860413
201,2288473630,-58.59059143066406,-88.73236083984375,125.30299377441406,9.77562427520752,-0.47234219312668,0.77844601869583,0.40528896450996,-0.30967038869858,-1.51326251029968
202,2288490297,-58.37990951538086,-88.72912597656250,125.10271453857422,9.75847053527832,-0.49283137917519,0.76915627717972,1.22567653656006,-0.27575913071632,-1.48084938526154
203,2288506964,-58.21973419189453,-88.72650909423828,124.95697021484375,9.76257705688477,-0.48441013693810,0.75630956888199,1.00639975070953,-0.37877976894379,-1.52960956096649
204,2288523631,-58.12060165405273,-88.72697448730469,124.82852172851562,9.74548530578613,-0.44776651263237,0.77355134487152,0.95835036039352,-0.51287508010864,-1.58725106716156
205,2288540298,-57.99724578857422,-88.72711944580078,124.71260070800781,9.76435279846191,-0.46048089861870,0.75016200542450,0.56070041656494,-0.46962812542915,-1.60544896125793
206,2288556965,-57.80310440063477,-88.72420501708984,124.52787017822266,9.77909088134766,-0.48621758818626,0.71507149934769,0.86180335283279,-0.30989450216293,-1.52694606781006
207,2288573632,-57.64052581787109,-88.71961975097656,124.38586425781250,9.75364112854004,-0.45971387624741,0.70937144756317,1.23400700092316,-0.29821506142616,-1.41427564620972
208,2288590299,-57.40143585205078,-88.71215057373047,124.15847015380859,9.76379776000977,-0.42823249101639,0.73106145858765,0.66130709648132,-0.10636313259602,-1.34487795829773
209,2288606966,-57.01530075073242,-88.70275878906250,123.77262878417969,9.77016162872314,-0.48583707213402,0.73845142126083,0.86115014553070,0.13953797519207,-1.34914255142212
210,2288623633,-56.54067611694336,-88.69045257568359,123.30607604980469,9.77375507354736,-0.46681576967239,0.73945122957230,1.17177462577820,0.33952838182449,-1.27986669540405
211,2288640300,-55.93375015258789,-88.67765808105469,122.72410583496094,9.75755882263184,-0.45783242583275,0.71669262647629,0.25816321372986,0.53531825542450,-1.39327323436737
212,2288656967,-55.36356353759766,-88.66338348388672,122.15052795410156,9.77020835876465,-0.45474258065224,0.74186372756958,0.20677770674229,0.55284363031387,-1.30600416660309
213,2288673634,-54.80565643310547,-88.64839172363281,121.56657409667969,9.77000808715820,-0.39738214015961,0.75537919998169,-0.20120055973530,0.58316922187805,-1.27936720848083
214,2288690301,-54.24821090698242,-88.63112640380859,120.99046325683594,9.74261093139648,-0.50834494829178,0.73592442274094,0.12413835525513,0.68316113948822,-1.15678489208221
215,2288706968,-53.76391601562500,-88.61464691162109,120.52005767822266,9.75597000122070,-0.50450462102890,0.77497571706772,0.35533776879311,0.54448753595352,-1.18919110298157
216,2288723635,-53.22276687622070,-88.60058593750000,119.96939086914062,9.76672458648682,-0.46887227892876,0.76802396774292,-0.12860776484013,0.58482760190964,-1.32402932643890
217,2288740302,-52.75365829467773,-88.58556365966797,119.48896789550781,9.76499080657959,-0.49248114228249,0.75190097093582,0.00607661297545,0.51834344863892,-1.25237143039703
218,2288756969,-52.31528472900391,-88.57015228271484,119.06556701660156,9.74915981292725,-0.48548516631126,0.72418940067291,0.01401655096561,0.49233373999596,-1.23828434944153
219,2288773636,-51.84623336791992,-88.55571746826172,118.63858032226562,9.74314403533936,-0.48105275630951,0.75614523887634,0.27550938725471,0.52372205257416,-1.28577017784119
220,2288790303,-51.42858505249023,-88.54169464111328,118.19896697998047,9.73735904693604,-0.43914622068405,0.75586962699890,0.72484582662582,0.43630594015121,-1.27049219608307
221,2288806970,-51.11680221557617,-88.52767181396484,117.88036346435547,9.76546382904053,-0.47203868627548,0.78080648183823,0.60289728641510,0.31416535377502,-1.17874109745026
222,2288823637,-50.87971878051758,-88.51364898681641,117.66443634033203,9.77036857604980,-0.49489116668701,0.77643465995789,1.17311286926270,0.21235491335392,-1.10586035251617
223,2288840304,-50.56161117553711,-88.49936676025391,117.36974334716797,9.77122974395752,-0.46816000342369,0.78538089990616,1.53814482688904,0.34054639935493,-1.15120744705200
224,2288856971,-50.27210998535156,-88.48354339599609,117.05064392089844,9.78434658050537,-0.44122755527496,0.77040535211563,0.20834650099277,0.37840202450752,-1.10578346252441
225,2288873638,-49.96943283081055,-88.46788024902344,116.73016357421875,9.78112888336182,-0.52281939983368,0.76308608055115,0.49861523509026,0.40245234966278,-1.11410772800446
226,2288890305,-49.67343521118164,-88.45478057861328,116.44551849365234,9.73783302307129,-0.47899350523949,0.76524281501770,0.69210004806519,0.30470788478851,-1.22061169147491
227,2288906972,-49.39090347290039,-88.44053649902344,116.16381835937500,9.69844913482666,-0.39797022938728,0.75185883045197,0.05899245291948,0.34477898478508,-1.18104016780853
228,2288923639,-49.19991302490234,-88.42716979980469,115.96187591552734,9.77259254455566,-0.41966369748116,0.72515910863876,-0.66223555803299,0.21432708203793,-1.14139795303345
229,2288940306,-49.04642105102539,-88.41489410400391,115.80979156494141,9.79623317718506,-0.52305740118027,0.78752523660660,0.07495556771755,0.11361792683601,-1.13610887527466
230,2288956973,-48.86178970336914,-88.40112304687500,115.63843536376953,9.70048809051514,-0.44704467058182,0.78702396154404,0.80160069465637,0.22366288304329,-1.06546902656555
231,2288973640,-48.75075531005859,-88.38905334472656,115.48518371582031,9.76036357879639,-0.38512504100800,0.78154891729355,-1.77492821216583,0.10286059975624,-1.13341951370239
232,2288990307,-48.56337356567383,-88.37647247314453,115.26631164550781,9.81383514404297,-0.60587370395660,0.71835649013519,-0.86198896169662,0.20199456810951,-1.19011330604553
233,2289006974,-48.38036727905273,-88.36973571777344,115.07179260253906,9.75272560119629,-0.53323400020599,0.75067728757858,-0.04209446534514,-0.04237620905042,-1.42708837985992
234,2289023641,-48.31948471069336,-88.37105560302734,114.99375152587891,9.67349243164062,-0.49039518833160,0.83031576871872,-1.02924621105194,-0.47671636939049,-1.63994264602661
235,2289040308,-48.34994506835938,-88.37538909912109,115.01383209228516,9.72708415985107,-0.54785662889481,0.78719091415405,-0.63714152574539,-0.72582548856735,-1.66433882713318
236,2289056975,-48.46187591552734,-88.38687133789062,115.15714263916016,9.69639682769775,-0.62520676851273,0.74227142333984,1.87038648128510,-1.14742326736450,-1.81658065319061
237,2289073642,-48.73546218872070,-88.40517425537109,115.47020721435547,9.73067283630371,-0.41221767663956,0.80159187316895,2.33027553558350,-1.65269792079926,-1.95620822906494
238,2289090309,-49.15665054321289,-88.42579650878906,115.89062500000000,9.79606151580811,-0.43254208564758,0.78681129217148,-0.07715185731649,-1.83977961540222,-1.90920269489288
239,2289106976,-49.47481918334961,-88.44329833984375,116.20536804199219,9.84741210937500,-0.55720210075378,0.72737741470337,-0.24077217280865,-1.61459898948669,-1.94944655895233
240,2289123643,-49.35103225708008,-88.44618988037109,116.11804199218750,9.86902046203613,-0.46588134765625,0.63399255275726,2.19035339355469,-0.50879633426666,-1.70670235157013
241,2289140310,-49.01142501831055,-88.43903350830078,115.77548980712891,9.83171844482422,-0.35700258612633,0.63005667924881,-0.16467684507370,0.18559601902962,-1.55944192409515
242,2289156977,-48.50787734985352,-88.42356109619141,115.24439239501953,9.77678394317627,-0.39614814519882,0.67387717962265,-1.61785817146301,0.77139055728912,-1.38845813274384
243,2289173644,-47.89342498779297,-88.40382385253906,114.61210632324219,9.74223232269287,-0.54436641931534,0.70016795396805,-1.04175162315369,1.04229593276978,-1.37697064876556
244,2289190311,-47.20436096191406,-88.38383483886719,113.94523620605469,9.74765491485596,-0.46215179562569,0.71061193943024,1.36565637588501,1.11565077304840,-1.42372679710388
245,2289206978,-46.66977310180664,-88.36865234375000,113.38623809814453,9.75094223022461,-0.37959071993828,0.73335635662079,-1.42434775829315,0.83758014440536,-1.48017084598541
246,2289223645,-46.17586135864258,-88.35241699218750,112.86483764648438,9.75899124145508,-0.54131519794464,0.74923384189606,-1.62903177738190,0.82135450839996,-1.43085360527039
247,2289240312,-45.70372772216797,-88.33798980712891,112.39180755615234,9.74459934234619,-0.51292222738266,0.78566163778305,-0.02707902528346,0.67823702096939,-1.47919082641602
248,2289256979,-45.36579513549805,-88.32859802246094,112.05913543701172,9.76803398132324,-0.39659199118614,0.80936026573181,0.32998123764992,0.31664985418320,-1.50655829906464
249,2289273646,-45.10395431518555,-88.32415771484375,111.76319885253906,9.75674152374268,-0.43338084220886,0.77909851074219,-2.03921270370483,0.04843361675739,-1.69171249866486
250,2289290313,-44.80199813842773,-88.31925964355469,111.44171905517578,9.76723861694336,-0.50651198625565,0.76703357696533,-1.16480803489685,0.11008337885141,-1.69942176342010
251,2289306980,-44.54560852050781,-88.31228637695312,111.17066955566406,9.79164981842041,-0.52263808250427,0.83995032310486,-0.87095350027084,0.13422337174416,-1.55522251129150
252,2289323647,-44.22153854370117,-88.30558013916016,110.84365081787109,9.79647159576416,-0.45277345180511,0.78305506706238,-0.14886741340160,0.22882388532162,-1.60980319976807
253,2289340314,-43.86057281494141,-88.29705047607422,110.48741149902344,9.76808166503906,-0.54071944952011,0.71868973970413,0.29431554675102,0.30295982956886,-1.62207150459290
254,2289356981,-43.43065643310547,-88.28753662109375,110.06540679931641,9.75827217102051,-0.41726419329643,0.75801920890808,0.49762922525406,0.45959430932999,-1.65147483348846
255,2289373648,-43.02331924438477,-88.27751159667969,109.64954376220703,9.77819824218750,-0.48323601484299,0.78211259841919,-0.49627807736397,0.45810878276825,-1.64964365959167
256,2289390315,-42.63026428222656,-88.26833343505859,109.26163482666016,9.77640533447266,-0.48766109347343,0.83199018239975,0.31402453780174,0.38136032223701,-1.66184806823730
257,2289406982,-42.33773422241211,-88.26381683349609,108.98390197753906,9.76355552673340,-0.46387583017349,0.77420467138290,0.91464215517044,0.08480363339186,-1.66178381443024
258,2289423649,-42.12650299072266,-88.26280975341797,108.77902984619141,9.72162723541260,-0.47760757803917,0.78777509927750,0.38379353284836,-0.17935934662819,-1.72335696220398
259,2289440316,-42.04600143432617,-88.26381683349609,108.72246551513672,9.74742984771729,-0.53584837913513,0.78337115049362,1.42963051795959,-0.45613652467728,-1.60318839550018
260,2289456983,-41.98061370849609,-88.26698303222656,108.69960021972656,9.77106857299805,-0.41600984334946,0.80778342485428,2.55269622802734,-0.58535271883011,-1.63448739051819
261,2289473650,-42.01961898803711,-88.27353668212891,108.76812744140625,9.76853942871094,-0.38060721755028,0.74101787805557,1.76300525665283,-0.84503978490829,-1.64137697219849
262,2289490317,-42.07584762573242,-88.27841949462891,108.86032104492188,9.77294921875000,-0.39702349901199,0.73823940753937,2.14925146102905,-0.79534476995468,-1.53778004646301
263,2289506984,-42.15987777709961,-88.28034973144531,108.96280670166016,9.78780555725098,-0.42042225599289,0.74838823080063,1.08338487148285,-0.68001711368561,-1.40886485576630
264,2289523651,-42.19953155517578,-88.28149414062500,109.00885009765625,9.78193855285645,-0.46848481893539,0.72369742393494,0.38159719109535,-0.56778240203857,-1.45029354095459
265,2289540318,-42.13063430786133,-88.27581024169922,108.98091125488281,9.75485610961914,-0.43636313080788,0.72121566534042,2.43917393684387,-0.18183733522892,-1.28583419322968
266,2289556985,-42.09951400756836,-88.26471710205078,108.96607971191406,9.77842521667480,-0.28366854786873,0.71840113401413,0.96989542245865,0.03635082393885,-1.05757403373718
267,2289573652,-42.02042007446289,-88.24900054931641,108.88128662109375,9.77627468109131,-0.41249778866768,0.69721144437790,-0.34968376159668,0.31238526105881,-0.98827224969864
268,2289590319,-41.86377334594727,-88.23309326171875,108.71891021728516,9.74299144744873,-0.49825367331505,0.70666307210922,-0.34037357568741,0.45932537317276,-1.05531370639801
269,2289606986,-41.66726303100586,-88.21469116210938,108.51905822753906,9.75755405426025,-0.43892425298691,0.77617096900940,-0.20381943881512,0.58861821889877,-1.04619550704956
270,2289623653,-41.49625015258789,-88.19680786132812,108.32585906982422,9.76164817810059,-0.44306954741478,0.73531758785248,-0.88431692123413,0.57031160593033,-1.03630268573761
271,2289640320,-41.32059097290039,-88.17619323730469,108.15425872802734,9.77310657501221,-0.43805518746376,0.72253823280334,0.23826213181019,0.67176991701126,-0.92193555831909
272,2289656987,-41.22934341430664,-88.15835571289062,108.06336975097656,9.70852661132812,-0.36675089597702,0.71675401926041,0.01221085432917,0.45219859480858,-0.91201692819595
273,2289673654,-41.24838638305664,-88.14670562744141,108.07750701904297,9.70663928985596,-0.34424355626106,0.76640903949738,-1.39480376243591,0.07834284752607,-1.01551795005798
274,2289690321,-41.26667404174805,-88.13681030273438,108.04881286621094,9.78296852111816,-0.38778391480446,0.76697254180908,-2.82661128044128,0.03065840154886,-1.12399411201477
275,2289706988,-41.26401519775391,-88.12466430664062,107.94824218750000,9.80056667327881,-0.50365841388702,0.73067897558212,-3.47157740592957,0.18331010639668,-1.07370376586914
276,2289723655,-41.23494338989258,-88.10886383056641,107.93357086181641,9.74266338348389,-0.41626524925232,0.70334142446518,-1.46666657924652,0.31453680992126,-0.94762516021729
277,2289740322,-41.27812576293945,-88.09648895263672,107.92367553710938,9.79131412506104,-0.34216812252998,0.72160357236862,-3.20663976669312,0.11739579588175,-1.00157833099365
278,2289756989,-41.24912261962891,-88.08490753173828,107.83791351318359,9.77504348754883,-0.58907431364059,0.71934711933136,-3.71591615676880,0.20955671370029,-1.14363265037537
279,2289773656,-41.06848144531250,-88.07471466064453,107.60926055908203,9.78143596649170,-0.40426748991013,0.72668540477753,-2.88948369026184,0.31789839267731,-1.43023860454559
280,2289790323,-40.89743041992188,-88.06801605224609,107.36239624023438,9.73069572448730,-0.37399116158485,0.75562804937363,-5.88193750381470,0.23212790489197,-1.62299346923828
281,2289806990,-40.78375625610352,-88.06366729736328,107.21079254150391,9.74611186981201,-0.54263687133789,0.75949639081955,-4.78622007369995,0.01290239952505,-1.61047554016113
282,2289823657,-40.65447616577148,-88.06316375732422,107.01443481445312,9.77297496795654,-0.55673050880432,0.76898151636124,-2.63595652580261,-0.15925978124142,-1.70334708690643
283,2289840324,-40.53184127807617,-88.06568908691406,106.84197998046875,9.80967426300049,-0.42950892448425,0.75953561067581,-2.98125410079956,-0.29452040791512,-1.82010245323181
284,2289856991,-40.33671569824219,-88.06791687011719,106.58491516113281,9.78245449066162,-0.45649412274361,0.74014061689377,-4.38646984100342,-0.17886631190777,-1.98457467556000
285,2289873658,-40.11492919921875,-88.06690216064453,106.24004364013672,9.75834083557129,-0.55860060453415,0.71533811092377,-3.96039605140686,0.01671228930354,-1.87089896202087
286,2289890325,-39.83937072753906,-88.06690216064453,106.01935577392578,9.74993133544922,-0.49015402793884,0.74647420644760,-2.14120268821716,-0.02500439994037,-1.97442543506622
287,2289906992,-39.45125198364258,-88.06245422363281,105.61351776123047,9.78139114379883,-0.42628717422485,0.75453633069992,-1.04944205284119,0.32642108201981,-1.93607687950134
288,2289923659,-39.08715438842773,-88.05861663818359,105.19236755371094,9.78947544097900,-0.43898934125900,0.73917835950851,-3.38717126846313,0.32925128936768,-1.97975313663483
289,2289940326,-38.66396331787109,-88.05398559570312,104.77907562255859,9.74919319152832,-0.49232783913612,0.71941208839417,-2.04991888999939,0.39803415536880,-2.02962064743042
290,2289956993,-38.28877258300781,-88.05338287353516,104.33435058593750,9.75987148284912,-0.41524389386177,0.72591620683670,-1.64758813381195,0.12418958544731,-2.10476183891296
291,2289973660,-37.84072494506836,-88.05136871337891,103.84949493408203,9.76966857910156,-0.37379705905914,0.75443637371063,-2.18505811691284,0.30049461126328,-2.18591594696045
292,2289990327,-37.42596817016602,-88.04856109619141,103.37478637695312,9.77347564697266,-0.37913790345192,0.76366096735001,-3.56083106994629,0.35604852437973,-2.11924624443054
293,2290006994,-36.92391967773438,-88.04335021972656,102.84990692138672,9.73796844482422,-0.53649163246155,0.72881090641022,-2.47686338424683,0.49999189376831,-2.19909334182739
294,2290023661,-36.42815017700195,-88.03766632080078,102.34015655517578,9.79557132720947,-0.40773016214371,0.74222266674042,-0.67048931121826,0.50412839651108,-2.10838627815247
295,2290040328,-35.92733764648438,-88.03377532958984,101.79412841796875,9.79301166534424,-0.45594570040703,0.77718377113342,-2.28672719001770,0.44922751188278,-2.23901104927063
296,2290056995,-35.49771118164062,-88.03069305419922,101.34548950195312,9.77228355407715,-0.55709552764893,0.82060784101486,-1.82808089256287,0.32373815774918,-2.13075900077820
297,2290073662,-35.13438034057617,-88.03218841552734,101.00984954833984,9.73082351684570,-0.45602497458458,0.81243884563446,0.34241619706154,-0.03855992481112,-2.12676334381104
298,2290090329,-34.78811264038086,-88.04345703125000,100.66961669921875,9.74482250213623,-0.47064152359962,0.80881994962692,0.39663827419281,-0.51602542400360,-2.41009759902954
299,2290106996,-34.46342468261719,-88.05963134765625,100.35329437255859,9.74240112304688,-0.38273149728775,0.75100630521774,0.12577116489410,-0.80579477548599,-2.55728101730347
300,2290123663,-34.11039352416992,-88.08011627197266,99.98622894287109,9.74686336517334,-0.39914646744728,0.71609479188919,-0.65563392639160,-0.95913153886795,-2.75166201591492
301,2290140330,-33.75706863403320,-88.10246276855469,99.58342742919922,9.71838378906250,-0.36407458782196,0.70456230640411,-1.26264846324921,-1.05792605876923,-2.82621407508850
302,2290156997,-33.41696548461914,-88.12017822265625,99.23530578613281,9.79741954803467,-0.47587990760803,0.77467113733292,0.25103646516800,-0.87083172798157,-2.59058356285095
303,2290173664,-32.99616241455078,-88.13135528564453,98.81295776367188,9.83012199401855,-0.43365901708603,0.77895456552505,1.29316604137421,-0.48601379990578,-2.47664570808411
304,2290190331,-32.46249389648438,-88.13954162597656,98.36637115478516,9.76172065734863,-0.49624526500702,0.71820354461670,1.94742953777313,-0.27269840240479,-2.57347440719604
305,2290206998,-31.81237411499023,-88.15368652343750,97.74045562744141,9.73392391204834,-0.47034242749214,0.68478745222092,1.80826914310455,-0.42808425426483,-2.93319821357727
306,2290223665,-31.24684143066406,-88.17565155029297,97.20649719238281,9.72062683105469,-0.53605115413666,0.68512743711472,1.53413665294647,-0.91321432590485,-3.02349591255188
307,2290240332,-30.69151306152344,-88.20681762695312,96.71347045898438,9.68749141693115,-0.57485389709473,0.76246309280396,3.25045061111450,-1.45125401020050,-3.22763586044312
308,2290256999,-30.20321273803711,-88.24475860595703,96.29808807373047,9.74470901489258,-0.53507184982300,0.88560515642166,7.26586914062500,-1.89845192432404,-3.15394830703735
309,2290273666,-29.66522598266602,-88.28137969970703,95.92468261718750,9.75108528137207,-0.45387855172157,0.81382775306702,9.73491096496582,-1.91978776454926,-3.14814782142639
310,2290290333,-29.06621170043945,-88.32649230957031,95.47752380371094,9.74230289459229,-0.35901880264282,0.72512251138687,10.40500831604004,-2.27559304237366,-3.40750813484192
311,2290307000,-28.44231033325195,-88.38298797607422,95.00142669677734,9.74371242523193,-0.11016838252544,0.65637642145157,8.94206237792969,-2.86768174171448,-3.77327060699463
312,2290323667,-27.86103820800781,-88.44820404052734,94.49008178710938,9.76271057128906,0.02316012233496,0.69087076187134,4.85486268997192,-3.31336808204651,-3.98613739013672
313,2290340334,-27.46007347106934,-88.51931762695312,94.09458160400391,9.78687000274658,-0.10522247105837,0.67085546255112,-1.28936910629272,-3.69111061096191,-3.96405220031738
314,2290357001,-27.01682472229004,-88.59138488769531,93.68138885498047,9.73272132873535,-0.28969642519951,0.62273168563843,-0.21440389752388,-3.75418162345886,-3.96911048889160
315,2290373668,-26.47372817993164,-88.66675567626953,93.09603118896484,9.76683712005615,-0.12211493402719,0.64900952577591,0.30004000663757,-3.92070913314819,-4.13011884689331
316,2290390335,-25.80824661254883,-88.74197387695312,92.37196350097656,9.74613761901855,-0.22699756920338,0.62351232767105,-3.56589674949646,-3.77695798873901,-4.25668382644653
317,2290407002,-24.86611366271973,-88.81139373779297,91.37295532226562,9.77497482299805,-0.26404312252998,0.53986281156540,-5.63192033767700,-3.33905792236328,-4.38926887512207
318,2290423669,-23.43295478820801,-88.87221527099609,89.79139709472656,9.77521514892578,-0.15541197359562,0.61814582347870,-7.68461847305298,-2.68751573562622,-4.67314100265503
319,2290440336,-21.83290863037109,-88.93064117431641,88.08898162841797,9.73844909667969,-0.31846404075623,0.62413185834885,-9.31162834167480,-2.56771254539490,-4.68590927124023
320,2290457003,-20.08068466186523,-89.00102996826172,86.20259094238281,9.68929195404053,-0.44907248020172,0.69147342443466,-8.04775714874268,-3.32249379158020,-4.91673088073730
321,2290473670,-18.13520812988281,-89.09259033203125,84.20775604248047,9.69892883300781,-0.39830386638641,0.78884649276733,-3.52574872970581,-4.41293382644653,-5.13641643524170
322,2290490337,-15.79065513610840,-89.20156097412109,81.81101226806641,9.74474811553955,-0.20708544552326,0.75910526514053,-3.97294044494629,-5.32258987426758,-5.43668127059937
323,2290507004,-13.06878757476807,-89.34032440185547,78.98041534423828,9.71108055114746,-0.40848937630653,0.61003774404526,-5.12748432159424,-6.77622509002686,-5.61299896240234
324,2290523671,-9.17585182189941,-89.50742340087891,75.00928497314453,9.70439910888672,-0.26239678263664,0.68178308010101,-4.13393640518188,-7.88881158828735,-5.88733148574829
325,2290540338,-2.70189213752747,-89.71196746826172,68.43431091308594,9.71251869201660,-0.31687924265862,0.65618479251862,-3.21048903465271,-8.52666282653809,-6.14228630065918
326,2290557005,9.74270629882812,-90.00000000000000,55.85022354125977,9.69093990325928,-0.37358984351158,0.64396125078201,-0.71751451492310,-9.64624691009521,-6.26408815383911
327,2290573672,39.37924194335938,-90.00000000000000,26.11803627014160,9.78398799896240,-0.35795268416405,0.63077175617218,3.99891281127930,-10.11810302734375,-6.38862371444702
328,2290590339,89.19943237304688,-90.00000000000000,-23.48024559020996,9.78622531890869,-0.14780192077160,0.58884114027023,4.21669816970825,-10.38806343078613,-6.42683887481689
329,2290607006,118.74350738525391,-90.00000000000000,-52.77790451049805,9.77618026733398,-0.31283003091812,0.44680958986282,2.87151813507080,-10.69128990173340,-6.58513736724854
330,2290623673,131.66195678710938,-89.64064025878906,-65.57808685302734,9.70653438568115,-0.21829579770565,0.37863701581955,4.79563474655151,-11.40361785888672,-6.80499696731567
331,2290640340,138.46229553222656,-89.37914276123047,-72.28160858154297,9.73163795471191,-0.16509369015694,0.36526638269424,5.35841798782349,-12.04279422760010,-6.81746530532837
332,2290657007,142.83264160156250,-89.13385009765625,-76.59731292724609,9.69063568115234,-0.15235628187656,0.37000799179077,4.55832815170288,-12.76261520385742,-6.71668052673340
333,2290673674,145.91490173339844,-88.89147186279297,-79.63211822509766,9.72210502624512,-0.20903174579144,0.36944687366486,6.15606117248535,-13.25091934204102,-6.60025691986084
334,2290690341,147.99781799316406,-88.65157318115234,-81.56358337402344,9.77016544342041,-0.10557448863983,0.33421525359154,8.72854137420654,-13.21442604064941,-6.68513965606689
335,2290707008,149.60922241210938,-88.40775299072266,-83.08577728271484,9.73015975952148,0.01139807421714,0.24092425405979,6.49249887466431,-13.66400241851807,-6.69716310501099
336,2290723675,150.87368774414062,-88.16091156005859,-84.28890228271484,9.73280811309814,-0.14233414828777,0.10986009240150,5.19944667816162,-13.93088340759277,-6.70005130767822
337,2290740342,151.87019348144531,-87.91513061523438,-85.20378112792969,9.71940708160400,0.00688896561041,0.10077571123838,6.17158985137939,-13.93143177032471,-6.71427822113037
338,2290757009,152.66361999511719,-87.66368103027344,-85.92488861083984,9.70691680908203,0.08587007969618,0.04485747218132,4.83347892761230,-14.26546001434326,-6.85599422454834
339,2290773676,153.35293579101562,-87.40264129638672,-86.59460449218750,9.73167800903320,0.04696851968765,0.05053927004337,1.33500540256500,-14.88755989074707,-6.87916660308838
340,2290790343,154.06896972656250,-87.13214874267578,-87.29051208496094,9.68271446228027,-0.03641794994473,0.07421217113733,0.42717537283897,-15.63865375518799,-6.69795751571655
341,2290807010,154.81228637695312,-86.84706878662109,-88.00568389892578,9.68921470642090,-0.05652822926641,0.08618395030499,1.36638140678406,-16.62129020690918,-6.67470264434814
342,2290823677,155.56225585937500,-86.53898620605469,-88.72261810302734,9.63067817687988,0.00752060161904,0.11121189594269,1.93817949295044,-18.04265785217285,-6.85131597518921
343,2290840344,156.37269592285156,-86.21126556396484,-89.50466918945312,9.77556800842285,0.09178908914328,0.15059207379818,2.18354368209839,-19.38290023803711,-6.67864942550659
344,2290857011,157.20834350585938,-85.86643981933594,-90.33281707763672,9.79150867462158,0.12429936230183,0.02194867469370,0.88087987899780,-20.60814094543457,-6.38740777969360
345,2290873678,158.03730773925781,-85.49542236328125,-91.16523742675781,9.72741317749023,0.20680667459965,-0.06238336116076,-0.14270140230656,-22.24570655822754,-6.35427808761597
346,2290890345,158.80786132812500,-85.09352111816406,-91.97956085205078,9.80409622192383,0.13648071885109,-0.09720896184444,-2.67974090576172,-24.15524291992188,-6.50020408630371
347,2290907012,159.58499145507812,-84.63948059082031,-92.83782196044922,9.61554050445557,0.09078703075647,-0.12325885146856,-4.44063282012939,-27.34774780273438,-6.76421117782593
348,2290923679,160.36450195312500,-84.10688018798828,-93.76151275634766,9.53542423248291,0.12448734790087,-0.01851915381849,-8.13839149475098,-32.13280868530273,-7.24064970016479
349,2290940346,161.15966796875000,-83.51263427734375,-94.74230194091797,9.89037513732910,0.25610804557800,0.29650545120239,-10.55817222595215,-35.99977874755859,-7.16485738754272
350,2290957013,161.93356323242188,-82.86814880371094,-95.72452545166016,10.36782360076904,0.21588230133057,0.15680530667305,-11.80691146850586,-39.14544677734375,-7.03170204162598
351,2290973680,162.63386535644531,-82.17636871337891,-96.66494750976562,10.74007606506348,0.31076869368553,-0.08211374282837,-13.85728645324707,-42.03422164916992,-7.03792047500610
352,2290990347,163.25390625000000,-81.44039916992188,-97.56728363037109,11.19826126098633,0.59705960750580,-0.06848499923944,-16.32537078857422,-44.75024414062500,-6.98434495925903
353,2291007014,163.54829406738281,-80.69923400878906,-98.36610412597656,11.22947406768799,0.00642912182957,0.69222247600555,-29.78465270996094,-45.02914428710938,-6.96266698837280
354,2291023681,164.21794128417969,-80.16526794433594,-98.97286224365234,10.64768981933594,-0.39705494046211,-0.33153039216995,4.15048408508301,-32.76546859741211,-4.47407007217407
355,2291040348,164.53065490722656,-79.46236419677734,-99.72032928466797,10.65033149719238,1.30904889106750,-0.59415400028229,-25.50294303894043,-43.05744552612305,-5.11632299423218
356,2291057015,164.55133056640625,-78.74533843994141,-100.28714752197266,11.19668388366699,0.64506107568741,-0.50396490097046,-32.17280960083008,-43.47399520874023,-6.68376684188843
357,2291073682,164.68910217285156,-78.31214141845703,-100.55743408203125,11.48495388031006,-0.09490294754505,-0.91218733787537,-7.65104675292969,-26.22838401794434,-5.20459127426147
358,2291090349,165.25975036621094,-77.75085449218750,-100.96752929687500,9.72567176818848,0.43626692891121,-2.00146365165710,10.14554309844971,-34.16343307495117,-5.22375297546387
359,2291107016,166.30410766601562,-76.89944458007812,-101.61538696289062,9.49742507934570,-0.21824702620506,-2.11119914054871,24.71975135803223,-51.91712570190430,-5.69576740264893
360,2291123683,167.70210266113281,-76.11753082275391,-102.53474426269531,9.23891925811768,-0.87764829397202,-1.42951798439026,30.22200012207031,-48.91147232055664,0.57335329055786
361,2291140350,169.00582885742188,-75.51908111572266,-103.63703155517578,9.15894794464111,-0.39954262971878,0.18497028946877,14.06251430511475,-38.75297927856445,7.20900011062622
362,2291157017,169.89028930664062,-75.21363067626953,-104.41061401367188,8.77096843719482,-0.34133228659630,2.02790260314941,8.13476848602295,-20.48649787902832,6.75381898880005
363,2291173684,171.00567626953125,-75.28959655761719,-105.00496673583984,8.67034244537354,-2.72421932220459,1.77634716033936,32.39496231079102,2.63766384124756,8.29276561737061
364,2291190351,172.47943115234375,-75.77867889404297,-105.29075622558594,8.52356433868408,0.26697808504105,2.78571677207947,71.77104187011719,28.06121826171875,7.03392648696899
365,2291207018,173.04335021972656,-76.58398437500000,-105.28552246093750,8.45092391967773,0.64798045158386,2.55085444450378,34.08427810668945,47.55010604858398,4.60321521759033
366,2291223685,172.59999084472656,-77.66329956054688,-104.80120849609375,8.61466026306152,0.98312395811081,2.40095281600952,1.67752182483673,64.64950561523438,0.25713604688644
367,2291240352,171.04574584960938,-78.99060821533203,-103.68817138671875,8.89896869659424,1.00646948814392,2.21564579010010,-27.89536285400391,80.30900573730469,-3.46298956871033
368,2291257019,168.06620788574219,-80.53730773925781,-101.66796875000000,9.13117885589600,1.21599626541138,2.11290097236633,-59.53169631958008,94.68843078613281,-5.79136371612549
369,2291273686,163.05287170410156,-82.25970458984375,-98.25418853759766,9.60515117645264,0.97407555580139,1.54815590381622,-98.29454803466797,107.17140960693359,-5.36929607391357
370,2291290353,155.25834655761719,-84.12370300292969,-92.15898895263672,10.02889728546143,0.72038567066193,0.75268995761871,-104.52380371093750,119.23320770263672,-2.31688714027405
371,2291307020,141.23478698730469,-86.00154113769531,-79.83045196533203,10.16236114501953,0.51583331823349,0.31747403740883,-104.28401947021484,128.07716369628906,3.10306572914124
372,2291323687,109.27261352539062,-87.48799133300781,-49.30235671997070,10.25429439544678,-0.08369433879852,-0.15349966287613,-87.97596740722656,133.47677612304688,8.44175434112549
373,2291340354,54.83584594726562,-87.44166564941406,4.16010665893555,10.67628479003906,-0.22389966249466,-0.27813547849655,-59.93701934814453,137.14358520507812,15.19102096557617
374,2291357021,23.99174880981445,-85.83642578125000,34.46616744995117,10.72551631927490,-0.23069705069065,-0.29961881041527,-35.61602783203125,138.35176086425781,21.90339660644531
375,2291373688,11.27203369140625,-83.80043029785156,46.96053314208984,10.89424896240234,-0.60457938909531,-0.30489104986191,-16.82209777832031,135.53511047363281,26.42726516723633
376,2291390355,5.21983671188354,-81.70412445068359,53.20112609863281,10.98632717132568,-1.02920997142792,-0.21404372155666,8.21030139923096,130.52029418945312,27.32100868225098
377,2291407022,2.25397825241089,-79.65962982177734,56.83175277709961,10.91638565063477,-1.16997087001801,-0.10470359027386,36.97642517089844,124.17684173583984,25.75277519226074
378,2291423689,0.97489476203918,-77.70287322998047,59.16686248779297,10.91256332397461,-0.72691655158997,0.15564137697220,60.63301086425781,117.68394470214844,22.71873855590820
379,2291440356,0.63383263349533,-75.85411071777344,60.73667907714844,10.63787078857422,0.08373097330332,0.43882051110268,71.24562072753906,110.81144714355469,18.52580070495605
380,2291457023,0.70954525470734,-74.13659667968750,61.80229949951172,10.30096530914307,1.00292646884918,0.77870714664459,66.32743072509766,102.85153198242188,13.89542675018311
381,2291473690,0.79556328058243,-72.58936309814453,62.47920989990234,9.97052478790283,1.70155227184296,1.07975924015045,44.11547470092773,92.61252593994141,8.97137546539307
382,2291490357,0.60946512222290,-71.23614501953125,62.97351837158203,9.78236865997314,1.13066840171814,0.91291117668152,17.07544136047363,80.94745635986328,6.78899002075195
383,2291507024,0.31484758853912,-70.07424926757812,63.40780258178711,9.40103721618652,0.89285618066788,0.74830883741379,6.95992374420166,69.44071197509766,6.65097761154175
384,2291523691,-0.19174897670746,-69.14801788330078,63.78221130371094,9.05339241027832,0.85269254446030,0.63105320930481,-9.28399658203125,55.25680541992188,6.35499143600464
385,2291540358,-0.75767236948013,-68.48373413085938,64.03997039794922,8.91621112823486,0.60196143388748,0.45992779731750,-19.47835350036621,39.49659347534180,4.50978708267212
386,2291557025,-1.31615161895752,-68.10658264160156,64.13976287841797,8.72012996673584,0.33921861648560,0.49407780170441,-27.88420486450195,22.29234504699707,1.21651911735535
387,2291573692,-1.72451472282410,-68.02066802978516,64.08342742919922,8.59577941894531,0.14460501074791,0.81200283765793,-27.57302284240723,4.90779113769531,-2.53373694419861
388,2291590359,-1.85003173351288,-68.16946411132812,63.87070465087891,8.60561656951904,-0.09605087339878,1.31761777400970,-19.30889129638672,-9.04112625122070,-6.44670820236206
389,2291607026,-1.59837448596954,-68.47447204589844,63.51906585693359,8.80913734436035,-0.05326417461038,1.85608935356140,-4.43921852111816,-18.31196212768555,-9.75040435791016
390,2291623693,-1.11371386051178,-68.87678527832031,63.08301162719727,9.04510402679443,0.25012266635895,2.31642675399780,4.77672958374023,-24.15283012390137,-11.49076366424561
391,2291640360,-0.51666444540024,-69.31772613525391,62.59666824340820,9.22115802764893,0.59149938821793,2.81784915924072,8.63178920745850,-26.54487419128418,-12.19229125976562
392,2291657027,0.03439470008016,-69.74274444580078,62.08927536010742,9.32885646820068,0.48473668098450,3.16253280639648,4.60982513427734,-25.69307327270508,-12.15689086914062
393,2291673694,0.60857594013214,-70.09510803222656,61.60048675537109,9.37935638427734,-0.04042083770037,3.28437137603760,6.97118997573853,-21.43332290649414,-11.35234832763672
394,2291690361,1.23878037929535,-70.38114929199219,61.14888000488281,9.26670551300049,-0.33850598335266,3.35247302055359,12.37888622283936,-17.53844070434570,-10.28221988677979
395,2291707028,1.90475046634674,-70.61244964599609,60.74285507202148,9.30789184570312,-0.31825235486031,3.31160664558411,17.06028366088867,-14.32811164855957,-9.14799690246582
396,2291723695,2.44047474861145,-70.81885528564453,60.40785980224609,9.34622955322266,-0.14745904505253,3.33880114555359,13.23266410827637,-12.85969734191895,-7.56224298477173
397,2291740362,2.72422409057617,-71.02430725097656,60.18250656127930,9.25917339324951,-0.08455034345388,3.36018371582031,4.30969905853271,-12.74439811706543,-5.25441741943359
398,2291757029,2.72816061973572,-71.24742126464844,60.05585861206055,9.36136531829834,-0.05100055038929,3.42106008529663,-6.89150619506836,-13.71435165405273,-3.21258473396301
399,2291773696,2.47982311248779,-71.49592590332031,59.99890899658203,9.53642177581787,0.04915510863066,3.42831730842590,-18.07360649108887,-15.16696834564209,-1.80900931358337
400,2291790363,2.02140855789185,-71.77366638183594,59.98621749877930,9.41827583312988,0.15987020730972,3.40714979171753,-28.17208290100098,-16.88645744323730,-0.98389631509781
401,2291807030,1.46336841583252,-72.07894134521484,59.99212646484375,9.37465476989746,0.22082979977131,3.41934442520142,-33.08694839477539,-18.51964378356934,-0.73223865032196
402,2291823697,0.96635621786118,-72.42166137695312,59.96237564086914,9.53007698059082,-0.00394545774907,3.39351463317871,-31.46318817138672,-20.78660964965820,-1.50962662696838
403,2291840364,0.78034317493439,-72.80524444580078,59.81016540527344,9.96886730194092,-0.10451189428568,3.46071958541870,-19.81880760192871,-23.26601982116699,-3.78197741508484
404,2291857031,0.97316181659698,-73.22740173339844,59.52722930908203,10.04354953765869,-0.09364131093025,3.48325681686401,-4.60764074325562,-25.61075973510742,-5.97604036331177
405,2291873698,1.48592352867126,-73.69184112548828,59.13011550903320,9.96618938446045,0.19878159463406,3.51264381408691,7.98299217224121,-28.21471405029297,-7.58966255187988
406,2291890365,2.18418407440186,-74.19627380371094,58.63790512084961,10.11430358886719,0.40316686034203,3.55153775215149,13.57496738433838,-30.71734428405762,-8.59857177734375
407,2291907032,2.96740198135376,-74.73799133300781,58.06317138671875,10.11666965484619,0.53331726789474,3.56248545646667,13.82959175109863,-33.08845520019531,-9.16581153869629
408,2291923699,3.80871462821960,-75.31271362304688,57.39088439941406,9.98813629150391,0.56019753217697,3.57348799705505,11.57356834411621,-35.24171447753906,-9.76524353027344
409,2291940366,4.71802282333374,-75.91374206542969,56.60600662231445,9.73454093933105,0.59963572025299,3.64540600776672,9.00522327423096,-37.03176116943359,-10.38527584075928
410,2291957033,5.70369338989258,-76.51916503906250,55.67091751098633,9.51790428161621,0.22069855034351,3.88698959350586,4.71331977844238,-37.59034347534180,-11.40949630737305
411,2291973700,6.97035694122314,-77.07159423828125,54.64790725708008,9.14541435241699,0.02533438801765,3.85619258880615,16.30062866210938,-34.69826126098633,-11.67425727844238
412,2291990367,8.38051509857178,-77.59535980224609,53.59567642211914,7.53578138351440,0.10904620587826,3.70859527587891,23.07659339904785,-33.20130920410156,-10.91806316375732
413,2292007034,9.92365741729736,-78.12499237060547,52.58462905883789,5.21771955490112,-0.21713097393513,3.45331668853760,33.34349822998047,-33.61702346801758,-8.93300724029541
414,2292023701,11.80973434448242,-78.67114257812500,51.61994552612305,1.58362686634064,-0.39264419674873,3.16382288932800,56.53429031372070,-34.59300994873047,-6.64398097991943
415,2292040368,14.20918178558350,-79.25446319580078,50.63650894165039,-1.83543574810028,0.11761175096035,3.24251866340637,86.12841033935547,-36.86433792114258,-4.51362848281860
416,2292057035,17.18692588806152,-79.84363555908203,49.33757400512695,-2.26691317558289,1.30068838596344,4.05455589294434,102.10052490234375,-38.09035873413086,-5.42338371276855
417,2292073702,21.09446525573730,-80.38591766357422,47.23172760009766,0.26997792720795,0.70572525262833,3.90672755241394,110.06039428710938,-38.09713745117188,-11.19596004486084
418,2292090369,26.10302352905273,-80.87829589843750,44.52055358886719,2.76655983924866,0.13197968900204,2.58586764335632,140.10752868652344,-37.93143463134766,-13.80191612243652
419,2292107036,31.77548217773438,-81.36496734619141,41.12174987792969,2.88421368598938,1.69196712970734,2.08947086334229,138.95132446289062,-41.05606079101562,-14.77121162414551
420,2292123703,36.85617828369141,-81.87505340576172,37.03905487060547,3.45591425895691,2.23517227172852,2.56299185752869,62.58150100708008,-45.67489624023438,-13.58568763732910
421,2292140370,40.95336151123047,-82.35040283203125,32.86869812011719,3.12556838989258,0.09356690198183,2.57831549644470,-1.93520069122314,-44.03594589233398,-10.16007423400879
422,2292157037,43.52565002441406,-82.72651672363281,29.97297668457031,2.43826484680176,-0.26993158459663,3.01780605316162,-17.86501312255859,-32.16986465454102,-2.87165164947510
423,2292173704,43.80722808837891,-83.05455017089844,28.66326522827148,1.86816620826721,0.99408799409866,3.68046140670776,-61.01521301269531,-21.24245452880859,5.22205781936646
424,2292190371,42.61434936523438,-83.39728546142578,28.00303649902344,0.79410445690155,1.08804619312286,4.04999971389771,-110.84133911132812,-18.47547721862793,9.33820629119873
425,2292207038,41.50625610351562,-83.78296661376953,26.76208496093750,0.26575395464897,0.89356362819672,4.71179294586182,-140.40710449218750,-23.04174995422363,7.97207498550415
426,2292223705,41.86510848999023,-84.18061828613281,24.01987457275391,0.49902853369713,-0.23918235301971,5.70280265808105,-142.01826477050781,-29.59416198730469,1.58384656906128
427,2292240372,44.63900375366211,-84.49946594238281,19.41580581665039,1.53966748714447,-1.00277888774872,6.46893930435181,-108.40967559814453,-32.93943786621094,-8.16769695281982
428,2292257039,50.67965698242188,-84.75342559814453,12.47589778900146,2.34399962425232,-3.05140686035156,5.59524822235107,-52.07903289794922,-39.45296096801758,-16.47150802612305
429,2292273706,61.26546478271484,-84.97515869140625,2.32538008689880,3.78243708610535,-6.41281890869141,3.51321697235107,28.57076644897461,-53.02405166625977,-20.97450256347656
430,2292290373,74.24856567382812,-84.99641418457031,-8.20861339569092,3.86606383323669,-7.10623455047607,3.95185446739197,149.32191467285156,-52.08107757568359,-21.16083145141602
431,2292307040,82.21660614013672,-84.64620971679688,-12.61726951599121,0.80442106723785,-4.66944408416748,6.51935243606567,214.59632873535156,-19.56432342529297,-26.74987792968750
432,2292323707,95.18409729003906,-85.31700897216797,-19.95373535156250,4.01183223724365,-13.18031978607178,-65.48714447021484,339.56054687500000,-39.92351531982422,37.82255554199219
433,2292340374,160.29293823242188,-78.53372192382812,-88.71710205078125,36.87522125244141,4.97152662277222,-51.88640594482422,-193.25447082519531,-638.15234375000000,68.02602386474609
434,2292357041,169.90617370605469,-75.33635711669922,-95.93647766113281,46.04565811157227,-20.11893272399902,39.67546844482422,154.58314514160156,-210.04066467285156,44.02790832519531
435,2292373708,171.60061645507812,-71.12621307373047,-93.22244262695312,83.62615966796875,41.54527664184570,12.07859802246094,257.55688476562500,-241.62487792968750,-88.41206359863281
436,2292390375,168.28157043457031,-66.07810211181641,-96.24024200439453,-20.79233741760254,-17.47315406799316,-30.45874404907227,-367.61880493164062,-309.68780517578125,10.86271381378174
437,2292407042,174.14492797851562,-64.57897186279297,-95.78024291992188,-27.04648971557617,3.29544520378113,-6.57530117034912,376.78701782226562,-87.07019805908203,-26.49236106872559
438,2292423709,171.79415893554688,-61.99802398681641,-97.84759521484375,19.75745201110840,9.00603103637695,-13.56336116790771,-251.85311889648438,-160.41043090820312,35.06314468383789
439,2292440376,170.17088317871094,-60.59915161132812,-97.55007934570312,20.13565635681152,-3.52576446533203,-5.18211555480957,-81.76466369628906,-81.43775177001953,-22.93496513366699
440,2292457043,172.53796386718750,-59.42806243896484,-97.52567291259766,7.80642223358154,3.75743675231934,-7.77643775939941,143.23352050781250,-69.25080108642578,-12.60603713989258
441,2292473710,171.44424438476562,-58.36414337158203,-97.79587554931641,10.79722404479980,1.47704827785492,-6.73457479476929,-79.54088592529297,-64.27225494384766,-1.90755045413971
442,2292490377,171.73635864257812,-57.73056411743164,-98.18620300292969,7.19585704803467,-0.36188322305679,-5.73383235931396,-2.38742423057556,-39.31097412109375,5.39811706542969
443,2292507044,172.21353149414062,-57.58980560302734,-98.75789642333984,6.01983737945557,4.43124008178711,-8.04990482330322,-0.39466655254364,-10.82034206390381,15.68881702423096
444,2292523711,172.16957092285156,-57.72435379028320,-99.07968139648438,8.22300910949707,6.24350738525391,-8.18625640869141,-18.98996734619141,6.69840478897095,10.03814029693604
445,2292540378,172.32487487792969,-58.19108963012695,-99.10148620605469,12.33046531677246,0.41946208477020,-8.03314590454102,8.17801094055176,27.75847816467285,3.18430161476135
446,2292557045,173.06257629394531,-59.07328414916992,-99.39136505126953,13.02953338623047,1.94553303718567,-7.60334634780884,29.37520980834961,51.44931793212891,14.43193912506104
447,2292573712,173.68241882324219,-60.44548797607422,-100.03509521484375,12.78682613372803,2.50508403778076,-7.84938907623291,3.78720808029175,79.63345336914062,27.54958915710449
448,2292590379,174.68296813964844,-62.20643997192383,-100.73398590087891,12.25321960449219,3.07475066184998,-9.22589302062988,23.20083427429199,103.16380310058594,29.45600318908691
449,2292607046,175.32095336914062,-64.25008392333984,-101.35352325439453,12.59075641632080,1.56756806373596,-9.04308891296387,5.05722522735596,120.78478240966797,26.09747695922852
450,2292623713,175.79969787597656,-67.06230926513672,-101.76502990722656,14.91003704071045,1.65378844738007,-9.13843727111816,6.18614721298218,167.51866149902344,21.94872665405273
451,2292640380,175.02699279785156,-71.23954010009766,-101.14595794677734,20.45083618164062,2.38913130760193,-11.45933341979980,-11.67193508148193,250.93814086914062,5.60485172271729
452,2292657047,169.54925537109375,-77.25328826904297,-96.11748504638672,30.90046310424805,6.70359086990356,-10.02388095855713,-37.92179489135742,368.20343017578125,-34.08744430541992
453,2292673714,134.49775695800781,-84.38193511962891,-63.44390106201172,53.30760192871094,11.63887214660645,-0.34485101699829,-162.52964782714844,507.36935424804688,-81.96426391601562
454,2292690381,41.50869369506836,-81.45233917236328,24.42897415161133,57.63290023803711,1.82388818264008,-3.62118101119995,-330.65368652343750,594.39453125000000,-107.21385192871094
455,2292707048,22.67324066162109,-78.18892669677734,37.30777359008789,1.78200972080231,-12.97250652313232,-70.24314117431641,-369.21875000000000,237.41415405273438,11.01920318603516
456,2292723715,16.47360038757324,-81.84082031250000,31.85054206848145,-14.52830791473389,-3.43189382553101,-0.04058007895947,-694.26873779296875,-225.30932617187500,18.50684356689453
457,2292740382,57.23394775390625,-85.41571807861328,-11.02016925811768,9.58627986907959,-25.85663795471191,-14.18782520294189,-112.93597412109375,-327.03756713867188,-105.43235778808594
458,2292757049,111.70939636230469,-83.96687316894531,-63.64257812500000,5.09552240371704,4.66837263107300,16.46131134033203,122.03712463378906,-273.94165039062500,-105.88937377929688
459,2292773716,135.37957763671875,-81.76007843017578,-83.21786499023438,6.61612701416016,-11.04038524627686,11.83515644073486,254.16007995605469,-193.09600830078125,-29.50927352905273
460,2292790383,142.31373596191406,-80.88229370117188,-83.33300781250000,-0.39291754364967,11.30294322967529,23.92372703552246,409.15377807617188,-40.17913818359375,-35.18737792968750
461,2292807050,140.00337219238281,-81.11181640625000,-78.46135711669922,2.63933658599854,-5.51252317428589,10.40314960479736,150.07832336425781,39.53350067138672,-28.33102989196777
462,2292823717,132.20118713378906,-81.86457824707031,-65.91498565673828,0.42481040954590,10.19009017944336,12.22253894805908,276.45443725585938,109.64351654052734,-50.44585418701172
463,2292840384,120.83507537841797,-82.45774841308594,-58.72548294067383,-0.85483515262604,5.85112667083740,8.26739501953125,-254.51333618164062,68.55130004882812,-7.80806398391724
464,2292857051,110.55718231201172,-83.15923309326172,-52.47878265380859,-0.57009744644165,-4.25288009643555,2.21232342720032,-244.71322631835938,60.63866424560547,16.17326164245605
465,2292873718,102.11919403076172,-83.83770751953125,-47.27646636962891,-0.82481914758682,-2.60871338844299,2.52160501480103,-196.05390930175781,45.50862884521484,27.71821212768555
466,2292890385,94.43193817138672,-84.53818511962891,-41.88512039184570,-0.52900308370590,-0.54854846000671,3.15607118606567,-139.31471252441406,38.63414764404297,35.44470596313477
467,2292907052,85.68561553955078,-85.11782073974609,-34.53994369506836,-0.07863254845142,1.08320879936218,4.17143344879150,-85.73292541503906,39.98037719726562,33.28173446655273
468,2292923719,76.69139862060547,-85.25170135498047,-25.80560493469238,0.05231646448374,-0.32606539130211,4.31023120880127,-17.32752609252930,42.47829055786133,13.37144088745117
469,2292940386,69.38078308105469,-85.01229858398438,-16.89209365844727,0.93230181932449,-2.99828004837036,3.35744857788086,94.31349182128906,47.80028152465820,-1.65916633605957
470,2292957053,63.56993103027344,-84.48815155029297,-8.38758277893066,1.43798112869263,0.47197961807251,3.20424365997314,159.49784851074219,55.49381637573242,-11.27108383178711
471,2292973720,58.01002502441406,-83.77959442138672,-0.68584281206131,1.72231173515320,1.76298260688782,2.64718317985535,126.08390045166016,62.05506896972656,-15.12633705139160
472,2292990387,52.10289001464844,-83.04675292968750,6.31909751892090,0.98622453212738,1.66662418842316,2.48995351791382,63.07139587402344,64.76900482177734,-9.52660083770752
473,2293007054,45.88563919067383,-82.34419250488281,12.41837310791016,0.50060105323792,0.91409295797348,1.87575507164001,-10.07882976531982,62.83234024047852,-2.41879487037659
474,2293023721,39.62164688110352,-81.71904754638672,17.67776298522949,0.50521069765091,0.18579553067684,1.27030491828918,-63.35145187377930,57.30945968627930,5.48939800262451
475,2293040388,33.46319961547852,-81.15399932861328,22.44014549255371,0.79808735847473,-0.66758579015732,1.24051141738892,-86.98247528076172,52.64635086059570,12.81114578247070
476,2293057055,27.70229148864746,-80.49438476562500,26.99275779724121,0.97077441215515,-1.29799711704254,0.97662431001663,-76.03524017333984,56.28738021850586,16.17401885986328
477,2293073722,22.68617630004883,-79.70830535888672,31.17439842224121,0.64185065031052,-0.69129568338394,0.57047861814499,-53.83356475830078,61.09402847290039,17.74701881408691
478,2293090389,18.58824348449707,-78.89105224609375,34.71674728393555,0.25316077470779,0.16968379914761,0.39738371968269,-37.05562591552734,59.85602951049805,18.43178558349609
479,2293107056,15.55572700500488,-78.09307098388672,37.39477539062500,-0.36486452817917,0.66846406459808,1.16999316215515,-24.53235816955566,55.23826980590820,15.36209964752197
480,2293123723,14.32027816772461,-77.38430023193359,38.78480529785156,-0.30572846531868,-0.31440919637680,0.31060618162155,7.36087036132812,45.73675155639648,4.91355848312378
481,2293140390,14.85675144195557,-76.96173858642578,39.22702789306641,-0.28887429833412,0.61205190420151,-0.30230504274368,58.05109786987305,26.10411262512207,-1.93050813674927
482,2293157057,16.02350807189941,-76.84481811523438,39.22340011596680,-0.11582762748003,-0.77488166093826,0.11717306077480,69.80362701416016,6.84979343414307,-3.16391491889954
483,2293173724,18.02367401123047,-76.75571441650391,39.06565475463867,-0.88250201940536,-0.56377029418945,-0.40676257014275,110.80126190185547,4.57240438461304,-4.88101863861084
484,2293190391,20.19632911682129,-76.75998687744141,38.30471420288086,-1.47553277015686,2.64423632621765,-1.81266736984253,85.92922973632812,-3.56891703605652,-11.05237770080566
485,2293207058,21.35824394226074,-77.18759155273438,36.88317871093750,-0.56161218881607,2.55062294006348,-3.51584625244141,-13.36884880065918,-30.69774627685547,-10.12873935699463
486,2293223725,22.54099082946777,-78.16026306152344,34.82019042968750,-0.69827079772949,0.56106090545654,-5.26822996139526,-49.93200683593750,-63.87300109863281,-3.95730543136597
487,2293240392,26.28897476196289,-79.66616058349609,31.02881622314453,-0.97532647848129,-3.06932735443115,-8.52567863464355,1.68717443943024,-100.15891265869141,-3.78414130210876
488,2293257059,47.48349761962891,-83.47003173828125,14.77294826507568,14.12082195281982,1.13657474517822,-84.62709808349609,306.33331298828125,-266.17691040039062,20.08465957641602
489,2293273726,145.86642456054688,-83.33373260498047,-88.74501037597656,65.74974822998047,-47.34773635864258,28.10229682922363,-286.03140258789062,-618.89654541015625,66.15759277343750
490,2293290393,166.28134155273438,-80.14651489257812,-103.92189788818359,37.38196945190430,5.99653148651123,50.94737243652344,323.11233520507812,-225.95932006835938,41.25546646118164
491,2293307060,164.70791625976562,-75.86664581298828,-98.05454254150391,72.14679718017578,52.21883010864258,24.68992233276367,250.14581298828125,-229.74992370605469,-136.41810607910156
492,2293323727,165.97689819335938,-73.44527435302734,-99.14330291748047,-5.16896963119507,-28.81228065490723,-50.26358032226562,13.15387248992920,-144.78590393066406,-21.26474380493164
493,2293340394,165.59063720703125,-72.62459564208984,-97.03666687011719,-19.07275772094727,23.12194824218750,3.36340737342834,97.70816802978516,-38.54363632202148,-49.14063262939453
494,2293357061,164.50823974609375,-72.70913696289062,-97.93750000000000,-9.48908424377441,-13.18427371978760,-21.75632286071777,-116.54166412353516,0.84671378135681,15.62109375000000
495,2293373728,166.12614440917969,-74.35690307617188,-99.23405456542969,9.88076496124268,8.81626319885254,-6.69997501373291,22.42446327209473,90.12892150878906,45.12014007568359
496,2293390395,164.92576599121094,-76.82282257080078,-98.87910461425781,31.01439094543457,2.94199490547180,-0.62596464157104,-51.42015075683594,144.64721679687500,30.58158493041992
497,2293407062,164.03738403320312,-79.17221832275391,-96.52458190917969,14.50678157806396,-0.05773960798979,-4.20538520812988,84.83532714843750,143.69879150390625,8.11826324462891
498,2293423729,162.75396728515625,-80.89746856689453,-95.03916931152344,7.12270832061768,6.66844129562378,-4.99991083145142,10.72962188720703,103.63100433349609,13.51148605346680
499,2293440396,158.95530700683594,-82.65135192871094,-92.64932250976562,5.81766653060913,0.53384029865265,-3.32067179679871,-86.03347015380859,106.12429046630859,13.82448196411133
500,2293457063,152.65519714355469,-84.44720458984375,-86.33562469482422,6.06470298767090,-4.02493286132812,-3.15452837944031,-1.59119987487793,115.52643585205078,3.89371752738953
501,2293473730,138.48927307128906,-86.13264465332031,-72.17864990234375,8.78787708282471,-2.21890425682068,-1.54396831989288,-3.20331835746765,122.06064605712891,-2.31759738922119
502,2293490397,108.37916564941406,-87.20565032958984,-42.25230789184570,11.03365993499756,0.08450328558683,-0.59440290927887,-13.08079433441162,120.84059906005859,-7.01389169692993
503,2293507064,69.84455108642578,-86.98961639404297,-4.02341032028198,9.69379711151123,2.36818814277649,1.54411339759827,-20.25544929504395,115.39156341552734,-11.64567756652832
504,2293523731,45.27658843994141,-85.93057250976562,19.87847328186035,8.87547969818115,1.31791710853577,3.80932188034058,-42.70840835571289,107.95098876953125,-5.97046375274658
505,2293540398,31.63374519348145,-84.57006835937500,32.92962646484375,8.97429847717285,0.30944776535034,3.44665193557739,-38.41677474975586,103.79003143310547,-0.68101984262466
506,2293557065,24.03147125244141,-83.10359954833984,40.02782440185547,9.20931816101074,-0.17851881682873,2.44194841384888,-32.88964080810547,98.98339080810547,-1.68673765659332
507,2293573732,19.22713088989258,-81.65273284912109,44.40378189086914,8.80479526519775,-1.27251231670380,2.15134668350220,-28.13272094726562,93.72332763671875,-0.87875014543533
508,2293590399,16.34150123596191,-80.30549621582031,47.08905792236328,8.54907417297363,-0.28676396608353,3.04044699668884,-14.09208869934082,84.71173858642578,-1.84929764270782
509,2293607066,13.47168636322021,-79.08255004882812,49.38874053955078,8.54909038543701,2.44462442398071,4.22044420242310,-36.48978042602539,77.30798339843750,3.74879074096680
510,2293623733,10.28387641906738,-78.21665954589844,51.34863281250000,8.49442863464355,1.75477647781372,4.66475009918213,-76.01115417480469,55.68600845336914,10.71826648712158
511,2293640400,8.18713569641113,-77.79154205322266,52.68052673339844,8.75511264801025,-1.29794108867645,4.89301395416260,-47.65609741210938,27.93873977661133,11.05964279174805
512,2293657067,7.44012451171875,-77.71231079101562,53.45337677001953,9.06144714355469,-2.10318970680237,5.87532186508179,0.49121335148811,6.15953636169434,7.85411167144775
513,2293673734,7.65108823776245,-77.94339752197266,53.93181610107422,8.77546787261963,-2.04189896583557,5.05943393707275,40.73369979858398,-12.82992172241211,6.57128286361694
514,2293690401,8.44357299804688,-78.38459777832031,53.99003219604492,9.23328304290771,-0.20141340792179,3.87552547454834,50.98991775512695,-25.98357391357422,3.15901064872742
515,2293707068,9.11972045898438,-78.94998168945312,53.64900588989258,9.52440166473389,-0.00295243831351,2.53223276138306,20.53111267089844,-34.01369094848633,-0.05328110232949
516,2293723735,9.96220493316650,-79.52095794677734,52.95621871948242,10.08949947357178,0.01178262103349,1.57554292678833,9.73998451232910,-34.94192886352539,-3.24034142494202
517,2293740402,10.96843433380127,-80.01242828369141,52.11627578735352,10.00981616973877,-0.67376834154129,1.04800140857697,10.81155204772949,-30.48928260803223,-4.71347188949585
518,2293757069,12.04280471801758,-80.34702301025391,51.49310302734375,10.26955032348633,0.02341361343861,1.24480342864990,27.63564682006836,-20.82782363891602,-3.51056814193726
519,2293773736,12.96109294891357,-80.56760406494141,51.23608398437500,9.97710704803467,0.93562299013138,0.54803037643433,39.90979766845703,-13.35435390472412,-0.89395284652710
520,2293790403,13.48430347442627,-80.75728607177734,51.11207962036133,10.27192687988281,1.48878931999207,1.24561786651611,24.06858825683594,-11.23626804351807,0.16752666234970
521,2293807070,13.63919734954834,-80.91741180419922,51.15720367431641,9.99077987670898,0.97483301162720,1.46036279201508,11.98321247100830,-9.11645126342773,1.41464829444885
522,2293823737,13.53114318847656,-81.05068969726562,51.33491516113281,9.84148693084717,0.28974151611328,1.58222007751465,4.05698823928833,-7.26444864273071,2.24821925163269
523,2293840404,13.53142452239990,-81.16958618164062,51.46499633789062,9.75609683990479,0.09676168859005,1.68938279151917,7.73423147201538,-6.54091596603394,1.58746290206909
524,2293857071,13.64293193817139,-81.28354644775391,51.43575286865234,9.83001041412354,0.18946573138237,1.72798764705658,4.96964597702026,-6.59319019317627,0.08877363801003
525,2293873738,13.79911804199219,-81.40161132812500,51.21596908569336,9.80477237701416,0.53958612680435,1.81567454338074,-3.65541315078735,-7.23686361312866,-1.50742936134338
526,2293890405,13.91788005828857,-81.52047729492188,50.86301040649414,9.90672111511230,0.50471109151840,1.73774600028992,-13.80979251861572,-7.56539678573608,-2.60376405715942
527,2293907072,14.05548572540283,-81.63472747802734,50.42999267578125,9.87603664398193,0.22311648726463,1.75080585479736,-17.43852043151855,-7.46104097366333,-3.29597449302673
528,2293923739,14.30023193359375,-81.75492858886719,49.97370147705078,9.81091880798340,0.07192082703114,1.37662613391876,-12.39276409149170,-7.84490585327148,-3.32818055152893
529,2293940406,14.87197685241699,-81.91677856445312,49.20817184448242,9.75206756591797,0.30215370655060,1.12156081199646,-11.14968585968018,-10.92334461212158,-5.13195085525513
530,2293957073,15.86990928649902,-82.15927886962891,47.95740890502930,9.70314311981201,0.36906361579895,1.19688820838928,-14.41645622253418,-16.65648460388184,-7.43859624862671
531,2293973740,15.87723922729492,-82.17024993896484,47.63704681396484,10.62748908996582,0.06607399880886,2.27617621421814,-18.60447502136230,-1.24617469310760,-3.59814071655273
532,2293990407,15.69537162780762,-82.10688018798828,47.75246810913086,9.45253086090088,0.50058025121689,1.41193747520447,-4.05587387084961,4.01919031143188,-1.37700295448303
533,2294007074,15.68153762817383,-82.13224029541016,47.50526428222656,9.56805801391602,0.35147416591644,1.72283840179443,-15.52648353576660,-1.91088843345642,-2.80360674858093
534,2294023741,15.89807701110840,-82.21827697753906,47.04281616210938,9.71046638488770,-0.00678861513734,1.85817945003510,-14.48394012451172,-5.87995004653931,-3.49139785766602
535,2294040408,16.39221382141113,-82.34532165527344,46.38187026977539,9.69038391113281,0.14691090583801,1.60920560359955,-9.63254547119141,-8.68793487548828,-4.26114940643311
536,2294057075,17.15837860107422,-82.51863861083984,45.42358398437500,9.70326232910156,0.06289497762918,1.51670336723328,-11.01772403717041,-12.03078365325928,-5.51545619964600
537,2294073742,18.28548622131348,-82.73370361328125,44.18543243408203,9.68566799163818,0.13464233279228,1.52314531803131,-6.02342081069946,-15.07203865051270,-6.42748785018921
538,2294090409,19.73459815979004,-82.99364471435547,42.69911193847656,9.64824199676514,0.20428331196308,1.36836051940918,-1.50761663913727,-18.22664642333984,-6.67411470413208
539,2294107076,21.50546836853027,-83.30760955810547,40.91467666625977,9.70305252075195,0.19348397850990,1.35721516609192,-0.01838995330036,-22.00523185729980,-6.59961080551147
540,2294123743,23.47719383239746,-83.61426544189453,39.07103347778320,9.82843303680420,-0.10102555155754,1.21864342689514,8.45267391204834,-21.67985916137695,-5.89196920394897
541,2294140410,25.47631263732910,-83.85829162597656,37.39203643798828,9.86018657684326,0.47174435853958,1.20648312568665,19.84521293640137,-17.75773811340332,-5.22324991226196
542,2294157077,27.15513801574707,-84.04909515380859,35.83390045166016,9.92642879486084,0.74548256397247,1.26200664043427,7.79708385467529,-14.50540733337402,-5.03882980346680
543,2294173744,28.13693237304688,-84.14997863769531,34.82873535156250,10.07554435729980,0.50749993324280,1.43959832191467,-1.06294023990631,-8.12558078765869,-3.95905900001526
544,2294190411,27.92949295043945,-84.08593750000000,35.04534912109375,9.94772338867188,0.38009366393089,0.97624361515045,0.46608075499535,4.10907793045044,-1.87709081172943
545,2294207078,27.87506294250488,-84.05086517333984,35.05569458007812,9.80734825134277,0.82499921321869,0.99577224254608,-2.64056730270386,1.99957740306854,-2.18635153770447
546,2294223745,27.99944114685059,-84.05222320556641,34.83492660522461,9.75442695617676,0.40766999125481,1.09828245639801,-5.72527170181274,-0.62482190132141,-2.42718791961670
547,2294240412,28.31050300598145,-84.07480621337891,34.48524475097656,9.75291824340820,0.29409995675087,1.11678040027618,-2.19904255867004,-2.11402130126953,-2.53491473197937
548,2294257079,28.81380271911621,-84.11590576171875,33.98484802246094,9.69702529907227,0.31781136989594,1.06041693687439,0.34532964229584,-3.53224754333496,-2.79983997344971
549,2294273746,29.41109848022461,-84.16400146484375,33.39518356323242,9.78077411651611,0.57152640819550,1.16359889507294,0.66231244802475,-4.16500949859619,-3.02185058593750
550,2294290413,30.02841567993164,-84.22538757324219,32.71265029907227,9.78701210021973,0.43630817532539,1.17318212985992,-3.71007728576660,-5.15852737426758,-3.03331279754639
551,2294307080,30.68924331665039,-84.28769683837891,32.02061080932617,9.74459743499756,0.27672326564789,1.12209439277649,-1.64984214305878,-5.21637201309204,-2.96550250053406
552,2294323747,31.37528991699219,-84.33925628662109,31.37696075439453,9.79349517822266,0.43663549423218,1.11521434783936,2.75173878669739,-4.51558923721313,-2.95304822921753
553,2294340414,31.97272300720215,-84.39003753662109,30.75248718261719,9.82546901702881,0.50462239980698,1.25570654869080,-1.43633460998535,-4.42655324935913,-2.79554939270020
554,2294357081,32.53135681152344,-84.43888092041016,30.16776084899902,9.77611351013184,0.32393774390221,1.20103323459625,-1.39157640933990,-4.19422054290771,-2.59200525283813
555,2294373748,33.16981506347656,-84.48822021484375,29.54726982116699,9.74285030364990,0.33748006820679,1.17652070522308,1.25915253162384,-4.33457851409912,-2.67766737937927
556,2294390415,33.82626724243164,-84.53916168212891,28.92472839355469,9.76295566558838,0.41126087307930,1.19216549396515,2.21494174003601,-4.41784524917603,-2.55705690383911
557,2294407082,34.44795227050781,-84.59114837646484,28.35695648193359,9.78207588195801,0.44360458850861,1.16244256496429,3.40361428260803,-4.28377580642700,-2.19007825851440
558,2294423749,35.06796646118164,-84.64276885986328,27.77710151672363,9.81702327728271,0.50149059295654,1.05868124961853,2.56919074058533,-4.30621194839478,-2.18195867538452
559,2294440416,35.65465545654297,-84.68611145019531,27.22535324096680,9.82089805603027,0.40322533249855,0.97858524322510,2.25241279602051,-3.79706954956055,-2.27370333671570
560,2294457083,36.16241073608398,-84.71709442138672,26.75266647338867,9.80139350891113,0.47618800401688,0.92667442560196,2.23409986495972,-2.93974900245667,-2.29616570472717
561,2294473750,36.57324218750000,-84.74335479736328,26.34143638610840,9.78055095672607,0.61919152736664,1.00283634662628,0.08066079020500,-2.51833009719849,-2.15007090568542
562,2294490417,36.90546417236328,-84.76853942871094,25.96568489074707,9.78960227966309,0.40411034226418,1.03767037391663,-2.51214504241943,-2.34381842613220,-2.00955986976624
563,2294507084,37.29486465454102,-84.79335021972656,25.60099411010742,9.76164913177490,0.34887632727623,1.01746547222137,1.57509779930115,-2.28777766227722,-1.95382642745972
564,2294523751,37.68230438232422,-84.81450653076172,25.24908638000488,9.78888416290283,0.40744486451149,1.01556074619293,2.22585248947144,-2.07146549224854,-2.00666546821594
565,2294540418,38.00027084350586,-84.83097076416016,24.96573448181152,9.83526802062988,0.56286299228668,0.97145515680313,2.15389323234558,-1.62146317958832,-1.86803650856018
566,2294557085,38.27610778808594,-84.84494018554688,24.67339134216309,9.81176185607910,0.45838850736618,0.98563057184219,-0.91268289089203,-1.53218996524811,-1.98739194869995
567,2294573752,38.56476974487305,-84.85448455810547,24.40015411376953,9.74623203277588,0.35546308755875,0.96959537267685,0.98746556043625,-1.27074837684631,-2.05322909355164
568,2294590419,38.85622787475586,-84.86153411865234,24.14531326293945,9.76597690582275,0.40709412097931,0.93035852909088,2.26009678840637,-1.09390556812286,-2.06209135055542
569,2294607086,39.11259078979492,-84.86332702636719,23.90180015563965,9.81169700622559,0.60434728860855,0.94523894786835,0.83466035127640,-0.80796551704407,-2.21070909500122
570,2294623753,39.32659912109375,-84.86447143554688,23.64382743835449,9.79917430877686,0.48706343770027,0.95470988750458,-2.57830238342285,-0.83788102865219,-2.28583073616028
571,2294640420,39.54873275756836,-84.86424255371094,23.41122245788574,9.78596305847168,0.34676951169968,0.95281022787094,-0.56847393512726,-0.68282181024551,-2.23636031150818
572,2294657087,39.74203491210938,-84.86157226562500,23.22422218322754,9.81682777404785,0.49640807509422,0.98315066099167,0.42024677991867,-0.42783457040787,-2.13002920150757
573,2294673754,39.89081954956055,-84.85402679443359,23.07907867431641,9.78817653656006,0.54436653852463,0.92821055650711,0.25248360633850,-0.05647600814700,-2.14729189872742
574,2294690421,39.94079971313477,-84.84292602539062,23.00128555297852,9.81034564971924,0.56731396913528,0.93383264541626,-1.64684534072876,0.33861908316612,-2.00652432441711
575,2294707088,39.91592407226562,-84.82843017578125,22.98504829406738,9.79230976104736,0.49540457129478,0.98362731933594,-2.47171497344971,0.69860559701920,-1.87546432018280
576,2294723755,39.88924789428711,-84.81382751464844,22.97981452941895,9.73728466033936,0.48822903633118,0.99187916517258,-1.90914499759674,0.75248187780380,-1.84180939197540
577,2294740422,39.89572525024414,-84.80133819580078,22.94944763183594,9.73649692535400,0.47492632269859,0.98742073774338,-1.42917597293854,0.56264054775238,-1.86115980148315
578,2294757089,39.92536926269531,-84.79263305664062,22.89347076416016,9.75245475769043,0.49420258402824,0.98816615343094,-1.57037866115570,0.29574346542358,-1.82261252403259
579,2294773756,40.00880813598633,-84.78590393066406,22.78101348876953,9.76768302917480,0.40501996874809,1.03139936923981,-1.71113312244415,0.01273591350764,-1.98833942413330
580,2294790423,40.15565109252930,-84.78305053710938,22.62963867187500,9.78380966186523,0.44467237591743,1.07103848457336,-0.22900314629078,-0.30619981884956,-2.00040316581726
581,2294807090,40.30783081054688,-84.77967071533203,22.48168373107910,9.80608844757080,0.53325229883194,1.02717220783234,0.28950673341751,-0.27286487817764,-2.00744628906250
582,2294823757,40.47002029418945,-84.78067779541016,22.29659461975098,9.78367614746094,0.51802664995193,0.93979471921921,-1.32690453529358,-0.61028665304184,-1.98694372177124
583,2294840424,40.64867782592773,-84.78368377685547,22.10126686096191,9.75570678710938,0.49744203686714,0.95864963531494,-0.94938594102859,-0.73849105834961,-1.95102179050446
584,2294857091,40.84689331054688,-84.78677368164062,21.88537788391113,9.77649593353271,0.51326489448547,0.99125397205353,-1.01047229766846,-0.81955516338348,-2.02812886238098
585,2294873758,41.08835220336914,-84.79534149169922,21.62618255615234,9.77247524261475,0.45724919438362,1.01434576511383,-0.99384951591492,-1.21967673301697,-1.99198925495148
586,2294890425,41.37245941162109,-84.80646514892578,21.33176422119141,9.75297069549561,0.53976005315781,0.97085887193680,-0.54420578479767,-1.46719777584076,-2.02336478233337
587,2294907092,41.66994476318359,-84.82354736328125,21.01574516296387,9.75671863555908,0.49438893795013,1.00261270999908,-1.02421343326569,-1.80870497226715,-1.86810076236725
588,2294923759,42.00496673583984,-84.84436798095703,20.69167327880859,9.79722499847412,0.44825735688210,1.00608360767365,0.73852306604385,-2.00898337364197,-1.73273742198944
589,2294940426,42.32720184326172,-84.86325073242188,20.39101409912109,9.80593585968018,0.52924281358719,0.96409034729004,1.37858426570892,-1.82986080646515,-1.70684301853180
590,2294957093,42.60754013061523,-84.87883758544922,20.12554931640625,9.81130027770996,0.52977049350739,0.90738433599472,0.95030164718628,-1.56585800647736,-1.67594134807587
591,2294973760,42.87060546875000,-84.89462280273438,19.85127830505371,9.76011371612549,0.58653217554092,0.92245674133301,-0.59790289402008,-1.60090899467468,-1.69520223140717
592,2294990427,43.16228103637695,-84.91184997558594,19.54604339599609,9.75281429290771,0.48111203312874,0.93712097406387,-0.73918247222900,-1.77625346183777,-1.74709331989288
593,2295007094,43.50188827514648,-84.93136596679688,19.21898078918457,9.76441860198975,0.51354938745499,0.97956550121307,0.83592814207077,-1.95536327362061,-1.72109675407410
594,2295023761,43.84860610961914,-84.95243835449219,18.88851547241211,9.75556945800781,0.49749001860619,0.93426060676575,1.05804133415222,-2.02892255783081,-1.65834546089172
595,2295040428,44.20944976806641,-84.97453308105469,18.53326034545898,9.77601718902588,0.50323891639709,0.94911754131317,0.42186033725739,-2.16960048675537,-1.68311285972595
596,2295057095,44.58936691284180,-84.99316406250000,18.18773460388184,9.77827644348145,0.48739781975746,0.88765478134155,2.14284157752991,-1.97988724708557,-1.77575397491455
597,2295073762,44.94641494750977,-85.00891876220703,17.84004020690918,9.78997135162354,0.53166568279266,0.88282579183578,0.65986633300781,-1.85662603378296,-1.89531409740448
598,2295090429,45.24872589111328,-85.02146148681641,17.54124641418457,9.80592536926270,0.54290544986725,0.83439862728119,0.27792978286743,-1.54872310161591,-1.82705616950989
599,2295107096,45.43287658691406,-85.02563476562500,17.35249137878418,9.79892826080322,0.59438550472260,0.79470723867416,-0.24022147059441,-0.79335325956345,-1.76730167865753
600,2295123763,45.54294967651367,-85.02705383300781,17.22940635681152,9.74997711181641,0.52645939588547,0.79295212030411,-0.74865913391113,-0.43020364642143,-1.64574384689331
601,2295140430,45.63757705688477,-85.02791595458984,17.11867713928223,9.72760486602783,0.51977276802063,0.84787935018539,-0.94079279899597,-0.36056274175644,-1.62404990196228
602,2295157097,45.75490188598633,-85.02996826171875,16.99774932861328,9.78245067596436,0.44595938920975,0.86575132608414,-0.19324783980846,-0.45370337367058,-1.60688960552216
603,2295173764,45.89154052734375,-85.02980804443359,16.87790298461914,9.73226737976074,0.51281368732452,0.89726346731186,1.04049670696259,-0.35008719563484,-1.70328283309937
604,2295190431,46.02862930297852,-85.02925872802734,16.75223541259766,9.77266502380371,0.52932804822922,0.87621587514877,0.71328163146973,-0.36218917369843,-1.73523461818695
605,2295207098,46.13996887207031,-85.02587127685547,16.64847183227539,9.79483509063721,0.58461940288544,0.87792527675629,0.47563409805298,-0.16433106362820,-1.77730333805084
606,2295223765,46.22316741943359,-85.02161407470703,16.55679893493652,9.77641677856445,0.51317167282104,0.88620799779892,-0.47872695326805,-0.08027020096779,-1.77430689334869
607,2295240432,46.33257675170898,-85.01846313476562,16.44959259033203,9.78046607971191,0.50793516635895,0.89250832796097,0.14944370090961,-0.18991819024086,-1.78056943416595
608,2295257099,46.43595886230469,-85.01347351074219,16.35742950439453,9.75487518310547,0.54489880800247,0.88281857967377,0.69280427694321,-0.06184186041355,-1.80264723300934
609,2295273766,46.53926849365234,-85.00895690917969,16.23989105224609,9.76742553710938,0.50596600770950,0.87627351284027,-0.81858187913895,-0.17160509526730,-1.88083004951477
610,2295290433,46.64061737060547,-85.00127410888672,16.15072631835938,9.78027057647705,0.53519332408905,0.87415784597397,0.75218737125397,0.06159213930368,-1.91381919384003
611,2295307100,46.72208786010742,-84.99402618408203,16.06319808959961,9.77890396118164,0.55677813291550,0.88429188728333,-0.34418341517448,0.04584032669663,-1.88663125038147
612,2295323767,46.79123687744141,-84.98514556884766,15.99762630462646,9.75594139099121,0.53632360696793,0.84085547924042,0.23073835670948,0.19411221146584,-1.87970292568207
613,2295340434,46.86351394653320,-84.97956848144531,15.92368507385254,9.74387836456299,0.52138495445251,0.85937219858170,-0.08011651784182,0.03135634213686,-1.77032411098480
614,2295357101,46.94581222534180,-84.97469329833984,15.85547542572021,9.78603744506836,0.56286156177521,0.89908087253571,0.85919719934464,0.01913908869028,-1.71635818481445
615,2295373768,47.02861785888672,-84.97172546386719,15.76453781127930,9.76696014404297,0.58404833078384,0.91322606801987,-0.46133595705032,-0.14532646536827,-1.71606385707855
616,2295390435,47.14346313476562,-84.97024536132812,15.64720153808594,9.74131679534912,0.50292921066284,0.87585145235062,-0.12272323668003,-0.30995208024979,-1.74583828449249
617,2295407102,47.33415985107422,-84.97153472900391,15.47595214843750,9.71698474884033,0.50736707448959,0.90988463163376,1.20786285400391,-0.63697504997253,-1.81135571002960
618,2295423769,47.51446151733398,-84.97313690185547,15.31035900115967,9.77446937561035,0.62692874670029,0.88724738359451,0.92466336488724,-0.62395095825195,-1.78137600421906
619,2295440436,47.67081451416016,-84.97617340087891,15.14260482788086,9.79527568817139,0.54202902317047,0.86390268802643,-0.64310914278030,-0.69414240121841,-1.72135245800018
620,2295457103,47.79652023315430,-84.97508239746094,15.02448558807373,9.79670047760010,0.54633367061615,0.85369104146957,0.48681420087814,-0.33646124601364,-1.72352981567383
621,2295473770,47.87845993041992,-84.97242736816406,14.93582248687744,9.74509811401367,0.60124099254608,0.80735945701599,-0.38241043686867,-0.16018183529377,-1.69016933441162
622,2295490437,47.89524078369141,-84.96503448486328,14.90844154357910,9.79686069488525,0.55524897575378,0.81028145551682,-0.62908631563187,0.26905500888824,-1.68211388587952
623,2295507104,47.84529113769531,-84.95500183105469,14.94260978698730,9.78715610504150,0.61545336246490,0.82160687446594,-0.95005178451538,0.61923825740814,-1.58555400371552
624,2295523771,47.75817871093750,-84.94344329833984,14.99935531616211,9.77241706848145,0.54152143001556,0.86412006616592,-1.83609747886658,0.76503211259842,-1.56768929958344
625,2295540438,47.68544769287109,-84.93171691894531,15.05887889862061,9.74495124816895,0.54077589511871,0.84917932748795,-0.81226825714111,0.78045088052750,-1.55946743488312
626,2295557105,47.63568115234375,-84.92364501953125,15.09562015533447,9.74508190155029,0.52877354621887,0.88756054639816,-0.78403043746948,0.55260038375854,-1.48835408687592
627,2295573772,47.62203979492188,-84.91793060302734,15.10639762878418,9.77044296264648,0.57181543111801,0.92702883481979,-0.17543418705463,0.35058024525642,-1.47156488895416
628,2295590439,47.61629867553711,-84.91546630859375,15.10568046569824,9.79693889617920,0.55767029523849,0.91801726818085,-0.38119378685951,0.17814272642136,-1.37300705909729
629,2295607106,47.62000274658203,-84.91269683837891,15.11515617370605,9.73588085174561,0.54381722211838,0.87222516536713,0.78426724672318,0.22176113724709,-1.34109365940094
630,2295623773,47.60885238647461,-84.91030120849609,15.13114356994629,9.76591205596924,0.61684036254883,0.89381003379822,0.28894969820976,0.23773705959320,-1.30771386623383
631,2295640440,47.54637527465820,-84.90691375732422,15.18785953521729,9.78451919555664,0.55900466442108,0.89272135496140,-0.35608056187630,0.43543511629105,-1.20255470275879
632,2295657107,47.45973205566406,-84.90338134765625,15.27404308319092,9.79612541198730,0.56574493646622,0.87005126476288,-0.04501431807876,0.55893951654434,-1.10311329364777
633,2295673774,47.38329696655273,-84.89919281005859,15.35444450378418,9.73939323425293,0.55854278802872,0.85347932577133,0.22231180965900,0.56459999084473,-1.15510714054108
634,2295690441,47.29732513427734,-84.89734649658203,15.43314933776855,9.75554370880127,0.59119105339050,0.90568017959595,-0.44981026649475,0.46225157380104,-1.05613970756531
635,2295707108,47.20338821411133,-84.89669799804688,15.52084159851074,9.78108692169189,0.55658781528473,0.89428281784058,-0.39451238512993,0.44542405009270,-0.96942788362503
636,2295723775,47.14159393310547,-84.90065002441406,15.58285522460938,9.78998661041260,0.55402201414108,0.92495906352997,0.00751092378050,0.15984244644642,-0.86155998706818
637,2295740442,47.11663055419922,-84.90541839599609,15.62468242645264,9.77315139770508,0.54180079698563,0.87653142213821,1.01063239574432,0.04920839890838,-0.90382099151611
638,2295757109,47.09883880615234,-84.91114807128906,15.65305423736572,9.75408554077148,0.60030126571655,0.85241985321045,0.62489217519760,-0.05460627377033,-0.89769947528839
639,2295773776,47.05210876464844,-84.91546630859375,15.68789291381836,9.76779556274414,0.56617164611816,0.87089580297470,-0.71656638383865,0.03645326942205,-0.94550555944443
640,2295790443,47.00491714477539,-84.91828155517578,15.72953605651855,9.75501441955566,0.53506571054459,0.85524928569794,-0.33897125720978,0.12281928956509,-0.98525649309158
641,2295807110,46.94215774536133,-84.92167663574219,15.78532409667969,9.77041721343994,0.56501102447510,0.87646973133087,-0.42481219768524,0.15121097862720,-0.90846967697144
642,2295823777,46.86855697631836,-84.92518615722656,15.85276699066162,9.77202415466309,0.54484659433365,0.88853269815445,-0.38801959156990,0.18793958425522,-0.85615569353104
643,2295840444,46.80881500244141,-84.93187713623047,15.91783618927002,9.77799415588379,0.53325897455215,0.91312015056610,0.32204765081406,0.06087498366833,-0.74018138647079
644,2295857111,46.79799652099609,-84.93825531005859,15.94249343872070,9.75239562988281,0.51086199283600,0.91736149787903,0.82134175300598,-0.09732826799154,-0.88960593938828
645,2295873778,46.82902908325195,-84.94538116455078,15.93160057067871,9.74954223632812,0.53874224424362,0.89760351181030,1.21404826641083,-0.26571896672249,-0.98496192693710
646,2295890445,46.87829971313477,-84.95310211181641,15.89509487152100,9.73134708404541,0.58776295185089,0.86873888969421,0.78260231018066,-0.38415205478668,-1.05683100223541
647,2295907112,46.89730834960938,-84.96168518066406,15.87952041625977,9.76413536071777,0.53343105316162,0.86731773614883,0.22041650116444,-0.33670455217361,-0.94610756635666
648,2295923779,46.93807983398438,-84.96713256835938,15.86494159698486,9.79073810577393,0.52496457099915,0.87533235549927,1.57070517539978,-0.21428863704205,-1.06843376159668
649,2295940446,46.93769454956055,-84.96919250488281,15.87909698486328,9.77100372314453,0.56084340810776,0.82597678899765,0.82514512538910,0.03861755132675,-1.11639356613159
650,2295957113,46.89269638061523,-84.96892547607422,15.91802883148193,9.76299762725830,0.57407104969025,0.81390959024429,-0.36463516950607,0.23182694613934,-1.13434815406799
651,2295973780,46.80047607421875,-84.96222686767578,15.99250221252441,9.76301670074463,0.53737568855286,0.81274688243866,-1.07747519016266,0.63303714990616,-1.28593683242798
652,2295990447,46.67472076416016,-84.95442199707031,16.10376167297363,9.76817035675049,0.56635749340057,0.85644406080246,-0.89655977487564,0.81651365756989,-1.19686865806580
653,2296007114,46.55546188354492,-84.94875335693359,16.22096443176270,9.74872970581055,0.53924864530563,0.90350252389908,-0.15060268342495,0.74803817272186,-1.07657873630524
654,2296023781,46.46826171875000,-84.94832611083984,16.31957626342773,9.74837303161621,0.53337544202805,0.91675376892090,0.67123842239380,0.46622157096863,-0.92122477293015
655,2296040448,46.43395614624023,-84.95127868652344,16.37052154541016,9.75925254821777,0.55231374502182,0.93953692913055,0.98714536428452,0.13960842788219,-0.94496780633926
656,2296057115,46.39229583740234,-84.95655822753906,16.42822647094727,9.79508304595947,0.55714243650436,0.89460200071335,0.96038651466370,0.07773454487324,-0.82852602005005
657,2296073782,46.30821609497070,-84.95799255371094,16.52532958984375,9.79760932922363,0.55953711271286,0.86412250995636,0.76795846223831,0.37900391221046,-0.84416902065277
658,2296090449,46.19820022583008,-84.95619964599609,16.63385772705078,9.77440929412842,0.53157603740692,0.84896373748779,-0.11670425534248,0.55075627565384,-0.93679726123810
659,2296107116,46.04571914672852,-84.95267486572266,16.78763961791992,9.75166130065918,0.55075103044510,0.85921591520309,0.04520000889897,0.79876405000687,-0.84883040189743
660,2296123783,45.84833526611328,-84.94495391845703,16.98938751220703,9.78182792663574,0.53404307365417,0.82579326629639,0.22149221599102,1.15853273868561,-0.85367125272751
661,2296140450,45.61227416992188,-84.93585205078125,17.21473121643066,9.80143260955811,0.60696631669998,0.86066925525665,-0.69555133581161,1.29789161682129,-0.81287032365799
662,2296157117,45.30560684204102,-84.92221832275391,17.50340843200684,9.78092193603516,0.53990727663040,0.84406596422195,-1.13986766338348,1.73586881160736,-0.76908540725708
663,2296173784,44.98846054077148,-84.90749359130859,17.80085372924805,9.76501369476318,0.53262978792191,0.85261064767838,-1.25385701656342,1.80877518653870,-0.76415491104126
664,2296190451,44.66974639892578,-84.89201354980469,18.10461235046387,9.73769378662109,0.56149888038635,0.90353137254715,-0.96471512317657,1.86636543273926,-0.76228517293930
665,2296207118,44.32184219360352,-84.87677764892578,18.41870689392090,9.77793121337891,0.53375720977783,0.86313897371292,-2.10825824737549,1.89158117771149,-0.69497507810593
666,2296223785,43.96873092651367,-84.85936737060547,18.74349021911621,9.78096389770508,0.51325613260269,0.92286640405655,-1.78005719184875,2.02452373504639,-0.72796416282654
667,2296240452,43.64207839965820,-84.84383392333984,19.03966522216797,9.74600982666016,0.54332280158997,0.96565163135529,-1.89358520507812,1.84596467018127,-0.75640708208084
668,2296257119,43.37187957763672,-84.83369445800781,19.28258132934570,9.77508831024170,0.44974154233932,0.99467253684998,-1.68742883205414,1.41010093688965,-0.72792583703995
669,2296273786,43.14127349853516,-84.82479858398438,19.52555274963379,9.80813026428223,0.47418132424355,0.93890035152435,0.68308430910110,1.35312533378601,-0.66806888580322
670,2296290453,42.93066787719727,-84.81295776367188,19.71749877929688,9.78619384765625,0.59259539842606,0.92231965065002,-1.16581308841705,1.28790235519409,-0.97992908954620
671,2296307120,42.68391036987305,-84.79956817626953,19.92683410644531,9.76640033721924,0.55345010757446,0.90419292449951,-2.29461598396301,1.42430293560028,-0.96968400478363
672,2296323787,42.41668319702148,-84.78391265869141,20.14594650268555,9.77297782897949,0.48625865578651,0.94100594520569,-2.93666219711304,1.56175351142883,-1.01560747623444
673,2296340454,42.21182632446289,-84.77123260498047,20.33114433288574,9.75640583038330,0.46422386169434,0.98379385471344,-1.22705304622650,1.30268096923828,-1.02256143093109
674,2296357121,42.04264068603516,-84.76090240478516,20.50646209716797,9.77659130096436,0.47979193925858,0.98803579807281,0.32062619924545,1.15691936016083,-0.95715945959091
675,2296373788,41.89666748046875,-84.75204467773438,20.65368652343750,9.76034259796143,0.53685021400452,0.99214172363281,0.04631416499615,0.99760818481445,-1.01847624778748
