sep=,
DeviceTag:,Xsens_DOT_2
FirmwareVersion:,3.0.0
AppVersion:,2023.6.0
StartTime: ,2025-04-09_11:00:30_000 CEST
© Movella Technologies B. V. 2005-2025

PacketCounter,SampleTimeFine,Euler_X,Euler_Y,Euler_Z,Acc_X,Acc_Y,Acc_Z,Gyr_X,Gyr_Y,Gyr_Z
0,2285106896,94.04547119140625,-85.38234710693359,-57.10671234130859,0.00000000000000,0.00000000000000,0.00000000000000,0.00000000000000,0.00000000000000,0.00000000000000
1,2285123563,93.60348510742188,-85.38081359863281,-56.59765243530273,9.79553413391113,0.39973145723343,0.52282160520554,4.49858951568604,0.97656112909317,0.20144391059875
2,2285140230,93.25849914550781,-85.38255310058594,-56.18630599975586,9.81907176971436,0.41963717341423,0.52662122249603,4.56840944290161,0.52894073724747,0.44374009966850
3,2285156897,92.92031860351562,-85.38697052001953,-55.78071212768555,9.80370330810547,0.44990557432175,0.52225899696350,4.54060745239258,0.50416046380997,0.63253134489059
4,2285173564,92.52027130126953,-85.39385223388672,-55.31229782104492,9.79071331024170,0.45765373110771,0.47713270783424,4.67864656448364,0.81600791215897,0.76182425022125
5,2285190231,91.96471405029297,-85.40628814697266,-54.67437744140625,9.84455013275146,0.46840965747833,0.45449560880661,5.44739866256714,1.63446164131165,1.09715843200684
6,2285206898,91.20822906494141,-85.42259979248047,-53.85017013549805,9.85661411285400,0.48895353078842,0.53444457054138,4.61227130889893,2.52173709869385,1.33266735076904
7,2285223565,90.44142913818359,-85.43881225585938,-53.01491165161133,9.82699775695801,0.46554955840111,0.50559806823730,4.58120298385620,2.54183006286621,1.36862766742706
8,2285240232,90.27102661132812,-85.46308898925781,-52.69654464721680,9.74838447570801,0.48115032911301,0.34020736813545,9.40382003784180,0.06654181331396,1.93299067020416
9,2285256899,89.89218902587891,-85.49341583251953,-52.16244125366211,9.92298984527588,0.40990605950356,0.46034029126167,9.90557384490967,1.07634842395782,2.27823781967163
10,2285273566,88.47335052490234,-85.51729583740234,-50.63933181762695,9.99568653106689,0.38094282150269,0.68623411655426,6.65414285659790,5.67621183395386,2.00872802734375
11,2285290233,86.93942260742188,-85.52355194091797,-49.05279541015625,9.81460380554199,0.36537426710129,0.68309593200684,3.58723878860474,5.95266151428223,1.15542769432068
12,2285306900,85.93760681152344,-85.52171325683594,-48.03481674194336,9.76329326629639,0.37750393152237,0.62797075510025,1.60066580772400,3.31938052177429,0.65368735790253
13,2285323567,85.32114410400391,-85.51720428466797,-47.41074371337891,9.83012580871582,0.37847059965134,0.60527938604355,1.01035690307617,1.48700928688049,0.41863957047462
14,2285340234,84.66208648681641,-85.51258087158203,-46.74520874023438,9.80500698089600,0.40463379025459,0.59658968448639,1.02838826179504,1.69182121753693,0.47255426645279
15,2285356901,84.04005432128906,-85.50730133056641,-46.13499832153320,9.74522113800049,0.40399107336998,0.65206420421600,-0.15036576986313,1.43505394458771,0.42239186167717
16,2285373568,83.81397247314453,-85.50046539306641,-45.94502639770508,9.74932003021240,0.40274131298065,0.59292280673981,-1.47710347175598,-0.50512725114822,0.15934939682484
17,2285390235,83.57682800292969,-85.49576568603516,-45.75062942504883,9.77366256713867,0.37526425719261,0.65114885568619,-2.04835653305054,-0.50822645425797,0.29143410921097
18,2285406902,83.49150085449219,-85.49533081054688,-45.69568634033203,9.75847053527832,0.35408204793930,0.67991447448730,-1.15452444553375,-1.17502760887146,0.46602311730385
19,2285423569,83.37986755371094,-85.49715423583984,-45.60456848144531,9.77502059936523,0.35059437155724,0.64387035369873,-0.53869271278381,-1.01811122894287,0.62713974714279
20,2285440236,83.09503936767578,-85.49937438964844,-45.33560562133789,9.77110195159912,0.33909100294113,0.66071522235870,-0.49467724561691,-0.20647037029266,0.74886405467987
21,2285456903,82.89428710937500,-85.50107574462891,-45.13282012939453,9.80397891998291,0.32710939645767,0.68658775091171,0.60757166147232,-0.51137673854828,0.69153010845184
22,2285473570,82.75470733642578,-85.49459075927734,-44.97405624389648,9.80839443206787,0.33637773990631,0.66833597421646,1.89095962047577,-0.63411271572113,0.17439684271812
23,2285490237,82.58800506591797,-85.48368835449219,-44.78177642822266,9.78745841979980,0.30330395698547,0.71880650520325,2.08228683471680,-0.45487517118454,-0.07028765976429
24,2285506904,82.41393280029297,-85.47554016113281,-44.58153152465820,9.77022838592529,0.29158267378807,0.71967852115631,2.19678854942322,-0.42828917503357,0.10129822790623
25,2285523571,82.25611877441406,-85.47168731689453,-44.39211273193359,9.79735088348389,0.37051838636398,0.73601615428925,2.46209764480591,-0.51634562015533,0.36113905906677
26,2285540238,82.15425872802734,-85.47122192382812,-44.25566482543945,9.77497959136963,0.40428292751312,0.76823276281357,2.71789169311523,-0.78513807058334,0.52694284915924
27,2285556905,82.01636505126953,-85.47459411621094,-44.08241271972656,9.77788734436035,0.39098638296127,0.79491144418716,2.83581256866455,-0.63589292764664,0.78070068359375
28,2285573572,81.89098358154297,-85.48074340820312,-43.92856216430664,9.77819919586182,0.42432439327240,0.77699357271194,2.36502552032471,-0.75673365592957,0.94061362743378
29,2285590239,81.82019805908203,-85.48533630371094,-43.84025955200195,9.76831722259521,0.43212488293648,0.78104090690613,1.74489080905914,-1.04958927631378,0.80411076545715
30,2285606906,81.71042633056641,-85.48520660400391,-43.71461868286133,9.74590778350830,0.42899191379547,0.77915471792221,1.63182353973389,-0.83286732435226,0.54177260398865
31,2285623573,81.67829132080078,-85.48269653320312,-43.67008590698242,9.77863311767578,0.40041565895081,0.82490628957748,1.39071834087372,-1.19449305534363,0.35820642113686
32,2285640240,81.73893737792969,-85.48286437988281,-43.71374893188477,9.83604335784912,0.43000614643097,0.77418768405914,1.66422367095947,-1.62856423854828,0.44814541935921
33,2285656907,81.65126800537109,-85.48559570312500,-43.61098861694336,9.88458538055420,0.42938548326492,0.69775247573853,1.59068942070007,-0.96338963508606,0.69948279857635
34,2285673574,81.32820892333984,-85.48221588134766,-43.26876449584961,9.84096240997314,0.41920664906502,0.73987925052643,1.69600903987885,0.20017606019974,0.51390612125397
35,2285690241,80.91397857666016,-85.47861480712891,-42.83687973022461,9.74987220764160,0.40625813603401,0.77916479110718,1.61613583564758,0.62445044517517,0.56190425157547
36,2285706908,80.56799316406250,-85.48078918457031,-42.47570419311523,9.80169296264648,0.42765882611275,0.79086536169052,1.39441943168640,0.23344695568085,0.86911582946777
37,2285723575,80.27193450927734,-85.48664093017578,-42.16391372680664,9.82522773742676,0.43154323101044,0.79232013225555,1.49644756317139,-0.03313643112779,1.06710183620453
38,2285740242,79.91120147705078,-85.49393463134766,-41.78162002563477,9.80413722991943,0.41293567419052,0.77487558126450,1.94646286964417,0.28478762507439,1.21267175674438
39,2285756909,79.51428222656250,-85.49945831298828,-41.36043167114258,9.79452037811279,0.39279678463936,0.79864269495010,1.97946465015411,0.46677866578102,1.15122675895691
40,2285773576,79.21009826660156,-85.50238037109375,-41.03356170654297,9.82213497161865,0.38726025819778,0.81287407875061,1.66801393032074,0.03670299053192,0.92837041616440
41,2285790243,78.98710632324219,-85.50202941894531,-40.80179977416992,9.79375076293945,0.40004077553749,0.79385197162628,1.13176107406616,-0.34328061342239,0.65717065334320
42,2285806910,78.78041076660156,-85.49990081787109,-40.58728027343750,9.78463935852051,0.35924220085144,0.75945943593979,0.99623167514801,-0.40829846262932,0.53531825542450
43,2285823577,78.55821228027344,-85.49350738525391,-40.35728836059570,9.83208179473877,0.34168788790703,0.78379642963409,1.51213526725769,-0.24547849595547,0.31661137938499
44,2285840244,78.40045928955078,-85.49080657958984,-40.17980957031250,9.80515480041504,0.37837630510330,0.77393764257431,1.81567132472992,-0.56211555004120,0.48414403200150
45,2285856911,78.38052368164062,-85.49507141113281,-40.14406204223633,9.86165714263916,0.40882542729378,0.76386648416519,1.48457622528076,-1.30562674999237,0.75068265199661
46,2285873578,78.28810882568359,-85.49680328369141,-40.04643249511719,9.85000038146973,0.38861101865768,0.76642447710037,1.19284749031067,-0.96496486663818,0.67347311973572
47,2285890245,78.18309020996094,-85.49693298339844,-39.93467330932617,9.80292224884033,0.38879290223122,0.77570384740829,0.97165608406067,-0.90198314189911,0.58787548542023
48,2285906912,78.09317016601562,-85.50054931640625,-39.84471130371094,9.79124450683594,0.43214339017868,0.72396612167358,0.64049035310745,-1.04068243503571,0.78018200397491
49,2285923579,77.94832611083984,-85.50455474853516,-39.69752502441406,9.80539417266846,0.42807340621948,0.71908652782440,0.58696621656418,-0.79542165994644,0.84833103418350
50,2285940246,77.76769256591797,-85.50569152832031,-39.51929855346680,9.80896472930908,0.41918075084686,0.69995176792145,0.38886478543282,-0.61053627729416,0.71944785118103
51,2285956913,77.53121948242188,-85.50373077392578,-39.29307937622070,9.82417011260986,0.40425801277161,0.73981368541718,0.06583745032549,-0.33742809295654,0.58647966384888
52,2285973580,77.35541534423828,-85.49985504150391,-39.13594055175781,9.82679080963135,0.39717385172844,0.73711681365967,-0.35178399085999,-0.62186992168427,0.40428361296654
53,2285990247,77.22837066650391,-85.49942016601562,-39.02919387817383,9.81283092498779,0.38169458508492,0.74506425857544,-0.15392592549324,-0.87525635957718,0.56483685970306
54,2286006914,77.06262969970703,-85.50107574462891,-38.87460327148438,9.81219768524170,0.38569974899292,0.70614957809448,0.08230641484261,-0.70546972751617,0.73321473598480
55,2286023581,76.83860778808594,-85.50246429443359,-38.66629028320312,9.78644943237305,0.40395903587341,0.73798245191574,-0.00968800298870,-0.44342625141144,0.78593844175339
56,2286040248,76.72372436523438,-85.50874328613281,-38.56691741943359,9.79578018188477,0.41201168298721,0.73414206504822,-0.13967245817184,-1.01913571357727,0.94697839021683
57,2286056915,76.66859436035156,-85.51716613769531,-38.52373886108398,9.77315902709961,0.39741173386574,0.71626257896423,-0.09880098700523,-1.31960475444794,1.01306545734406
58,2286073582,76.60484313964844,-85.52018737792969,-38.46171569824219,9.77534675598145,0.38276970386505,0.70662534236908,0.22964347898960,-1.17917656898499,0.71184092760086
59,2286090249,76.52473449707031,-85.51817321777344,-38.39299774169922,9.77888679504395,0.39115318655968,0.70504111051559,0.04010948538780,-1.04838538169861,0.43754172325134
60,2286106916,76.44661712646484,-85.51306152343750,-38.32499313354492,9.80700206756592,0.36879158020020,0.68696248531342,0.12822997570038,-1.00335824489594,0.24265469610691
61,2286123583,76.37109375000000,-85.50538635253906,-38.24253082275391,9.82044029235840,0.38218986988068,0.72600257396698,0.57430070638657,-0.94499969482422,0.10791910439730
62,2286140250,76.32633972167969,-85.50124359130859,-38.19611740112305,9.82053565979004,0.40954566001892,0.74895328283310,0.71464562416077,-1.12098467350006,0.27542617917061
63,2286156917,76.33322143554688,-85.50180816650391,-38.19998168945312,9.80703735351562,0.40423488616943,0.69761931896210,0.84222245216370,-1.41695237159729,0.51183140277863
64,2286173584,76.26227569580078,-85.50003051757812,-38.11685943603516,9.81003093719482,0.42664036154747,0.72868990898132,1.25454843044281,-0.99307483434677,0.45597004890442
65,2286190251,76.30550384521484,-85.50072479248047,-38.15110778808594,9.84723758697510,0.41317912936211,0.77371382713318,1.07299280166626,-1.56477570533752,0.48418244719505
66,2286206918,76.46723175048828,-85.50778198242188,-38.30135726928711,9.84866523742676,0.41798254847527,0.78773498535156,1.36931884288788,-2.17115640640259,0.72003704309464
67,2286223585,76.66092681884766,-85.52201843261719,-38.49275970458984,9.78782272338867,0.43907272815704,0.72026598453522,0.91285586357117,-2.44892001152039,1.09630680084229
68,2286240252,76.81546783447266,-85.54438781738281,-38.63093566894531,9.87316036224365,0.44088768959045,0.54596614837646,1.90490627288818,-2.30060315132141,1.63656198978424
69,2286256919,76.54654693603516,-85.56562042236328,-38.33135986328125,9.89195537567139,0.49380892515182,0.63809978961945,2.30674386024475,-0.33727446198463,2.04563522338867
70,2286273586,76.14053344726562,-85.58865356445312,-37.92845916748047,9.86722469329834,0.47018378973007,0.71178251504898,0.32365489006042,0.09156540781260,2.26581478118896
71,2286290253,75.72504425048828,-85.61161804199219,-37.52581405639648,9.74923992156982,0.42035645246506,0.66892665624619,-0.24583710730076,0.07473786175251,2.25030612945557
72,2286306920,75.09436798095703,-85.63156890869141,-36.89820861816406,9.70196342468262,0.47869271039963,0.69805723428726,0.00024332063913,1.06579566001892,2.35653471946716
73,2286323587,74.32900238037109,-85.65422821044922,-36.15548324584961,9.72524738311768,0.40361246466637,0.68137603998184,-0.82377481460571,1.51702725887299,2.69307279586792
74,2286340254,73.55033874511719,-85.67718505859375,-35.41539764404297,9.76900768280029,0.36717504262924,0.72285395860672,-1.72325444221497,1.46294605731964,2.72321891784668
75,2286356921,72.90673828125000,-85.70071411132812,-34.81943130493164,9.74420547485352,0.30889093875885,0.74912458658218,-2.28623437881470,0.78137952089310,2.61619663238525
76,2286373588,72.30861663818359,-85.72689819335938,-34.27092742919922,9.76720046997070,0.25900766253471,0.72542846202850,-1.96050488948822,0.52806979417801,2.71851897239685
77,2286390255,71.80647277832031,-85.74983215332031,-33.81512451171875,9.76573753356934,0.25102993845940,0.79539078474045,-2.07902765274048,0.13839821517467,2.41931152343750
78,2286406922,71.60253906250000,-85.77738189697266,-33.64297866821289,9.79452514648438,0.28618878126144,0.76577717065811,-1.20229220390320,-1.16479504108429,2.29273366928101
79,2286423589,71.51418304443359,-85.80334472656250,-33.58235549926758,9.82653141021729,0.29176026582718,0.73229217529297,-0.36428302526474,-1.56809282302856,2.06301331520081
80,2286440256,71.48616790771484,-85.82556915283203,-33.56714248657227,9.83905315399170,0.25872409343719,0.72134310007095,-0.20448540151119,-1.73448562622070,1.75837576389313
81,2286456923,71.42355346679688,-85.84140777587891,-33.51275253295898,9.83231067657471,0.21808788180351,0.76852434873581,0.30052658915520,-1.43773674964905,1.46115326881409
82,2286473590,71.42510986328125,-85.85816192626953,-33.51926040649414,9.85760402679443,0.25325635075569,0.77015423774719,0.38622674345970,-1.71461021900177,1.42985451221466
83,2286490257,71.41614532470703,-85.87474060058594,-33.51395416259766,9.85243606567383,0.24645212292671,0.77309399843216,0.22751763463020,-1.67220830917358,1.41181051731110
84,2286506924,71.38382720947266,-85.88877105712891,-33.48656845092773,9.82145023345947,0.24146161973476,0.75979644060135,0.30586683750153,-1.52620303630829,1.31594192981720
85,2286523591,71.41096496582031,-85.89601898193359,-33.51478958129883,9.83148574829102,0.29772466421127,0.75233030319214,0.10215624421835,-1.65267860889435,0.84797245264053
86,2286540258,71.47094726562500,-85.89974212646484,-33.59162521362305,9.86308670043945,0.31302276253700,0.76103764772415,0.10401318222284,-1.71478950977325,0.59151256084442
87,2286556925,71.38249206542969,-85.89874267578125,-33.51443481445312,9.85251140594482,0.32064113020897,0.74226158857346,-0.48692947626114,-1.05772125720978,0.50774616003036
88,2286573592,71.35626983642578,-85.90370941162109,-33.50549697875977,9.86043643951416,0.31546860933304,0.78464454412460,-1.13377797603607,-1.46629476547241,0.74134671688080
89,2286590259,71.41551971435547,-85.91822052001953,-33.60208511352539,9.85986995697021,0.27262014150620,0.75825262069702,-1.61158311367035,-2.03049159049988,1.16599273681641
90,2286606926,71.39234924316406,-85.93057250976562,-33.60996246337891,9.81712627410889,0.20997720956802,0.71646541357040,-1.16804790496826,-1.62502992153168,1.17704451084137
91,2286623593,71.36198425292969,-85.93740844726562,-33.59468078613281,9.79996299743652,0.18737289309502,0.71507680416107,-0.09569544345140,-1.41740036010742,0.89153957366943
92,2286640260,71.37477111816406,-85.93794250488281,-33.59307098388672,9.79045486450195,0.20832431316376,0.72349095344543,0.94345659017563,-1.39721775054932,0.49372321367264
93,2286656927,71.51762390136719,-85.93495178222656,-33.71979141235352,9.78196907043457,0.24942517280579,0.72171276807785,1.46056437492371,-1.81814968585968,0.12821717560291
94,2286673594,71.69045257568359,-85.93302154541016,-33.87578201293945,9.80485725402832,0.26584455370903,0.67516529560089,1.69734060764313,-1.94311368465424,0.15527698397636
95,2286690261,71.82220458984375,-85.93649291992188,-33.99158096313477,9.82825565338135,0.27318114042282,0.66839802265167,1.97059023380280,-1.85961651802063,0.52544456720352
96,2286706928,72.03784942626953,-85.94696044921875,-34.18860244750977,9.79634571075439,0.26317214965820,0.68570315837860,1.79639804363251,-2.34018754959106,0.82147622108459
97,2286723595,72.31523132324219,-85.95881652832031,-34.45187759399414,9.79437923431396,0.28266647458076,0.64798200130463,1.69728946685791,-2.61332130432129,0.81256288290024
98,2286740262,72.60793304443359,-85.96896362304688,-34.72329330444336,9.80026817321777,0.27433118224144,0.64354395866394,1.94455444812775,-2.62364339828491,0.71490168571472
99,2286756929,72.85766601562500,-85.97683715820312,-34.94686889648438,9.80477619171143,0.30201357603073,0.67340773344040,2.51821470260620,-2.36681199073792,0.65631258487701
100,2286773596,73.10359191894531,-85.98546600341797,-35.16162490844727,9.81550788879395,0.34416219592094,0.70221620798111,2.28615117073059,-2.37690353393555,0.70350408554077
101,2286790263,73.44281005859375,-85.99904632568359,-35.48102951049805,9.80183887481689,0.33705747127533,0.67123681306839,1.81979501247406,-2.86186671257019,0.86985850334167
102,2286806930,73.75343322753906,-86.01139831542969,-35.76187896728516,9.79699611663818,0.29355314373970,0.64059031009674,1.89851558208466,-2.71468377113342,0.84821575880051
103,2286823597,73.96083068847656,-86.01882171630859,-35.94721984863281,9.82898235321045,0.26255366206169,0.65312403440475,2.05098795890808,-2.20568251609802,0.70273560285568
104,2286840264,74.22332763671875,-86.02542114257812,-36.18835449218750,9.84860992431641,0.27259492874146,0.70717608928680,2.27600860595703,-2.39124655723572,0.58860546350479
105,2286856931,74.55358886718750,-86.03701019287109,-36.49029159545898,9.84188365936279,0.30442464351654,0.61042588949203,2.65060734748840,-2.71609234809875,0.82159137725830
106,2286873598,74.72025299072266,-86.04502105712891,-36.62993240356445,9.85421276092529,0.30778425931931,0.60119837522507,2.26523852348328,-2.02448558807373,0.78269857168198
107,2286890265,74.86612701416016,-86.04710388183594,-36.74605178833008,9.80898761749268,0.28910702466965,0.63834118843079,2.53146958351135,-1.82751083374023,0.47484660148621
108,2286906932,75.01090240478516,-86.04993438720703,-36.86673355102539,9.76768207550049,0.28752738237381,0.66513669490814,2.21100330352783,-1.85257291793823,0.50855296850204
109,2286923599,75.30986785888672,-86.05990600585938,-37.14073562622070,9.76200008392334,0.33885139226913,0.68670129776001,2.34361338615417,-2.56912684440613,0.77153140306473
110,2286940266,75.80452728271484,-86.07519531250000,-37.61554718017578,9.75195980072021,0.33097243309021,0.66048324108124,2.37510418891907,-3.42076158523560,0.89484375715256
111,2286956933,76.32324218750000,-86.08593750000000,-38.11168289184570,9.78141403198242,0.29499936103821,0.63981473445892,2.23861384391785,-3.44602847099304,0.61877715587616
112,2286973600,76.74296569824219,-86.08934783935547,-38.51190567016602,9.83566284179688,0.27680215239525,0.63594520092010,1.98317873477936,-2.96328091621399,0.31072050333023
113,2286990267,77.14624023437500,-86.09314727783203,-38.89662933349609,9.83229160308838,0.29195949435234,0.61479729413986,1.86758852005005,-2.90850782394409,0.35389068722725
114,2287006934,77.59293365478516,-86.10128021240234,-39.32873535156250,9.84804153442383,0.29496821761131,0.56935614347458,1.66123354434967,-3.14771151542664,0.56503540277481
115,2287023601,77.88442230224609,-86.11022186279297,-39.59806060791016,9.86471939086914,0.27991473674774,0.59462785720825,1.94995868206024,-2.51769638061523,0.77787047624588
116,2287040268,77.98193359375000,-86.11909484863281,-39.66242599487305,9.85295677185059,0.28196838498116,0.56062138080597,2.51802301406860,-1.70355820655823,0.94194543361664
117,2287056935,77.98623657226562,-86.12500762939453,-39.63564300537109,9.81891059875488,0.30263772606850,0.59572374820709,2.63137221336365,-1.28982365131378,0.86561965942383
118,2287073602,78.10427856445312,-86.12308502197266,-39.72387695312500,9.81667518615723,0.29474416375160,0.59114176034927,2.13321781158447,-1.67027461528778,0.27880704402924
119,2287090269,78.14799499511719,-86.11743164062500,-39.74599075317383,9.80629158020020,0.29742541909218,0.52272510528564,2.13332009315491,-1.33143138885498,0.12988200783730
120,2287106936,78.03432464599609,-86.11431121826172,-39.60794448852539,9.84662723541260,0.23688793182373,0.57450360059738,2.15998291969299,-0.73359251022339,0.41198030114174
121,2287123603,77.84115600585938,-86.11717987060547,-39.37977218627930,9.81611728668213,0.33178675174713,0.58324438333511,2.38164806365967,-0.47797781229019,0.83864951133728
122,2287140270,77.59428405761719,-86.12247467041016,-39.10638046264648,9.80721759796143,0.35316786170006,0.60595148801804,1.96747803688049,-0.32553100585938,1.02613449096680
123,2287156937,77.42736816406250,-86.12788391113281,-38.92181015014648,9.79914379119873,0.33933112025261,0.57163441181183,1.69020760059357,-0.66427171230316,0.97024738788605
124,2287173604,77.29640960693359,-86.12910461425781,-38.77598953247070,9.82077503204346,0.36323943734169,0.60553753376007,1.61266505718231,-0.75632381439209,0.68642032146454
125,2287190271,77.25324249267578,-86.12672424316406,-38.71313476562500,9.79802608489990,0.31886297464371,0.58528470993042,1.59809124469757,-1.05501902103424,0.39957085251808
126,2287206938,77.20204925537109,-86.12329101562500,-38.65810775756836,9.80898952484131,0.32679331302643,0.59378415346146,1.06174886226654,-1.04337823390961,0.33624351024628
127,2287223605,77.13985443115234,-86.12122344970703,-38.60357284545898,9.78565597534180,0.28450345993042,0.57334762811661,0.52786493301392,-1.05151021480560,0.41546359658241
128,2287240272,77.02386474609375,-86.12394714355469,-38.48399353027344,9.80578136444092,0.24919053912163,0.58614587783813,0.91899639368057,-0.87729269266129,0.75753396749496
129,2287256939,76.88729858398438,-86.12697601318359,-38.33175659179688,9.83240890502930,0.25320079922676,0.59488058090210,1.35428440570831,-0.76855391263962,0.78935790061951
130,2287273606,76.75901794433594,-86.12920379638672,-38.19522094726562,9.80904674530029,0.25455257296562,0.59284311532974,1.15004861354828,-0.80758762359619,0.74681508541107
131,2287290273,76.62809753417969,-86.13153076171875,-38.05516815185547,9.83049583435059,0.28898048400879,0.61026144027710,1.23431432247162,-0.79209196567535,0.75401228666306
132,2287306940,76.56035614013672,-86.13983917236328,-37.97526168823242,9.80066299438477,0.30872824788094,0.60870552062988,1.16727316379547,-1.12651693820953,1.03869736194611
133,2287323607,76.49829101562500,-86.15111541748047,-37.90558624267578,9.80480003356934,0.32498642802238,0.61161154508591,1.05834221839905,-1.19772017002106,1.20836853981018
134,2287340274,76.46867370605469,-86.15916442871094,-37.87131118774414,9.77848529815674,0.33081588149071,0.59520328044891,0.90756034851074,-1.29147541522980,0.99382388591766
135,2287356941,76.49772644042969,-86.16416168212891,-37.88979721069336,9.76924800872803,0.34367316961288,0.58056592941284,0.64952528476715,-1.49066555500031,0.74454838037491
136,2287373608,76.46578216552734,-86.16671752929688,-37.84961700439453,9.78447055816650,0.33341392874718,0.56271731853485,0.57309061288834,-1.22538840770721,0.67770564556122
137,2287390275,76.33949279785156,-86.16921997070312,-37.72320938110352,9.81492137908936,0.31368955969810,0.58752906322479,0.30203777551651,-0.87068456411362,0.73655712604523
138,2287406942,76.22896575927734,-86.17147064208984,-37.62947463989258,9.82155895233154,0.30230602622032,0.57738935947418,-0.32669639587402,-0.96976733207703,0.70103245973587
139,2287423609,76.12793731689453,-86.17541503906250,-37.54259490966797,9.81858921051025,0.29273343086243,0.56670725345612,-0.53324997425079,-1.04582405090332,0.79617071151733
140,2287440276,76.06649780273438,-86.17838287353516,-37.52464294433594,9.83415031433105,0.27632522583008,0.57773625850677,-0.64402496814728,-1.19303321838379,0.70765328407288
141,2287456943,75.95758056640625,-86.17956542968750,-37.43932723999023,9.87546062469482,0.28177222609520,0.62164527177811,-0.78831410408020,-0.98608255386353,0.62405341863632
142,2287473610,75.81916046142578,-86.17977142333984,-37.32624816894531,9.85914897918701,0.27177619934082,0.57799524068832,-0.79575461149216,-0.86433267593384,0.62564146518707
143,2287490277,75.56056976318359,-86.17919921875000,-37.09173965454102,9.83056545257568,0.29461801052094,0.53334385156631,-0.90626043081284,-0.39235454797745,0.69240081310272
144,2287506944,75.19122314453125,-86.17868804931641,-36.75789642333984,9.78457260131836,0.28277572989464,0.56940710544586,-1.42676186561584,0.00559637509286,0.78304427862167
145,2287523611,74.94362640380859,-86.18099975585938,-36.54270172119141,9.77533531188965,0.24140216410160,0.56513929367065,-1.32133996486664,-0.50325757265091,0.83557587862015
146,2287540278,74.64063262939453,-86.18151092529297,-36.27732467651367,9.79263210296631,0.25740897655487,0.58486825227737,-0.82424873113632,-0.23354300856590,0.81813371181488
147,2287556945,74.34382629394531,-86.18269348144531,-35.99343872070312,9.77192974090576,0.30576938390732,0.59480500221252,-0.32362291216850,-0.23528467118740,0.85638624429703
148,2287573612,74.14646148681641,-86.18535614013672,-35.81129837036133,9.74583244323730,0.29820355772972,0.64737939834595,-0.14543528854847,-0.62997633218765,0.83757364749908
149,2287590279,73.97579193115234,-86.18879699707031,-35.65834808349609,9.78299045562744,0.30355626344681,0.64109289646149,-0.26523870229721,-0.75610613822937,0.86398035287857
150,2287606946,73.77252197265625,-86.19404602050781,-35.46766281127930,9.79577350616455,0.24964810907841,0.60945951938629,-0.06448636949062,-0.64431947469711,0.98831707239151
151,2287623613,73.58087158203125,-86.19893646240234,-35.28385543823242,9.82830524444580,0.25596225261688,0.61731106042862,0.15321518480778,-0.67415827512741,0.97625356912613
152,2287640280,73.27309417724609,-86.20306396484375,-34.97223663330078,9.85561847686768,0.28049114346504,0.55568790435791,0.96252518892288,-0.17280247807503,1.09122908115387
153,2287656947,72.58044433593750,-86.19873046875000,-34.26111602783203,9.85260200500488,0.26431986689568,0.60318940877914,1.52061319351196,1.47124469280243,1.06190252304077
154,2287673614,71.84777069091797,-86.19528198242188,-33.51391983032227,9.82291221618652,0.27321350574493,0.65989482402802,1.33049023151398,1.58892238140106,1.20219624042511
155,2287690281,71.23516845703125,-86.19548797607422,-32.89252853393555,9.81044101715088,0.28837376832962,0.66325116157532,1.10735225677490,1.05224645137787,1.26443481445312
156,2287706948,70.73673248291016,-86.19506835937500,-32.39581680297852,9.79292011260986,0.30841925740242,0.65508997440338,0.51910543441772,0.58866953849792,1.10368967056274
157,2287723615,70.40412902832031,-86.19851684570312,-32.06929016113281,9.79192733764648,0.31264200806618,0.67108231782913,0.16375479102135,-0.13996699452400,1.12515306472778
158,2287740282,70.18825531005859,-86.20682525634766,-31.85327339172363,9.80037403106689,0.28917706012726,0.65229624509811,0.33318278193474,-0.66624391078949,1.24149870872498
159,2287756949,69.89880371093750,-86.21080017089844,-31.56612586975098,9.78992271423340,0.29917195439339,0.66622489690781,0.42672038078308,-0.30054581165314,1.10198640823364
160,2287773616,69.44233703613281,-86.20496368408203,-31.09992408752441,9.80829524993896,0.25713506340981,0.63366985321045,0.81071871519089,0.54830384254456,0.78332597017288
161,2287790283,68.99409484863281,-86.19363403320312,-30.64969825744629,9.79069519042969,0.23663215339184,0.70147877931595,0.74260187149048,0.62944489717484,0.49112352728844
162,2287806950,68.75531005859375,-86.18469238281250,-30.40528488159180,9.79441928863525,0.24449758231640,0.67385703325272,1.00140535831451,-0.17476183176041,0.32971227169037
163,2287823617,68.67084503173828,-86.17951202392578,-30.31952857971191,9.81061935424805,0.23346298933029,0.67405915260315,0.89481800794601,-0.83743917942047,0.33005803823471
164,2287840284,68.66540527343750,-86.17536163330078,-30.31569290161133,9.80244445800781,0.25376838445663,0.71726840734482,0.89399844408035,-1.15141248703003,0.27030360698700
165,2287856951,68.71175384521484,-86.17173004150391,-30.35434150695801,9.79039382934570,0.23339292407036,0.69775944948196,1.06724274158478,-1.34453237056732,0.22927211225033
166,2287873618,68.71563720703125,-86.16549682617188,-30.34864807128906,9.77585887908936,0.25732150673866,0.68251121044159,1.46331751346588,-1.10500216484070,0.15686497092247
167,2287890285,68.75838470458984,-86.15824890136719,-30.37169075012207,9.76978874206543,0.30781653523445,0.70463001728058,1.77155363559723,-1.20673584938049,0.04769084602594
168,2287906952,68.92929840087891,-86.16217803955078,-30.52407836914062,9.82500076293945,0.28647091984749,0.73390871286392,1.46407318115234,-1.95161724090576,0.49058565497398
169,2287923619,69.19984436035156,-86.17121887207031,-30.77637100219727,9.84108257293701,0.26614549756050,0.67619597911835,1.38872063159943,-2.43368649482727,0.62666589021683
170,2287940286,69.39188385009766,-86.17592620849609,-30.95578384399414,9.84964179992676,0.27374744415283,0.68607020378113,1.60129940509796,-2.02985763549805,0.50059372186661
171,2287956953,69.57739257812500,-86.17884826660156,-31.14044761657715,9.83086109161377,0.30501192808151,0.66212385892868,1.61785173416138,-1.96920037269592,0.42401823401451
172,2287973620,69.78460693359375,-86.18453979492188,-31.34163475036621,9.79820728302002,0.30153501033783,0.71430116891861,1.34657502174377,-2.12181377410889,0.54078656435013
173,2287990287,69.96339416503906,-86.18910980224609,-31.51661682128906,9.79794120788574,0.30366533994675,0.71135842800140,1.32248616218567,-1.99267458915710,0.52434325218201
174,2288006954,70.17453765869141,-86.19461059570312,-31.71343994140625,9.79995822906494,0.30011370778084,0.70597749948502,1.33924949169159,-2.12837052345276,0.52826189994812
175,2288023621,70.46527862548828,-86.20512390136719,-31.97757720947266,9.79990291595459,0.27763912081718,0.68467217683792,1.02225410938263,-2.54913616180420,0.71711719036102
176,2288040288,70.75964355468750,-86.21617889404297,-32.26429748535156,9.80366134643555,0.26270985603333,0.63508033752441,1.18712306022644,-2.55413031578064,0.74307566881180
177,2288056955,70.83198547363281,-86.22093963623047,-32.32765960693359,9.86807155609131,0.28248277306557,0.64321196079254,1.29616904258728,-1.59520387649536,0.69419378042221
178,2288073622,70.81222534179688,-86.22322082519531,-32.30233383178711,9.87076854705811,0.30205202102661,0.67120260000229,1.34720230102539,-1.19372463226318,0.66316401958466
179,2288090289,70.83241271972656,-86.22768402099609,-32.31501770019531,9.81359386444092,0.34323975443840,0.65297305583954,1.17502105236053,-1.39794743061066,0.73312515020370
180,2288106956,70.85695648193359,-86.23448944091797,-32.35522842407227,9.78719997406006,0.31726443767548,0.61176985502243,0.35441577434540,-1.50794148445129,0.84162056446075
181,2288123623,70.93597412109375,-86.24198913574219,-32.43774032592773,9.74978828430176,0.28057584166527,0.60571348667145,0.41364505887032,-1.71866965293884,0.81064194440842
182,2288140290,70.95009613037109,-86.24360656738281,-32.44683074951172,9.74548816680908,0.31183239817619,0.59826707839966,0.42985796928406,-1.35826086997986,0.54980224370956
183,2288156957,70.98169708251953,-86.24965667724609,-32.48476409912109,9.78821849822998,0.28651773929596,0.59732562303543,0.13021495938301,-1.53486001491547,0.80172866582870
184,2288173624,71.05233001708984,-86.25770568847656,-32.56264495849609,9.77994441986084,0.28758859634399,0.59862697124481,0.11979059129953,-1.71349585056305,0.85396581888199
185,2288190291,71.07965850830078,-86.26121520996094,-32.59704589843750,9.80485343933105,0.28690421581268,0.56617945432663,0.00695384759456,-1.46886909008026,0.64418500661850
186,2288206958,71.11039733886719,-86.26697540283203,-32.63937759399414,9.79215145111084,0.30236357450485,0.58366191387177,-0.14629335701466,-1.53366947174072,0.76457756757736
187,2288223625,71.31951904296875,-86.28364562988281,-32.86390686035156,9.76871490478516,0.29412552714348,0.57271581888199,-0.35374337434769,-2.41294026374817,1.16331589221954
188,2288240292,71.61145019531250,-86.30657958984375,-33.18207550048828,9.77956771850586,0.24122612178326,0.55839323997498,-0.41097497940063,-2.83118271827698,1.41957092285156
189,2288256959,71.79319000244141,-86.32389831542969,-33.37531661987305,9.83660602569580,0.22856247425079,0.51750296354294,0.03280986845493,-2.28766846656799,1.26129734516144
190,2288273626,71.75131988525391,-86.33724212646484,-33.33124923706055,9.83938694000244,0.25846087932587,0.52840018272400,0.77578294277191,-1.34585106372833,1.31281709671021
191,2288290293,71.76140594482422,-86.35250854492188,-33.33631515502930,9.82824325561523,0.28315037488937,0.56815367937088,0.88737767934799,-1.56371295452118,1.35979115962982
192,2288306960,71.91881561279297,-86.37069702148438,-33.49330902099609,9.80996036529541,0.26356065273285,0.59186285734177,0.51259970664978,-2.17292404174805,1.35553920269012
193,2288323627,72.15105438232422,-86.38545227050781,-33.73127365112305,9.77087974548340,0.24462549388409,0.55016398429871,0.51318883895874,-2.36629962921143,1.05756115913391
194,2288340294,72.42760467529297,-86.40016937255859,-34.02178192138672,9.77812957763672,0.31031423807144,0.54359275102615,0.26095500588417,-2.53647089004517,1.01884758472443
195,2288356961,72.66754913330078,-86.41603088378906,-34.26911544799805,9.79864406585693,0.29680410027504,0.53254497051239,-0.05442058667541,-2.43887329101562,1.12958419322968
196,2288373628,72.91602325439453,-86.43563842773438,-34.53415298461914,9.81630134582520,0.31035929918289,0.53567349910736,-0.36379638314247,-2.54093980789185,1.31906688213348
197,2288390295,73.18818664550781,-86.45381927490234,-34.83688354492188,9.80877017974854,0.28945523500443,0.54570597410202,-0.53592646121979,-2.60516381263733,1.23426306247711
198,2288406962,73.53968811035156,-86.47174835205078,-35.22582626342773,9.79544448852539,0.28622555732727,0.54041856527328,-0.54854083061218,-2.87275266647339,1.15138053894043
199,2288423629,73.89684295654297,-86.48944091796875,-35.61106109619141,9.79925251007080,0.26056566834450,0.53729307651520,-0.72492259740829,-2.88534092903137,1.12677943706512
200,2288440296,74.27981567382812,-86.50694274902344,-36.01898193359375,9.81397342681885,0.25153350830078,0.54604989290237,-0.70161503553391,-2.95843958854675,1.10294675827026
201,2288456963,74.68267059326172,-86.52768707275391,-36.44297409057617,9.79931163787842,0.26879128813744,0.53297668695450,-0.59368312358856,-3.06434798240662,1.29834604263306
202,2288473630,75.14330291748047,-86.55332946777344,-36.92523956298828,9.82718753814697,0.29136651754379,0.52883571386337,-0.60957586765289,-3.32470154762268,1.54162847995758
203,2288490297,75.63855743408203,-86.57709503173828,-37.44096755981445,9.84321022033691,0.28499484062195,0.52924615144730,-0.53389030694962,-3.38979625701904,1.41517853736877
204,2288506964,76.09845733642578,-86.59734344482422,-37.92002868652344,9.83631038665771,0.24164249002934,0.49118629097939,-0.46145755052567,-3.18905615806580,1.26097702980042
205,2288523631,76.42402648925781,-86.61325836181641,-38.27302932739258,9.83491230010986,0.20491929352283,0.48075792193413,-0.41354262828827,-2.64722585678101,1.13466191291809
206,2288540298,76.71376800537109,-86.62589263916016,-38.58448410034180,9.83446025848389,0.20558215677738,0.46013915538788,0.02196288667619,-2.44758129119873,0.99769127368927
207,2288556965,76.93504333496094,-86.63594055175781,-38.81701660156250,9.83969306945801,0.20599600672722,0.48461887240410,0.13081686198711,-2.16433095932007,0.91256773471832
208,2288573632,77.16512298583984,-86.64339447021484,-39.05024719238281,9.80187892913818,0.21362003684044,0.50573211908340,0.45557308197021,-2.13455605506897,0.74691754579544
209,2288590299,77.38780975341797,-86.65280151367188,-39.26917266845703,9.80793094635010,0.21656197309494,0.50199979543686,0.88006526231766,-2.10841846466064,0.89303809404373
210,2288606966,77.61574554443359,-86.66457366943359,-39.49724960327148,9.82633590698242,0.22687128186226,0.48984405398369,0.72463452816010,-2.15895223617554,1.00817978382111
211,2288623633,77.77268981933594,-86.67351531982422,-39.65373992919922,9.85868740081787,0.24772115051746,0.44858878850937,0.69284915924072,-1.88099038600922,0.92141699790955
212,2288640300,77.78929138183594,-86.67740631103516,-39.66654586791992,9.81696796417236,0.27488830685616,0.48154285550117,0.58026856184006,-1.34279060363770,0.70711541175842
213,2288656967,77.80876159667969,-86.67904663085938,-39.69848632812500,9.81486701965332,0.23791426420212,0.53633904457092,0.14955253899097,-1.34855341911316,0.58462262153625
214,2288673634,77.95011901855469,-86.68294525146484,-39.84263610839844,9.84400177001953,0.22502085566521,0.51615673303604,0.29699206352234,-1.77691304683685,0.60296124219894
215,2288690301,78.07901000976562,-86.68713378906250,-39.97398376464844,9.82074737548828,0.27866524457932,0.48816528916359,0.53899359703064,-1.72774946689606,0.66877311468124
216,2288706968,78.03106689453125,-86.68784332275391,-39.93377685546875,9.84309101104736,0.25832164287567,0.43797332048416,0.29023030400276,-1.09616589546204,0.56314635276794
217,2288723635,77.92948913574219,-86.68796539306641,-39.84629821777344,9.75367832183838,0.23434393107891,0.50194722414017,-0.24450519680977,-0.93741840124130,0.56853783130646
218,2288740302,77.91187286376953,-86.68548583984375,-39.84232711791992,9.80094242095947,0.26790195703506,0.48229059576988,-0.33256170153618,-1.19355833530426,0.36286792159081
219,2288756969,77.95218658447266,-86.68506622314453,-39.89878082275391,9.84225940704346,0.27929893136024,0.47625124454498,-0.34708410501480,-1.41453182697296,0.43827173113823
220,2288773636,78.03003692626953,-86.68867492675781,-39.99609756469727,9.77060508728027,0.24847991764545,0.46622374653816,-0.56252533197403,-1.60126137733459,0.62687081098557
221,2288790303,78.11618804931641,-86.68896484375000,-40.11170196533203,9.76982879638672,0.21318259835243,0.46063828468323,-0.85589313507080,-1.60744643211365,0.44892656803131
222,2288806970,78.32932281494141,-86.68465423583984,-40.35354995727539,9.78742790222168,0.20039089024067,0.48129740357399,-0.78836536407471,-1.97194099426270,0.06710527837276
223,2288823637,78.66596221923828,-86.68258666992188,-40.71100234985352,9.80013942718506,0.20432431995869,0.47362533211708,-0.65401387214661,-2.41451573371887,0.13764265179634
224,2288840304,79.01769256591797,-86.68601989746094,-41.08458709716797,9.80953788757324,0.18271462619305,0.43838587403297,-0.29397615790367,-2.51102399826050,0.46227079629898
225,2288856971,79.28308868408203,-86.69127655029297,-41.35563278198242,9.86580848693848,0.21327687799931,0.45951271057129,0.47206768393517,-2.19235110282898,0.64130359888077
226,2288873638,79.45606231689453,-86.69535827636719,-41.52895736694336,9.83368301391602,0.24541923403740,0.46598383784294,0.92474657297134,-1.83787143230438,0.63851183652878
227,2288890305,79.54367828369141,-86.70230102539062,-41.61006546020508,9.81605434417725,0.28723767399788,0.47293028235435,0.91137659549713,-1.57900357246399,0.86816787719727
228,2288906972,79.56106567382812,-86.70551300048828,-41.63111495971680,9.78035640716553,0.26403769850731,0.46096324920654,0.47401428222656,-1.32158350944519,0.66477769613266
229,2288923639,79.54021453857422,-86.70230102539062,-41.61738967895508,9.79688549041748,0.31687757372856,0.46027684211731,0.10836733132601,-1.14488136768341,0.32825234532356
230,2288940306,79.56388092041016,-86.69951629638672,-41.66577911376953,9.81616973876953,0.34460288286209,0.47821041941643,-0.45937019586563,-1.32960021495819,0.30988809466362
231,2288956973,79.70384216308594,-86.70188140869141,-41.83509063720703,9.80246734619141,0.34930974245071,0.43872722983360,-1.23920011520386,-1.82272136211395,0.52978593111038
232,2288973640,79.71082305908203,-86.69998168945312,-41.87748336791992,9.84544181823730,0.31640389561653,0.42811015248299,-1.44050288200378,-1.33812892436981,0.36791357398033
233,2288990307,79.65100860595703,-86.68885040283203,-41.86114883422852,9.84634876251221,0.26379227638245,0.45915511250496,-1.87670016288757,-1.03556632995605,-0.14293807744980
234,2289006974,79.70977783203125,-86.67834472656250,-41.96690750122070,9.86586284637451,0.25955906510353,0.43937522172928,-2.27605319023132,-1.46493756771088,-0.19124361872673
235,2289023641,79.70333099365234,-86.67163085937500,-42.00303649902344,9.84125041961670,0.25331667065620,0.45569577813148,-2.09472823143005,-1.27644085884094,0.08495732396841
236,2289040308,79.65460968017578,-86.66545867919922,-41.98543548583984,9.80979061126709,0.29889634251595,0.44327187538147,-1.97648727893829,-1.12774658203125,0.13901294767857
237,2289056975,79.60755920410156,-86.65280151367188,-41.97707748413086,9.83198165893555,0.25762686133385,0.44480183720589,-1.69079029560089,-1.04843664169312,-0.23372226953506
238,2289073642,79.48849487304688,-86.63896942138672,-41.89240646362305,9.79880619049072,0.26639586687088,0.45902612805367,-1.25277471542358,-0.75787329673767,-0.27217972278595
239,2289090309,79.42131042480469,-86.62710571289062,-41.84854125976562,9.76840591430664,0.25877800583839,0.44823735952377,-1.05030632019043,-0.94434666633606,-0.17492833733559
240,2289106976,79.37025451660156,-86.62107849121094,-41.82173156738281,9.77674007415771,0.26648601889610,0.39937722682953,-0.78114247322083,-1.04724562168121,0.15888838469982
241,2289123643,79.27853393554688,-86.61679077148438,-41.74417877197266,9.80320072174072,0.30913820862770,0.40447467565536,-0.37404143810272,-0.90039527416229,0.29709452390671
242,2289140310,79.18057250976562,-86.61106872558594,-41.66062927246094,9.77322101593018,0.32773223519325,0.39774486422539,-0.07141461223364,-0.84563535451889,0.23146198689938
243,2289156977,79.08789062500000,-86.60806274414062,-41.57857131958008,9.73824596405029,0.25173020362854,0.34488695859909,-0.11073010414839,-0.89377439022064,0.38141152262688
244,2289173644,78.85473632812500,-86.60079956054688,-41.34657287597656,9.80124950408936,0.23143388330936,0.36187899112701,0.74750661849976,-0.30565553903580,0.23714798688889
245,2289190311,78.52053070068359,-86.58912658691406,-40.99455642700195,9.86271190643311,0.20646591484547,0.40825021266937,1.09382879734039,0.12455457448959,0.04702491685748
246,2289206978,78.19271087646484,-86.58430480957031,-40.65811538696289,9.87549114227295,0.25703966617584,0.45511737465858,1.05616521835327,0.02435767464340,0.45597004890442
247,2289223645,77.88890838623047,-86.58567810058594,-40.35448074340820,9.81075763702393,0.27778872847557,0.44127693772316,0.59648138284683,-0.16463203728199,0.81482964754105
248,2289240312,77.59140777587891,-86.58775329589844,-40.06539154052734,9.78074741363525,0.30204153060913,0.42509859800339,0.37285691499710,-0.20871150493622,0.84965014457703
249,2289256979,77.20680236816406,-86.58499908447266,-39.68000030517578,9.80133724212646,0.30250883102417,0.42816239595413,0.51706916093826,0.16415177285671,0.64857751131058
250,2289273646,76.82307434082031,-86.57760620117188,-39.29944610595703,9.81331634521484,0.31285017728806,0.50954514741898,0.43924495577812,0.22178035974503,0.37535408139229
251,2289290313,76.62744903564453,-86.57582855224609,-39.10569000244141,9.76362895965576,0.28885352611542,0.46992242336273,0.49779561161995,-0.50457650423050,0.56919097900391
252,2289306980,76.51374816894531,-86.58069610595703,-38.99876022338867,9.78363323211670,0.28444766998291,0.41486880183220,0.25789427757263,-0.89364635944366,0.87743991613388
253,2289323647,76.34796905517578,-86.58470916748047,-38.83052444458008,9.79890823364258,0.25555798411369,0.40416359901428,0.61168253421783,-0.68148350715637,0.87788814306259
254,2289340314,76.09893798828125,-86.58631896972656,-38.58611679077148,9.80924606323242,0.24975557625294,0.44368284940720,0.68113130331039,-0.35772615671158,0.81911975145340
255,2289356981,75.99008178710938,-86.59452819824219,-38.46979141235352,9.80208206176758,0.29052937030792,0.45564332604408,0.64529919624329,-0.93980044126511,1.08635008335114
256,2289373648,76.01885986328125,-86.60627746582031,-38.49768447875977,9.77004909515381,0.25656941533089,0.44732731580734,0.63020038604736,-1.46565461158752,1.16277801990509
257,2289390315,75.95116424560547,-86.61656188964844,-38.41337966918945,9.76157379150391,0.27916795015335,0.38677591085434,1.29951143264771,-1.07198739051819,1.16591548919678
258,2289406982,75.77062225341797,-86.62368011474609,-38.22293090820312,9.75877666473389,0.27464702725410,0.39525744318962,1.16731178760529,-0.65277171134949,1.08869349956512
259,2289423649,75.59680175781250,-86.63343811035156,-38.03874969482422,9.81944084167480,0.21657386422157,0.42251983284950,1.08051037788391,-0.72314256429672,1.24864482879639
260,2289440316,75.45405578613281,-86.64339447021484,-37.88614273071289,9.79824733734131,0.20849491655827,0.43454658985138,1.24605774879456,-0.82095742225647,1.21493828296661
261,2289456983,75.39846038818359,-86.65461730957031,-37.81842041015625,9.81571102142334,0.19879472255707,0.44151780009270,1.62791764736176,-1.11946070194244,1.23203492164612
262,2289473650,75.38253021240234,-86.66440582275391,-37.77459335327148,9.83621406555176,0.21098782122135,0.43601688742638,2.41995191574097,-1.18625855445862,1.12133681774139
263,2289490317,75.35645294189453,-86.67198944091797,-37.72814941406250,9.82862472534180,0.23795317113400,0.44582590460777,2.32656788825989,-1.12113833427429,0.98881661891937
264,2289506984,75.31025695800781,-86.68128967285156,-37.64758300781250,9.83226680755615,0.26592820882797,0.45437768101692,2.28075981140137,-1.08607459068298,1.12158012390137
265,2289523651,75.12969970703125,-86.68772888183594,-37.44115447998047,9.78921890258789,0.27523699402809,0.43072324991226,2.09246802330017,-0.60308301448822,1.06569314002991
266,2289540318,74.96031951904297,-86.69595336914062,-37.25171279907227,9.80922126770020,0.26294544339180,0.45874059200287,1.60295796394348,-0.69630038738251,1.14784586429596
267,2289556985,74.86509704589844,-86.70515441894531,-37.14336013793945,9.80872440338135,0.24753393232822,0.46881866455078,1.26978802680969,-0.98208689689636,1.15163660049438
268,2289573652,74.77459716796875,-86.71330261230469,-37.04551315307617,9.82801914215088,0.24088200926781,0.48101779818535,1.11117494106293,-0.98853498697281,1.07365226745605
269,2289590319,74.71551513671875,-86.71950531005859,-36.97805404663086,9.81842422485352,0.22336621582508,0.47236135601997,1.10873532295227,-1.06325352191925,0.93094474077225
270,2289606986,74.74287414550781,-86.72834777832031,-37.00626373291016,9.79898834228516,0.25077319145203,0.50467908382416,0.63413202762604,-1.41830968856812,1.00780856609344
271,2289623653,74.83975982666016,-86.73433685302734,-37.11478042602539,9.78663444519043,0.24192070960999,0.50628906488419,0.33958601951599,-1.61351692676544,0.76508980989456
272,2289640320,74.97225189208984,-86.73685455322266,-37.25753021240234,9.80006027221680,0.25114968419075,0.43406939506531,0.29674875736237,-1.67845797538757,0.53647089004517
273,2289656987,74.98664855957031,-86.73199462890625,-37.26358795166016,9.83468246459961,0.24583058059216,0.41769361495972,0.69893217086792,-1.15332055091858,0.22339399158955
274,2289673654,74.93424224853516,-86.72159576416016,-37.21057128906250,9.81816577911377,0.27304172515869,0.45685866475105,0.70625734329224,-0.84252333641052,-0.04791495949030
275,2289690321,74.94569396972656,-86.70865631103516,-37.21845245361328,9.82726669311523,0.26525071263313,0.50053644180298,0.81444549560547,-1.01013290882111,-0.23669335246086
276,2289706988,75.01143646240234,-86.70188140869141,-37.28956222534180,9.84880447387695,0.30084517598152,0.50087887048721,0.54734343290329,-1.29417777061462,0.04151818528771
277,2289723655,75.12286376953125,-86.69530487060547,-37.39966583251953,9.84450531005859,0.29933241009712,0.44876611232758,0.43208622932434,-1.46268367767334,0.03201587498188
278,2289740322,75.10422515869141,-86.67951965332031,-37.38273239135742,9.84365367889404,0.30899339914322,0.43423545360565,0.55957347154617,-0.87747186422348,-0.39056164026260
279,2289756989,74.96306610107422,-86.65485382080078,-37.23759078979492,9.83855819702148,0.28788495063782,0.46020513772964,0.73916965723038,-0.31444066762924,-0.79811084270477
280,2289773656,74.80338287353516,-86.63082122802734,-37.07720565795898,9.82485389709473,0.30119866132736,0.48996064066887,0.93878227472305,-0.24230256676674,-0.74230086803436
281,2289790323,74.72933197021484,-86.61713409423828,-36.99578857421875,9.77705192565918,0.29007536172867,0.50421011447906,1.06072449684143,-0.68962836265564,-0.18942512571812
282,2289806990,74.74582672119141,-86.60990905761719,-37.00020217895508,9.76911640167236,0.28080424666405,0.47112810611725,0.98569202423096,-1.09815096855164,0.08027020841837
283,2289823657,74.69850921630859,-86.60229492187500,-36.94445419311523,9.81497955322266,0.31876096129417,0.42427167296410,1.20067203044891,-0.86070829629898,0.11867644637823
284,2289840324,74.54542541503906,-86.59274291992188,-36.77642822265625,9.88413715362549,0.36069822311401,0.45764321088791,1.33758485317230,-0.46066361665726,0.12049494683743
285,2289856991,74.36720275878906,-86.58940887451172,-36.59122085571289,9.91582012176514,0.36953997612000,0.53586512804031,1.02854192256927,-0.48694229125977,0.49111071228981
286,2289873658,74.20475006103516,-86.59211730957031,-36.41065216064453,9.81727218627930,0.37537959218025,0.46714401245117,1.26232182979584,-0.62896466255188,0.84774190187454
287,2289890325,73.88106536865234,-86.59114074707031,-36.07951736450195,9.74906349182129,0.37012526392937,0.39326453208923,0.96429264545441,-0.03285468742251,0.78550302982330
288,2289906992,73.53124237060547,-86.58654022216797,-35.72426605224609,9.71338367462158,0.35484677553177,0.44349646568298,1.04928839206696,0.12388864159584,0.60261559486389
289,2289923659,73.32355499267578,-86.59378051757812,-35.51020812988281,9.71335601806641,0.34934791922569,0.45871448516846,0.51079404354095,-0.59359347820282,1.13319551944733
290,2289940326,73.28639984130859,-86.61516571044922,-35.46812057495117,9.72422409057617,0.39113646745682,0.46263894438744,0.12885749340057,-1.44963419437408,1.79980456829071
291,2289956993,73.29647064208984,-86.63327026367188,-35.49441528320312,9.70870590209961,0.37544462084770,0.41764026880264,-0.18341894447803,-1.56230413913727,1.52982103824615
292,2289973660,73.28082275390625,-86.64514923095703,-35.47267150878906,9.79856777191162,0.33543476462364,0.40529885888100,0.19825509190559,-1.35139632225037,1.22218668460846
293,2289990327,73.10835266113281,-86.65268707275391,-35.30753326416016,9.85452651977539,0.34737637639046,0.44359418749809,0.21711887419224,-0.74593794345856,1.11800730228424
294,2290006994,72.95787811279297,-86.66258239746094,-35.16821670532227,9.81174755096436,0.31028431653976,0.43105798959732,-0.07980276644230,-0.88092952966690,1.22834658622742
295,2290023661,72.78597259521484,-86.67304229736328,-34.99913406372070,9.82473659515381,0.31030803918839,0.40519076585770,0.22299695014954,-0.80532091856003,1.28755044937134
296,2290040328,72.50798034667969,-86.68312072753906,-34.72960281372070,9.84412002563477,0.32643556594849,0.46334767341614,0.19409303367138,-0.45282617211342,1.37763023376465
297,2290056995,72.08643341064453,-86.69571685791016,-34.31089401245117,9.84566974639893,0.31388723850250,0.43710690736771,0.32473063468933,-0.03080567717552,1.69319164752960
298,2290073662,71.43802642822266,-86.70776367187500,-33.66927719116211,9.82111549377441,0.35164850950241,0.43171212077141,0.08539273589849,0.69209355115891,1.90792846679688
299,2290090329,70.76228332519531,-86.71974182128906,-33.00974273681641,9.78975963592529,0.36357936263084,0.49273356795311,-0.65064585208893,0.72295683622360,1.93104386329651
300,2290106996,70.22184753417969,-86.73325347900391,-32.49063491821289,9.75854110717773,0.37884578108788,0.50745552778244,-0.83223980665207,0.22368849813938,1.87752592563629
301,2290123663,69.72460174560547,-86.74948120117188,-32.01971054077148,9.75658512115479,0.33794426918030,0.45580321550369,-1.06782543659210,-0.00227312720381,1.98710989952087
302,2290140330,69.32508087158203,-86.76759338378906,-31.65198898315430,9.73358058929443,0.30543974041939,0.47884401679039,-1.15197598934174,-0.37299138307571,1.97660899162292
303,2290156997,68.32798004150391,-86.76989746093750,-30.65102005004883,9.86565303802490,0.31158387660980,0.26902729272842,0.70303028821945,1.92108058929443,1.87175059318542
304,2290173664,66.10863494873047,-86.73590087890625,-28.42847251892090,9.86968135833740,0.37762740254402,0.41450542211533,1.00666892528534,6.57964706420898,1.55539548397064
305,2290190331,64.21633911132812,-86.70830535888672,-26.57219123840332,9.87728881835938,0.37562328577042,0.59817707538605,-1.25338947772980,5.31130599975586,1.68390703201294
306,2290206998,62.83901214599609,-86.69393920898438,-25.23227691650391,9.85655879974365,0.30026721954346,0.56755489110947,-1.73499774932861,3.33838486671448,1.81939804553986
307,2290223665,61.71715927124023,-86.68329620361328,-24.15107154846191,9.75975894927979,0.29651013016701,0.59278154373169,-1.93727409839630,2.44938063621521,1.66503036022186
308,2290240332,60.88178634643555,-86.68128967285156,-23.36350250244141,9.77392292022705,0.31082946062088,0.64857983589172,-2.27875590324402,1.27996909618378,1.74145877361298
309,2290256999,60.17680740356445,-86.68566131591797,-22.70476913452148,9.77245044708252,0.26911196112633,0.63309234380722,-2.53892922401428,0.68168199062347,1.85329675674438
310,2290273666,59.45724105834961,-86.69009399414062,-22.03795814514160,9.78279399871826,0.21047836542130,0.62523072957993,-2.59713411331177,0.69048005342484,1.92376995086670
311,2290290333,58.70839309692383,-86.69181060791016,-21.33871078491211,9.79429435729980,0.18486352264881,0.65165174007416,-2.37418842315674,0.86463356018066,1.84164309501648
312,2290307000,58.11273193359375,-86.68979644775391,-20.78468894958496,9.74817752838135,0.17101779580116,0.64605337381363,-1.65763485431671,0.54060727357864,1.43938267230988
313,2290323667,57.89826965332031,-86.69637298583984,-20.59663772583008,9.75774955749512,0.10822603851557,0.63334232568741,-0.83339238166809,-0.81580924987793,1.21815276145935
314,2290340334,57.97348403930664,-86.71675872802734,-20.66612434387207,9.78929233551025,0.14616973698139,0.58838266134262,0.74985021352768,-2.01619958877563,1.42498815059662
315,2290357001,58.02974700927734,-86.74195861816406,-20.70286750793457,9.76275730133057,0.15348766744137,0.58014887571335,1.76803839206696,-2.07282304763794,1.75463020801544
316,2290373668,58.18811035156250,-86.77244567871094,-20.83329010009766,9.76646518707275,0.16331613063812,0.58377736806870,2.23557281494141,-2.50113153457642,1.84707927703857
317,2290390335,58.34184265136719,-86.80156707763672,-20.96578407287598,9.79586410522461,0.20780408382416,0.57048922777176,2.00140213966370,-2.44870853424072,1.78468000888824
318,2290407002,58.54566955566406,-86.82547760009766,-21.13969230651855,9.82521724700928,0.17789155244827,0.52826976776123,2.13844299316406,-2.41773009300232,1.44992232322693
319,2290423669,58.82479476928711,-86.84880828857422,-21.37793540954590,9.88107395172119,0.23617568612099,0.60008865594864,2.72311711311340,-2.57077884674072,1.30583810806274
320,2290440336,59.22686767578125,-86.87281799316406,-21.72325706481934,9.88489055633545,0.25790867209435,0.67339992523193,2.75865411758423,-2.92246651649475,1.14203178882599
321,2290457003,59.78381347656250,-86.89903259277344,-22.24406242370605,9.83125782012939,0.23848254978657,0.62754231691360,2.80851602554321,-3.41702890396118,1.04323732852936
322,2290473670,60.34450912475586,-86.92820739746094,-22.78108215332031,9.84849357604980,0.23857380449772,0.56802147626877,2.44712710380554,-3.51089286804199,1.20715212821960
323,2290490337,60.97351074218750,-86.96662139892578,-23.38648605346680,9.79481983184814,0.24754402041435,0.55439442396164,2.67305660247803,-3.92828989028931,1.60417461395264
324,2290507004,61.62207031250000,-87.00879669189453,-24.00458335876465,9.78197765350342,0.28471639752388,0.59215003252029,2.71503615379333,-4.06332111358643,1.83662295341492
325,2290523671,62.59284591674805,-87.05929565429688,-24.93944931030273,9.74195480346680,0.27221253514290,0.62294632196426,2.84750485420227,-5.13430213928223,1.88778388500214
326,2290540338,63.90467834472656,-87.12009429931641,-26.21417045593262,9.67014598846436,0.31006276607513,0.58799606561661,2.95095467567444,-6.24475431442261,2.06337189674377
327,2290557005,65.50881195068359,-87.18582916259766,-27.78549385070801,9.66418743133545,0.32501471042633,0.58759635686874,2.71230840682983,-7.05079984664917,2.13314104080200
328,2290573672,67.34588623046875,-87.25897979736328,-29.59310722351074,9.66586494445801,0.30795988440514,0.53758388757706,2.51947021484375,-7.70305252075195,2.50223302841187
329,2290590339,69.50608062744141,-87.33883666992188,-31.72689819335938,9.67260742187500,0.30310812592506,0.42307046055794,2.35391020774841,-8.49019527435303,2.80938053131104
330,2290607006,71.83953094482422,-87.41457366943359,-34.02803421020508,9.75981807708740,0.26302292943001,0.32271456718445,2.71886563301086,-8.57730579376221,2.76906681060791
331,2290623673,73.95121002197266,-87.48370361328125,-36.09815216064453,9.79956150054932,0.28282389044762,0.29768604040146,3.24282431602478,-7.61854314804077,2.92229413986206
332,2290640340,75.76301574707031,-87.55615234375000,-37.86769104003906,9.77403068542480,0.28481623530388,0.31213444471359,3.06318950653076,-6.69585847854614,3.56623601913452
333,2290657007,77.48298645019531,-87.63793945312500,-39.55057144165039,9.76944732666016,0.27963885664940,0.26438179612160,2.93320536613464,-6.37208890914917,4.38460063934326
334,2290673674,79.20173645019531,-87.72110748291016,-41.24357986450195,9.76245021820068,0.26782372593880,0.28248730301857,2.26473927497864,-6.15101242065430,4.63392686843872
335,2290690341,80.81296539306641,-87.79273986816406,-42.83393859863281,9.77829170227051,0.27218282222748,0.27507624030113,1.94615554809570,-5.53972625732422,4.18813753128052
336,2290707008,82.12606811523438,-87.85698699951172,-44.12843704223633,9.81612014770508,0.29683592915535,0.26911893486977,1.80622065067291,-4.60502958297729,3.95577955245972
337,2290723675,83.18827819824219,-87.91371917724609,-45.17087554931641,9.85926532745361,0.24185860157013,0.31426674127579,1.83963227272034,-3.84795618057251,3.67525601387024
338,2290740342,84.13433837890625,-87.96558380126953,-46.07958602905273,9.89374160766602,0.21435683965683,0.28822520375252,2.89286470413208,-3.41517829895020,3.45480728149414
339,2290757009,84.65865325927734,-88.01269531250000,-46.55931854248047,9.93355369567871,0.23149500787258,0.34103593230247,3.31580805778503,-2.41610383987427,3.31082606315613
340,2290773676,85.10017395019531,-88.05841827392578,-46.95935821533203,9.90474605560303,0.17304205894470,0.38330763578415,3.13190841674805,-2.19687175750732,3.19815564155579
341,2290790343,85.16834259033203,-88.11145782470703,-46.96843338012695,9.84469985961914,0.11001836508512,0.33015137910843,4.14330244064331,-1.43495798110962,3.73420357704163
342,2290807010,84.10861968994141,-88.16869354248047,-45.83413696289062,9.78713703155518,0.14223147928715,0.37857589125633,5.01683616638184,0.69268268346786,4.25324487686157
343,2290823677,82.98732757568359,-88.23320770263672,-44.66311645507812,9.77017593383789,0.22810161113739,0.51244801282883,3.54158353805542,0.56949841976166,4.69283628463745
344,2290840344,82.40485382080078,-88.30280303955078,-44.04606246948242,9.75802421569824,0.21732962131500,0.57655572891235,2.64255213737488,-0.59291481971741,4.87597990036011
345,2290857011,82.75329589843750,-88.38493347167969,-44.37575912475586,9.69383335113525,0.24183821678162,0.53047555685043,1.71859943866730,-2.34764075279236,5.44712972640991
346,2290873678,83.69292449951172,-88.47415161132812,-45.30940628051758,9.69556808471680,0.15533970296383,0.51125091314316,0.97515255212784,-3.28287649154663,5.82304811477661
347,2290890345,83.91758728027344,-88.55301666259766,-45.52975463867188,9.72235393524170,0.07913891226053,0.44964006543159,0.85301822423935,-2.00195932388306,5.36263370513916
348,2290907012,84.36865234375000,-88.62827301025391,-45.99804687500000,9.63692760467529,0.15117892622948,0.53638994693756,-0.43003085255623,-2.28132963180542,5.05280971527100
349,2290923679,85.70922851562500,-88.70456695556641,-47.38335037231445,9.61014366149902,0.06735447049141,0.52903014421463,-2.05041885375977,-3.41821384429932,5.06012248992920
350,2290940346,86.20235443115234,-88.76551818847656,-47.92341995239258,9.64515876770020,-0.00205263588578,0.34208786487579,-2.22011542320251,-2.10223293304443,4.34725713729858
351,2290957013,84.26406097412109,-88.81007385253906,-46.05025482177734,9.73335552215576,0.05303619801998,0.43217685818672,-3.39610934257507,0.90643334388733,3.49017858505249
352,2290973680,82.62866210937500,-88.85226440429688,-44.52763748168945,9.84496021270752,0.00916977133602,0.52957993745804,-6.24160480499268,0.33442509174347,3.34879708290100
353,2290990347,81.76110839843750,-88.91177368164062,-43.78765106201172,9.94741153717041,-0.09165973216295,0.32043248414993,-7.08544158935547,-0.82236647605896,4.30666160583496
354,2291007014,79.00440979003906,-88.99907684326172,-41.18643188476562,10.12538909912109,-0.05533981695771,0.27099704742432,-8.92328262329102,0.59947830438614,6.43263196945190
355,2291023681,74.05295562744141,-89.09345245361328,-36.41981124877930,10.08897590637207,-0.02303363010287,0.42453655600548,-10.80770111083984,1.80282807350159,7.43611478805542
356,2291040348,69.62049102783203,-89.16984558105469,-32.19087600708008,9.88761711120605,-0.11798751354218,0.38755059242249,-11.95066833496094,0.67919802665710,6.41383361816406
357,2291057015,62.69589996337891,-89.21840667724609,-25.48853874206543,9.89979648590088,-0.17279066145420,0.13599516451359,-13.09883689880371,2.30809020996094,5.50581216812134
358,2291073682,51.77683639526367,-89.22848510742188,-14.84483909606934,10.12864208221436,-0.18143528699875,0.15209856629372,-16.32135963439941,5.07249879837036,5.36473989486694
359,2291090349,41.94829177856445,-89.21765136718750,-5.32161903381348,9.89167499542236,-0.26092803478241,0.31081435084343,-17.91744232177734,4.48185682296753,4.80357789993286
360,2291107016,37.05200958251953,-89.23536682128906,-0.70522964000702,9.43282032012939,-0.47934257984161,0.07237848639488,-16.36262893676758,0.08731376379728,3.91636395454407
361,2291123683,35.50152206420898,-89.29141235351562,0.62383890151978,9.40094566345215,-0.63068109750748,-0.32919391989708,-12.92468261718750,-3.57979321479797,3.46915268898010
362,2291140350,33.30143737792969,-89.33295440673828,2.64566206932068,9.72800254821777,-0.65961682796478,-0.47429665923119,-10.29869747161865,-2.71138048171997,3.16900920867920
363,2291157017,28.62372016906738,-89.35139465332031,7.18281507492065,9.98401451110840,-0.55096101760864,-0.42356538772583,-8.06761169433594,-0.88687187433243,3.55025386810303
364,2291173684,20.39088821411133,-89.37693023681641,15.27149009704590,10.15513038635254,-0.48228254914284,-0.30994021892548,-8.32910537719727,-0.87767714262009,5.48053026199341
365,2291190351,6.81361293792725,-89.40818023681641,28.69929695129395,10.23886299133301,-0.50433450937271,-0.19368283450603,-8.52093219757080,-1.52143955230713,8.00229454040527
366,2291207018,-10.62274074554443,-89.41617584228516,46.01189804077148,10.10414695739746,-0.55049836635590,-0.20852689445019,-6.51436901092529,-1.98681008815765,9.32515335083008
367,2291223685,-26.85929489135742,-89.37693023681641,62.13121414184570,9.83512401580811,-0.52228546142578,-0.17712616920471,-5.53446483612061,-1.22729063034058,9.50325012207031
368,2291240352,-39.75687789916992,-89.31500244140625,74.92452239990234,9.60946846008301,-0.48127242922783,-0.06960811465979,-4.79361677169800,-1.68615496158600,9.22070217132568
369,2291257019,-49.43413543701172,-89.24230194091797,84.50361633300781,9.58680915832520,-0.44060638546944,-0.14693802595139,-3.61819791793823,-2.22527670860291,8.50130558013916
370,2291273686,-56.64816665649414,-89.16256713867188,91.62654113769531,9.49227237701416,-0.44405978918076,-0.10425998270512,-4.36490440368652,-2.26152515411377,8.02463436126709
371,2291290353,-63.43037796020508,-89.07846832275391,98.29152679443359,9.47065353393555,-0.46361687779427,-0.08804378658533,-4.99801254272461,-3.35883808135986,8.07378482818604
372,2291307020,-69.05211639404297,-89.01048278808594,103.81493377685547,9.45639991760254,-0.45995417237282,-0.24709257483482,-5.09934282302856,-4.09560632705688,6.64067077636719
373,2291323687,-73.67451477050781,-88.96278381347656,108.37216949462891,9.29725551605225,-0.44814476370811,-0.32340142130852,-3.18387007713318,-4.48895215988159,4.83877706527710
374,2291340354,-79.33320617675781,-88.93743896484375,114.01187896728516,9.25375652313232,-0.43669608235359,-0.44733029603958,-0.39478775858879,-6.47526884078979,3.39323449134827
375,2291357021,-84.95179748535156,-88.92753601074219,119.64901733398438,9.36769866943359,-0.47273665666580,-0.57025212049484,1.80638742446899,-6.95507287979126,1.98091244697571
376,2291373688,-89.22188568115234,-88.92116546630859,123.95170593261719,9.50999259948730,-0.39798223972321,-0.61149990558624,2.66301703453064,-5.69081640243530,1.23714482784271
377,2291390355,-91.97901153564453,-88.91772460937500,126.72581481933594,9.68471717834473,-0.35281133651733,-0.55928421020508,1.67540359497070,-4.09342861175537,0.68026047945023
378,2291407022,-93.72404479980469,-88.92607879638672,128.49003601074219,9.67442417144775,-0.43097028136253,-0.56509959697723,1.79533493518829,-2.97221922874451,-0.04820949956775
379,2291423689,-94.00370025634766,-88.94112396240234,128.77522277832031,9.73096561431885,-0.46833243966103,-0.56098228693008,0.98237514495850,-1.32992029190063,-0.49513834714890
380,2291440356,-92.60886383056641,-88.96997833251953,127.39838409423828,9.76705932617188,-0.49492073059082,-0.47976386547089,1.67136955261230,0.43813085556030,-1.18906331062317
381,2291457023,-91.14694976806641,-89.00593566894531,125.94979858398438,9.83701324462891,-0.56768119335175,-0.38835287094116,1.38558316230774,0.43439140915871,-1.67069721221924
382,2291473690,-89.24411773681641,-89.05065155029297,124.08761596679688,9.87506580352783,-0.67616069316864,-0.38069060444832,3.04182863235474,0.70491284132004,-2.34345364570618
383,2291490357,-85.96119689941406,-89.11132812500000,120.88238525390625,9.81634235382080,-0.55960136651993,-0.33539515733719,5.19531917572021,1.63092720508575,-3.44414639472961
384,2291507024,-81.44596099853516,-89.17173004150391,116.47479248046875,9.90247058868408,-0.41951948404312,-0.25482195615768,6.96934604644775,2.12226867675781,-3.79085373878479
385,2291523691,-74.47710418701172,-89.21891021728516,109.62618255615234,9.92096042633057,-0.48473262786865,-0.20823125541210,7.55130338668823,3.42434167861938,-3.59555673599243
386,2291540358,-66.27813720703125,-89.24411010742188,101.55382537841797,9.73402881622314,-0.52632826566696,-0.20662572979927,7.85299634933472,3.89867639541626,-2.99636006355286
387,2291557025,-57.21250152587891,-89.22975921630859,92.61673736572266,9.78799343109131,-0.46765181422234,-0.20164777338505,7.94025802612305,5.01833534240723,-1.73320531845093
388,2291573692,-47.48558425903320,-89.18627166748047,83.00936889648438,9.86143684387207,-0.42745676636696,-0.15940968692303,7.62131834030151,6.39900207519531,-1.62536334991455
389,2291590359,-37.53816223144531,-89.13092041015625,73.19786071777344,9.80902862548828,-0.42858090996742,-0.15997926890850,8.62459278106689,6.93662548065186,-2.90137529373169
390,2291607026,-27.81122016906738,-89.06727600097656,63.63684463500977,9.71724891662598,-0.39416614174843,-0.18964245915413,10.45198631286621,6.83499670028687,-4.35069799423218
391,2291623693,-19.11914062500000,-88.99108886718750,55.11477279663086,9.67941761016846,-0.37148898839951,-0.08491541445255,10.81937503814697,6.63117074966431,-4.98905658721924
392,2291640360,-12.02904129028320,-88.90246582031250,48.18302536010742,9.61755371093750,-0.39025032520294,-0.04034082591534,10.20525836944580,6.23985958099365,-4.95481157302856
393,2291657027,-6.64215564727783,-88.81057739257812,42.94655990600586,9.44542598724365,-0.38997289538383,-0.04372799769044,9.74290847778320,5.55227231979370,-4.45286560058594
394,2291673694,-2.75778985023499,-88.72512817382812,39.17336654663086,9.35207843780518,-0.26990041136742,-0.25293827056885,7.39582347869873,4.61260557174683,-3.69857144355774
395,2291690361,0.76680535078049,-88.62584686279297,35.73791122436523,9.40218925476074,-0.18784567713737,-0.26714074611664,6.11732625961304,5.16507101058960,-3.96624898910522
396,2291707028,4.31002521514893,-88.50984191894531,32.27536773681641,9.49189567565918,-0.15966689586639,-0.11189043521881,5.60005187988281,5.84297561645508,-4.82398080825806
397,2291723695,7.61384439468384,-88.39550781250000,29.04011344909668,9.57022476196289,-0.27096173167229,0.01425509713590,4.89124584197998,5.37472391128540,-5.28133392333984
398,2291740362,10.26391792297363,-88.28456878662109,26.44006538391113,9.60446262359619,-0.41067913174629,0.10079577565193,3.76023983955383,4.95604562759399,-4.89103460311890
399,2291757029,12.52902793884277,-88.18534088134766,24.19059181213379,9.58920860290527,-0.56873828172684,0.08651486784220,1.65972888469696,4.04210710525513,-4.65743350982666
400,2291773696,14.70527458190918,-88.08899688720703,22.04797935485840,9.64751720428467,-0.57356911897659,0.05736711621284,2.76276516914368,3.66844296455383,-4.84008979797363
401,2291790363,16.79543113708496,-87.98113250732422,20.01387786865234,9.77650547027588,-0.44440799951553,0.09633994102478,4.10713863372803,4.14599323272705,-5.21839094161987
402,2291807030,19.12064743041992,-87.85633850097656,17.75580787658691,9.78287982940674,-0.34581726789474,0.15213072299957,4.79551792144775,4.64122772216797,-6.41862773895264
403,2291823697,21.71928405761719,-87.74727630615234,15.21615219116211,9.80463790893555,-0.40648090839386,0.01696166396141,4.30121850967407,3.10785865783691,-7.18134737014771
404,2291840364,23.73963928222656,-87.61042022705078,13.24781799316406,10.04476261138916,-0.38028883934021,-0.08817291259766,3.89369487762451,4.75694513320923,-7.03312683105469
405,2291857031,24.90810203552246,-87.44312286376953,12.13303852081299,10.28837203979492,-0.14246352016926,-0.01718509383500,3.96031355857849,6.99178171157837,-6.24289894104004
406,2291873698,25.72768783569336,-87.27480316162109,11.34215831756592,10.46830081939697,-0.05478108674288,0.15123698115349,2.43701076507568,7.20507192611694,-5.77293157577515
407,2291890365,26.46019935607910,-87.09014129638672,10.64786243438721,10.55077552795410,-0.22297644615173,0.34727346897125,3.00978755950928,8.05643844604492,-6.19159698486328
408,2291907032,27.12789154052734,-86.88724517822266,10.03979110717773,10.67253971099854,-0.51198714971542,0.62855970859528,4.30963277816772,9.03423023223877,-6.69359350204468
409,2291923699,27.63033294677734,-86.62728118896484,9.62603950500488,10.84133052825928,-0.74248921871185,1.14540719985962,6.02493238449097,12.21414470672607,-7.91038131713867
410,2291940366,28.42504692077637,-86.30207824707031,8.96856403350830,10.66078281402588,-0.81133311986923,1.99638664722443,8.97827720642090,15.09085941314697,-10.80480480194092
411,2291957033,29.87431907653809,-85.89845275878906,7.71337985992432,10.57918453216553,-1.00923979282379,2.45719099044800,12.49439334869385,17.67677879333496,-15.75784969329834
412,2291973700,30.77302169799805,-85.31993865966797,7.15469741821289,10.06772708892822,-1.22834670543671,3.16391849517822,21.17939758300781,27.68087196350098,-19.24267768859863
413,2291990367,29.06947326660156,-84.48114776611328,9.58818435668945,9.03577518463135,-1.33901059627533,3.28338956832886,43.91648101806641,49.09682083129883,-13.39785194396973
414,2292007034,24.49570846557617,-83.40201568603516,15.45536613464355,6.51632928848267,-1.57607853412628,4.15275621414185,76.33274078369141,73.43228912353516,4.46221685409546
415,2292023701,18.29248619079590,-82.22916412353516,23.27590751647949,2.77929759025574,-1.11830663681030,3.76760101318359,94.06179809570312,85.71382904052734,29.43768882751465
416,2292040368,10.83760833740234,-81.09113311767578,31.81340217590332,-1.67460894584656,-0.60613185167313,1.39991724491119,60.26370239257812,83.50881195068359,55.18701171875000
417,2292057035,3.60124087333679,-79.97571563720703,39.62246704101562,-3.83665275573730,-0.54874366521835,-2.03244233131409,28.69618034362793,74.84367370605469,68.48781585693359
418,2292073702,-1.55132985115051,-78.51525115966797,45.01914215087891,-3.05622029304504,-0.44400116801262,-2.00707006454468,9.66657829284668,87.53503417968750,59.33527374267578
419,2292090369,-3.03677225112915,-77.08986663818359,47.02238845825195,-0.81143337488174,0.29120790958405,-3.49428272247314,29.02116394042969,83.35661315917969,29.32941055297852
420,2292107036,-2.58261299133301,-75.71920776367188,46.62848663330078,0.56094533205032,0.50249731540680,0.08439560234547,4.92970180511475,81.34006500244141,-0.97027659416199
421,2292123703,-1.31950628757477,-74.71668243408203,45.63622283935547,3.46635460853577,2.21081256866455,-1.94353091716766,18.87099075317383,59.55717468261719,-12.58096504211426
422,2292140370,-0.12654188275337,-73.42349243164062,44.44456100463867,4.17006778717041,1.85343301296234,-0.52120923995972,3.47007203102112,76.75400543212891,-18.08610916137695
423,2292157037,1.32753431797028,-72.42876434326172,42.93155670166016,3.70587134361267,2.24366259574890,-0.33957013487816,1.11339378356934,58.32429122924805,-26.71366500854492
424,2292173704,2.88849639892578,-71.72973632812500,41.20182418823242,2.68818402290344,1.53013837337494,-1.02499532699585,-4.44315958023071,39.66237640380859,-32.88649749755859
425,2292190371,4.29626035690308,-71.29690551757812,39.52443313598633,0.95365691184998,1.80824470520020,-1.45084357261658,-10.33148860931396,22.85110664367676,-32.90446472167969
426,2292207038,5.33958530426025,-71.03448486328125,37.94999313354492,0.32232290506363,2.78826546669006,-1.58940243721008,-26.15982627868652,12.05770969390869,-31.13782501220703
427,2292223705,5.88886880874634,-70.71926879882812,36.58567047119141,0.23249068856239,2.52697825431824,-0.95943117141724,-43.73093795776367,15.13942527770996,-27.96089553833008
428,2292240372,5.81405830383301,-70.18070220947266,35.56164550781250,-0.48717266321182,1.49347698688507,1.19984638690948,-61.73291778564453,28.99368476867676,-23.16770744323730
429,2292257039,5.55229711532593,-69.67884826660156,34.73379516601562,-1.67928171157837,-0.27035889029503,2.40026497840881,-61.70094299316406,27.22064971923828,-19.36208152770996
430,2292273706,5.18860530853271,-69.07543182373047,34.02822113037109,-2.86717319488525,-1.70534801483154,3.38586568832397,-60.78508377075195,33.59249114990234,-17.65612030029297
431,2292290373,5.14226245880127,-68.35278320312500,33.24306106567383,-4.44652509689331,-2.82430505752563,4.80675745010376,-46.01605224609375,40.57886505126953,-20.36232757568359
432,2292307040,5.40838813781738,-67.83146667480469,32.34816741943359,-4.17018222808838,-1.81323647499084,2.66798901557922,-33.18626403808594,28.22972297668457,-22.25600433349609
433,2292323707,5.03133964538574,-66.98767852783203,31.83292961120605,-0.06579475849867,0.15773637592793,2.72026634216309,-50.49552536010742,48.26032257080078,-15.86839771270752
434,2292340374,3.72508311271667,-66.05608367919922,32.26401138305664,11.94634914398193,-0.17525143921375,13.90585327148438,-53.97866439819336,55.43764877319336,6.56751680374146
435,2292357041,2.45202255249023,-64.04998016357422,33.01861572265625,46.57098388671875,4.96862840652466,20.28654289245605,-34.64355850219727,120.12953186035156,13.14359474182129
436,2292373708,1.83659279346466,-61.08508682250977,33.28249359130859,18.29192924499512,-1.72399342060089,20.49179840087891,-22.18708419799805,176.95640563964844,1.20306086540222
437,2292390375,2.14143252372742,-59.11647796630859,33.32858276367188,20.02147865295410,-6.43887090682983,13.34701347351074,21.36432456970215,116.98518371582031,-2.15406513214111
438,2292407042,0.96855521202087,-57.94229125976562,34.57072067260742,31.03115653991699,3.26802730560303,8.64234256744385,-6.11422824859619,70.36413574218750,37.53786849975586
439,2292423709,-0.25637650489807,-57.45409774780273,34.89795303344727,27.16851615905762,1.50687444210052,14.54256248474121,-56.21444702148438,28.26100921630859,10.87186336517334
440,2292440376,0.19629806280136,-57.20169067382812,33.56017684936523,25.78385925292969,0.27519136667252,14.34204292297363,-39.72328948974609,14.07766723632812,-42.75406646728516
441,2292457043,0.33740055561066,-57.00502395629883,32.94220352172852,30.77645874023438,-2.28288125991821,13.19516563415527,-21.98350524902344,10.62178230285645,-19.62793731689453
442,2292473710,0.06139733269811,-56.97456359863281,33.17868041992188,29.44037818908691,-3.70701503753662,13.73135757446289,-3.97730112075806,0.78113627433777,8.28217601776123
443,2292490377,-0.08424960821867,-57.21772384643555,33.58660125732422,27.55049133300781,-4.08677721023560,13.84318065643311,12.49756336212158,-15.65557098388672,13.84544658660889
444,2292507044,-0.21156848967075,-57.66958999633789,34.06468963623047,27.87462615966797,1.10899901390076,12.41366767883301,17.22775268554688,-28.20824050903320,15.91282844543457
445,2292523711,-0.06877743452787,-58.21602630615234,33.98918151855469,25.79803466796875,2.16742682456970,12.47551918029785,5.41267061233521,-33.83020019531250,-1.93545722961426
446,2292540378,0.32211416959763,-58.87764358520508,33.50225067138672,25.44881248474121,0.95460033416748,12.55488681793213,-0.78833216428757,-40.77381515502930,-14.60292911529541
447,2292557045,0.58698755502701,-59.77710723876953,33.10110092163086,25.53166770935059,1.28942692279816,10.85232067108154,-4.13072824478149,-55.09963989257812,-11.29521846771240
448,2292573712,0.75752174854279,-60.96791458129883,32.77635192871094,24.47715950012207,1.78600049018860,9.29396724700928,-6.03048992156982,-72.58551025390625,-8.23768138885498
449,2292590379,0.70079988241196,-62.51770019531250,32.43220901489258,23.11347198486328,0.71731591224670,7.52143096923828,-20.92312240600586,-94.13106536865234,-8.03588485717773
450,2292607046,0.79872554540634,-64.53848266601562,31.92696189880371,23.62094879150391,-2.89364242553711,5.29884290695190,-20.59702491760254,-122.42828369140625,-11.36985015869141
451,2292623713,1.50768041610718,-67.17068481445312,31.18692779541016,23.69099617004395,-1.83618414402008,3.67973184585571,2.66776466369629,-159.26770019531250,-14.43300056457520
452,2292640380,2.55495238304138,-70.60257720947266,30.35411643981934,24.03661537170410,1.20547819137573,1.30096459388733,16.83897018432617,-207.42892456054688,-10.14961814880371
453,2292657047,3.63132858276367,-75.00066375732422,29.11882400512695,19.09130096435547,1.03477799892426,-1.29164743423462,-5.64593935012817,-265.68154907226562,-7.10647058486938
454,2292673714,4.83279466629028,-79.87126922607422,28.07561492919922,11.68516635894775,0.76715195178986,-3.56870818138123,11.51331233978271,-293.48895263671875,8.52604103088379
455,2292690381,8.25008010864258,-82.87723541259766,24.32572555541992,8.84333324432373,-2.76328253746033,-1.33397781848907,-16.92948532104492,-183.99829101562500,-12.41174221038818
456,2292707048,6.33413457870483,-78.31608581542969,23.99373245239258,1.41878175735474,-6.42772245407104,22.30604362487793,-133.81730651855469,270.28610229492188,-37.43283843994141
457,2292723715,15.14674854278564,-80.41996002197266,16.36947059631348,2.04295539855957,-1.00660550594330,24.35152626037598,79.63294219970703,-140.49368286132812,-58.81757354736328
458,2292740382,16.89501571655273,-78.47028350830078,14.93244838714600,-11.37207412719727,2.30402994155884,24.11446189880371,20.78602600097656,107.10234069824219,-46.93832397460938
459,2292757049,24.24114608764648,-80.42691802978516,7.67990922927856,-9.92546367645264,-3.21488499641418,14.76375293731689,13.49774169921875,-138.78196716308594,-32.80877685546875
460,2292773716,33.38010025024414,-81.42606353759766,-0.32382595539093,-7.66872501373291,-5.42800998687744,-6.56602048873901,74.69004058837891,-89.98332214355469,-36.89046859741211
461,2292790383,37.43338012695312,-82.87027740478516,-3.30733418464661,-5.43893623352051,3.43473386764526,-6.94019174575806,66.43864440917969,-85.91564178466797,30.83763122558594
462,2292807050,33.67630004882812,-84.24711608886719,0.00250858673826,9.36047077178955,8.07591724395752,-4.11550235748291,-27.49434852600098,-55.42137908935547,66.70108032226562
463,2292823717,25.90520095825195,-84.18341064453125,7.12276411056519,11.98732471466064,1.69020664691925,-1.14285516738892,-40.58045578002930,23.58259010314941,35.92844390869141
464,2292840384,24.15772438049316,-84.02197265625000,8.35380554199219,7.61412954330444,-0.46224221587181,1.54914999008179,-30.73508071899414,10.92342185974121,3.30846905708313
465,2292857051,20.47968482971191,-83.41924285888672,11.50708007812500,2.72565793991089,-1.27438807487488,3.04650473594666,-31.95467567443848,40.26567459106445,5.91276025772095
466,2292873718,15.34675216674805,-81.99129486083984,16.43672561645508,1.46408355236053,-2.06280231475830,4.64302587509155,-13.87928962707520,91.99224853515625,9.87859630584717
467,2292890385,13.20902919769287,-80.81496429443359,18.49069023132324,-0.84809213876724,-2.28140306472778,6.40927028656006,-5.73606252670288,71.89949035644531,0.96285015344620
468,2292907052,13.67083168029785,-80.28854370117188,18.49213409423828,-1.29301583766937,-2.65059494972229,4.35862970352173,28.43836212158203,29.65001869201660,-6.79431581497192
469,2292923719,14.67746543884277,-79.69474029541016,18.05097007751465,-0.48787316679955,-0.66944265365601,2.90601396560669,34.97871398925781,32.33634948730469,-12.65146827697754
470,2292940386,14.27502727508545,-78.81230926513672,18.64824676513672,-1.05169558525085,1.99685680866241,1.25868904590607,11.72042655944824,51.85259246826172,-6.23732519149780
471,2292957053,13.18102931976318,-77.92218780517578,19.46289825439453,-4.64407587051392,2.54740667343140,1.77016890048981,-17.10194778442383,53.13301467895508,-2.56604266166687
472,2292973720,12.27605247497559,-77.42041015625000,20.13464927673340,-3.50040769577026,1.89544153213501,0.54274541139603,-14.26811695098877,30.16547584533691,2.30365371704102
473,2292990387,11.21261978149414,-77.10892486572266,21.00608634948730,-1.45695912837982,1.22546172142029,-0.02848873101175,-12.15250110626221,19.54547691345215,8.02880382537842
474,2293007054,9.60356330871582,-76.56793212890625,22.28064346313477,0.55291903018951,0.83686143159866,-1.57996392250061,-21.42556953430176,33.97107315063477,11.81316184997559
475,2293023721,7.66526365280151,-75.72791290283203,23.71937179565430,1.22378945350647,0.16851606965065,-0.51550364494324,-31.82497978210449,51.84572219848633,13.42021465301514
476,2293040388,6.05911016464233,-74.94554901123047,24.87850952148438,2.07837915420532,-0.41301944851875,0.22076186537743,-28.42704391479492,47.63205718994141,12.42831611633301
477,2293057055,4.82190513610840,-74.17071533203125,25.76187515258789,2.88609814643860,-1.63207900524139,0.80168044567108,-22.48695945739746,46.54770660400391,10.20262432098389
478,2293073722,4.38717985153198,-73.47998046875000,26.09480476379395,1.60453617572784,-2.04210209846497,1.00250172615051,-6.24845457077026,40.68532943725586,2.78352856636047
479,2293090389,4.54539203643799,-72.92457580566406,25.89126014709473,-0.18848371505737,-1.26571178436279,0.03270174935460,-1.54669904708862,31.88156509399414,-5.54653358459473
480,2293107056,4.79712343215942,-72.40285491943359,25.50042724609375,-1.02314841747284,-0.47676873207092,-0.00575784081593,-6.62840366363525,29.56828880310059,-8.94359493255615
481,2293123723,4.60100126266479,-71.82965850830078,25.40576171875000,-0.73855459690094,0.41340017318726,0.02793208137155,-16.52155685424805,33.07616806030273,-3.98496508598328
482,2293140390,3.91185307502747,-71.35442352294922,25.71208381652832,-0.61344081163406,0.66107130050659,1.17499518394470,-23.25786590576172,27.81181716918945,4.24537563323975
483,2293157057,2.95228672027588,-70.96652984619141,26.22517967224121,-0.73216331005096,0.12386755645275,1.64332258701324,-27.78828239440918,22.77558708190918,9.10730552673340
484,2293173724,2.01394796371460,-70.87381744384766,26.81255340576172,-1.57964038848877,-0.38251107931137,1.25675666332245,-22.34549903869629,5.00625658035278,11.84888553619385
485,2293190391,1.19372999668121,-71.01419830322266,27.36704635620117,-1.63118541240692,-0.20465201139450,0.39611923694611,-17.12081909179688,-9.16632175445557,11.67715835571289
486,2293207058,0.64957493543625,-71.26503753662109,27.65819549560547,-0.87192893028259,0.33002242445946,-0.70941054821014,-15.47696971893311,-16.00401687622070,6.47494029998779
487,2293223725,0.35505211353302,-71.16188812255859,27.65944671630859,-0.35268980264664,-0.09226228296757,-0.00472196051851,-16.95979499816895,5.14905452728271,0.56189203262329
488,2293240392,-0.16212482750416,-71.13368988037109,27.79778099060059,-0.94676572084427,0.47470173239708,2.40944719314575,-22.53417968750000,0.66394644975662,3.27441024780273
489,2293257059,-0.53881889581680,-71.33766937255859,28.10255050659180,4.02469778060913,-7.29417085647583,6.23000097274780,-4.65027093887329,-13.30952167510986,6.40469789505005
490,2293273726,-0.17691785097122,-71.21035766601562,28.17661094665527,19.91502761840820,-0.69442796707153,17.20313453674316,26.55888938903809,6.59729814529419,2.06712937355042
491,2293290393,-0.16089119017124,-69.95323944091797,28.28736495971680,93.58166503906250,3.33506608009338,35.85859680175781,7.87430572509766,74.38569641113281,3.03049039840698
492,2293307060,-1.92991518974304,-67.67362213134766,30.88408660888672,39.63777542114258,-3.90802979469299,17.24397468566895,39.80134582519531,134.66578674316406,59.39313507080078
493,2293323727,-1.88025224208832,-66.39611816406250,31.16845893859863,2.11191654205322,4.49893999099731,-0.53223097324371,19.33263969421387,75.35698699951172,9.81027126312256
494,2293340394,-2.69932150840759,-66.73924255371094,31.90283775329590,30.62269401550293,3.10791683197021,-0.53876519203186,-8.07823848724365,-22.30449676513672,17.29911231994629
495,2293357061,-2.69061803817749,-67.17429351806641,31.12984848022461,27.58960723876953,1.14931440353394,2.58794760704041,-41.52317428588867,-26.23449707031250,-18.73683166503906
496,2293373728,-2.48484683036804,-67.15412139892578,30.25081634521484,30.87697792053223,-1.05145525932312,6.25849485397339,-35.62973403930664,1.13420104980469,-19.76417541503906
497,2293390395,-2.24606823921204,-66.75553131103516,29.56435203552246,22.62428092956543,-2.02555680274963,8.02355384826660,-22.94116020202637,23.57660865783691,-14.49177455902100
498,2293407062,-1.56684565544128,-66.29534912109375,28.73451995849609,16.52622222900391,-2.00129699707031,4.02890682220459,-4.28520631790161,27.27483749389648,-18.27226448059082
499,2293423729,-0.74903929233551,-65.62644958496094,27.84507369995117,13.42984390258789,-2.00676465034485,2.81949615478516,0.96289700269699,39.59055328369141,-20.29075431823730
500,2293440396,0.10793033242226,-65.40969085693359,27.43057441711426,10.97521591186523,-0.55609792470932,2.88309502601624,29.41462326049805,12.09428691864014,-9.60238647460938
501,2293457063,0.72073185443878,-65.29203796386719,27.44644737243652,9.07155036926270,-1.43854296207428,2.99673557281494,38.26249313354492,6.09215402603149,0.97707855701447
502,2293473730,1.54982614517212,-65.33379364013672,27.18388938903809,7.43291807174683,-0.79106694459915,2.60275483131409,36.06080245971680,-3.60042572021484,-5.89525794982910
503,2293490397,2.16024136543274,-65.52220916748047,26.79632568359375,4.91560649871826,-0.12796701490879,1.65830385684967,16.10436630249023,-12.57642173767090,-8.66427993774414
504,2293507064,2.31867885589600,-65.90750885009766,26.86574363708496,3.47187805175781,0.02318011224270,1.11679744720459,13.93161773681641,-23.99612236022949,3.25052928924561
505,2293523731,2.48474168777466,-66.53369140625000,26.93267250061035,3.26505875587463,0.17148132622242,0.73321837186813,14.26454162597656,-38.43471908569336,3.82875013351440
506,2293540398,2.83037686347961,-67.25391387939453,26.83113670349121,3.05394554138184,-0.41685083508492,1.25298106670380,15.75955200195312,-44.23988723754883,0.25465625524521
507,2293557065,3.30642175674438,-68.05828857421875,26.65103721618652,2.94901347160339,-0.71932935714722,1.98384010791779,19.18952941894531,-49.37547683715820,-0.87850505113602
508,2293573732,3.81365036964417,-68.89974212646484,26.46808052062988,4.32832765579224,-0.60424333810806,2.64794850349426,20.84103584289551,-51.60297775268555,-0.24332967400551
509,2293590399,4.32496738433838,-69.68840026855469,26.31190109252930,6.29595565795898,-0.24566684663296,3.18406724929810,22.53306198120117,-48.39809036254883,0.69545572996140
510,2293607066,5.05614471435547,-70.46802520751953,25.97769165039062,9.02945041656494,0.01529912184924,3.59389853477478,25.63856887817383,-48.14033126831055,-2.33999443054199
511,2293623733,6.04158878326416,-71.16622924804688,25.33331871032715,10.38502025604248,0.21830186247826,4.13808870315552,23.22830963134766,-43.88430786132812,-7.94662141799927
512,2293640400,7.17619800567627,-71.80622100830078,24.47160339355469,9.11934947967529,0.67066758871078,4.31026887893677,19.66757011413574,-40.99483489990234,-11.23934364318848
513,2293657067,8.09350395202637,-72.39832305908203,23.73935317993164,8.61699295043945,1.09332549571991,4.46922540664673,13.84521770477295,-37.96617889404297,-8.01281929016113
514,2293673734,8.71139240264893,-73.03555297851562,23.24999427795410,9.16448974609375,1.10773038864136,4.03770112991333,9.65475940704346,-40.05908203125000,-2.39134430885315
515,2293690401,9.23048686981201,-73.74237060546875,22.86182022094727,9.29225063323975,1.19891285896301,3.52624726295471,9.44300937652588,-43.89076614379883,0.68855112791061
516,2293707068,9.61928939819336,-74.57072448730469,22.60028266906738,9.26291656494141,0.93495291471481,2.91342115402222,8.84318733215332,-50.70042419433594,4.56608247756958
517,2293723735,10.05567646026611,-75.43218994140625,22.33867263793945,9.43484973907471,0.53900808095932,2.34434342384338,11.63438224792480,-52.58885955810547,5.48379993438721
518,2293740402,10.76226139068604,-76.27490234375000,21.82180976867676,9.31681632995605,0.02160344272852,1.96001565456390,12.93248271942139,-52.06399536132812,2.33766937255859
519,2293757069,11.63058280944824,-77.06558227539062,21.19606018066406,9.38699340820312,-0.37384516000748,1.74765026569366,16.17117691040039,-49.18688964843750,1.37928247451782
520,2293773736,12.49699878692627,-77.83808135986328,20.63804435729980,9.71786785125732,-0.22716802358627,1.68258786201477,19.91023254394531,-47.81150436401367,3.23285269737244
521,2293790403,13.23173141479492,-78.57892608642578,20.22990036010742,10.15948104858398,0.15841819345951,1.70966470241547,20.71672058105469,-45.41935348510742,5.67848825454712
522,2293807070,13.75987815856934,-79.26455688476562,20.01260757446289,10.41049480438232,0.33971574902534,1.90942311286926,19.50152015686035,-41.55131912231445,7.82321596145630
523,2293823737,14.09779453277588,-79.91726684570312,19.94605827331543,10.31232547760010,0.36195445060730,1.81756305694580,16.95063591003418,-39.15079116821289,9.38558101654053
524,2293840404,14.31478309631348,-80.51970672607422,19.95363044738770,10.10673809051514,0.60281813144684,1.74235677719116,14.06848049163818,-35.99763488769531,9.60778617858887
525,2293857071,14.61222553253174,-81.09172821044922,19.83489799499512,9.91749763488770,0.74925619363785,1.86516165733337,11.41701698303223,-34.48684692382812,8.13186645507812
526,2293873738,15.05493259429932,-81.64093017578125,19.52067565917969,9.84343528747559,1.01034641265869,1.69149959087372,8.52471256256104,-33.54641342163086,6.36411809921265
527,2293890405,15.65517997741699,-82.17920684814453,18.99955749511719,9.74365901947021,0.98613286018372,1.74468123912811,5.65135002136230,-33.29133605957031,4.97961616516113
528,2293907072,16.40950012207031,-82.71597290039062,18.28398704528809,9.72548770904541,0.83218371868134,1.61672532558441,3.29796862602234,-33.47907638549805,4.14155244827271
529,2293923739,17.40644645690918,-83.23856353759766,17.29060554504395,9.81940746307373,0.52768391370773,1.40033566951752,1.25137746334076,-33.09903717041016,2.82431077957153
530,2293940406,18.68843650817871,-83.72034454345703,16.00531387329102,10.08605480194092,0.08035703003407,1.24681878089905,0.89753597974777,-31.17322540283203,1.31064474582672
531,2293957073,20.03679656982422,-84.16763305664062,14.67079734802246,9.97015476226807,-0.19632665812969,1.15214455127716,1.86592960357666,-29.09894180297852,1.61315691471100
532,2293973740,21.53374290466309,-84.60824584960938,13.24221420288086,9.90340042114258,-0.24145261943340,1.06375908851624,5.10182189941406,-28.66970634460449,2.23353648185730
533,2293990407,23.19833564758301,-85.02807617187500,11.71791648864746,9.95644092559814,-0.21235890686512,1.01426470279694,9.37533950805664,-27.42024993896484,2.64013934135437
534,2294007074,25.15866851806641,-85.41542053222656,9.93436527252197,10.08005809783936,0.01253805216402,0.91059213876724,11.55705928802490,-25.84306526184082,2.09082198143005
535,2294023741,27.26110076904297,-85.72258758544922,8.02305221557617,10.37667465209961,0.18702828884125,0.95274543762207,12.39137458801270,-21.42589378356934,0.89590853452682
536,2294040408,29.52724266052246,-85.98960876464844,5.96847152709961,10.32236480712891,0.38891831040382,0.91638755798340,13.59873104095459,-19.29813766479492,0.48908829689026
537,2294057075,31.69647407531738,-86.23236083984375,4.00140810012817,10.11456775665283,0.42353931069374,0.87238347530365,12.98567295074463,-17.59156608581543,1.24412608146667
538,2294073742,33.87363433837891,-86.46759033203125,2.01706361770630,10.04405879974365,0.18261662125587,0.85452413558960,12.38705062866211,-16.94904518127441,1.99121129512787
539,2294090409,36.17455291748047,-86.66898345947266,-0.06770312786102,10.03696537017822,0.02281833626330,0.81892365217209,13.77964878082275,-15.15769958496094,1.52245926856995
540,2294107076,38.83904647827148,-86.84657287597656,-2.48518347740173,9.83418464660645,0.08845968544483,0.54575103521347,15.63560390472412,-14.41157817840576,0.71299469470978
541,2294123743,41.33567047119141,-86.98429107666016,-4.76024627685547,9.77576637268066,0.19416058063507,0.52964854240417,14.08909988403320,-11.99485683441162,0.41951084136963
542,2294140410,43.69081497192383,-87.10260772705078,-6.90495347976685,9.82964420318604,0.21804425120354,0.55656737089157,13.38438034057617,-10.66715717315674,0.62966328859329
543,2294157077,46.01063537597656,-87.22132110595703,-9.05281352996826,9.76039505004883,0.35017108917236,0.51065397262573,11.07442665100098,-10.49137306213379,1.22252070903778
544,2294173744,48.57612609863281,-87.34657287597656,-11.49911785125732,9.76018619537354,0.41814735531807,0.38543015718460,7.90517139434814,-11.16200160980225,1.55654847621918
545,2294190411,50.80110549926758,-87.44441986083984,-13.65544414520264,10.01466941833496,0.25847831368446,0.42869725823402,4.85908937454224,-9.20812034606934,1.39036023616791
546,2294207078,52.47506713867188,-87.50801849365234,-15.26837253570557,10.19959163665771,0.23117704689503,0.56426531076431,4.35998630523682,-6.64894914627075,1.06477141380310
547,2294223745,53.54215240478516,-87.54035186767578,-16.26692581176758,10.10689163208008,0.29446449875832,0.57666122913361,4.78330039978027,-4.16687297821045,0.68017095327377
548,2294240412,54.15999984741211,-87.56144714355469,-16.83293914794922,9.91064548492432,0.29766446352005,0.38803437352180,3.74912333488464,-2.85433745384216,0.84214562177658
549,2294257079,54.73039245605469,-87.58224487304688,-17.37475776672363,9.71685028076172,0.13127021491528,0.55151158571243,2.34773707389832,-2.80017876625061,0.91519308090210
550,2294273746,55.72509002685547,-87.61756134033203,-18.33375167846680,9.78633975982666,0.03050184994936,0.58198845386505,2.79900717735291,-4.12862062454224,1.06696116924286
551,2294290413,57.06563186645508,-87.65966796875000,-19.61785316467285,9.65769004821777,0.12912032008171,0.54087942838669,4.07808065414429,-4.96499156951904,1.03853118419647
552,2294307080,58.99563598632812,-87.71440887451172,-21.49449348449707,9.64158153533936,0.14719074964523,0.32801187038422,3.89893245697021,-6.51418733596802,1.09518647193909
553,2294323747,60.14575195312500,-87.74927520751953,-22.59075546264648,9.86807727813721,0.11032278835773,0.38891729712486,3.90007185935974,-4.23539972305298,1.18403673171997
554,2294340414,61.00707244873047,-87.77191162109375,-23.39898490905762,9.84468555450439,0.15217876434326,0.55086088180542,3.82502627372742,-3.25986289978027,0.95733875036240
555,2294357081,62.43337249755859,-87.79930877685547,-24.78122138977051,9.68755340576172,0.04378681257367,0.52161616086960,3.33722019195557,-4.51126146316528,0.61049157381058
556,2294373748,64.43004608154297,-87.83399963378906,-26.72597122192383,9.73139190673828,0.02272595092654,0.34139102697372,3.82766532897949,-5.81290006637573,0.57960271835327
557,2294390415,65.47105407714844,-87.86100769042969,-27.71316146850586,9.95568466186523,0.06542599946260,0.37533789873123,3.88488316535950,-3.63353943824768,1.22828280925751
558,2294407082,65.85357666015625,-87.88668823242188,-28.03743171691895,9.98626613616943,0.13457471132278,0.41377460956573,4.11829137802124,-2.23308801651001,1.78580701351166
559,2294423749,66.58905029296875,-87.91671752929688,-28.72110939025879,9.79414749145508,0.21040415763855,0.33300280570984,3.74830412864685,-3.03234553337097,1.72611701488495
560,2294440416,67.51580810546875,-87.94538879394531,-29.60160636901855,9.77336502075195,0.12745729088783,0.34390613436699,3.42396998405457,-3.35611510276794,1.53345799446106
561,2294457083,68.48264312744141,-87.96606445312500,-30.51845359802246,9.84356689453125,0.07777868211269,0.44312027096748,3.66151499748230,-3.20521807670593,1.09218966960907
562,2294473750,69.38682556152344,-87.97977447509766,-31.37178230285645,9.85578918457031,0.07553278654814,0.43843713402748,3.68525815010071,-2.91936779022217,0.82853251695633
563,2294490417,70.21884918212891,-87.99065399169922,-32.15870666503906,9.88796710968018,0.18063127994537,0.43519225716591,3.35874676704407,-2.70957374572754,0.72300803661346
564,2294507084,70.96781921386719,-87.99973297119141,-32.87581634521484,9.91889762878418,0.19195155799389,0.35624474287033,2.57138705253601,-2.51924610137939,0.67214131355286
565,2294523751,71.53639984130859,-88.00767517089844,-33.42383956909180,9.88985347747803,0.11148594319820,0.34273865818977,1.86034011840820,-2.17261672019958,0.77431041002274
566,2294540418,71.72190093994141,-88.01081848144531,-33.58787155151367,9.90944957733154,0.05821745097637,0.40054517984390,1.90991342067719,-1.32361948490143,0.73662126064301
567,2294557085,72.19312286376953,-88.01219940185547,-34.04090118408203,9.85253524780273,0.15708476305008,0.46902894973755,1.72492575645447,-1.86078202724457,0.47904717922211
568,2294573752,73.42362976074219,-88.01338195800781,-35.26418304443359,9.76483726501465,0.21544666588306,0.40267717838287,1.09828531742096,-3.36199355125427,-0.00532103842124
569,2294590419,74.82599639892578,-88.01101684570312,-36.67451858520508,9.86782646179199,0.13102963566780,0.28688475489616,0.22088393568993,-3.68552064895630,-0.27047652006149
570,2294607086,75.16120910644531,-87.99611663818359,-37.01541519165039,10.00918769836426,0.05614628270268,0.27949705719948,0.28633716702461,-1.38908541202545,-0.38554155826569
571,2294623753,74.61032104492188,-87.97011566162109,-36.46213150024414,9.99661445617676,0.01027805544436,0.25372156500816,0.74858242273331,0.58567285537720,-0.57648432254791
572,2294640420,73.31422424316406,-87.93816375732422,-35.15546035766602,9.98584270477295,-0.03317026421428,0.21700346469879,1.18722546100616,2.24716854095459,-0.43398794531822
573,2294657087,71.73915100097656,-87.90725708007812,-33.55442810058594,9.99467658996582,-0.03943938761950,0.24515275657177,2.09668135643005,2.89743661880493,-0.08981733769178
574,2294673754,69.87491607666016,-87.87957000732422,-31.66440200805664,9.90540122985840,0.07156942039728,0.29359000921249,2.06563854217529,3.49419951438904,0.44103786349297
575,2294690421,67.91331481933594,-87.85752868652344,-29.68972969055176,9.81064605712891,0.13760979473591,0.27553871273994,1.31531488895416,3.61519479751587,0.94154864549637
576,2294707088,65.98214721679688,-87.83580780029297,-27.74882125854492,9.74473285675049,0.18002413213253,0.29434093832970,1.09130597114563,3.54386281967163,1.16573631763458
577,2294723755,64.66400146484375,-87.81466674804688,-26.42613792419434,9.73697757720947,0.30040180683136,0.29391598701477,0.81607180833817,2.29024910926819,0.75657349824905
578,2294740422,62.76375579833984,-87.77930450439453,-24.53552246093750,9.74757385253906,0.38149771094322,0.28634360432625,-0.05739166587591,3.87542033195496,0.64514559507370
579,2294757089,61.12970352172852,-87.74623107910156,-22.93889999389648,9.64824962615967,0.25329881906509,0.28337886929512,-1.71076834201813,3.26002335548401,0.64281475543976
580,2294773756,60.21230697631836,-87.72050476074219,-22.06556129455566,9.59988307952881,0.22254066169262,0.33544549345970,-2.05887031555176,1.60950195789337,0.30813354253769
581,2294790423,59.95689010620117,-87.70169067382812,-21.85897254943848,9.66489124298096,0.22341452538967,0.32737350463867,-2.32018423080444,0.05372263863683,-0.08459235727787
582,2294807090,60.09532546997070,-87.70279693603516,-22.06291961669922,9.68747520446777,0.22625309228897,0.27651208639145,-3.31259942054749,-1.40267312526703,0.49287804961205
583,2294823757,60.39039611816406,-87.71432495117188,-22.44789695739746,9.75051212310791,0.17033304274082,0.25636157393456,-4.76499319076538,-2.08650660514832,0.82581752538681
584,2294840424,60.78128814697266,-87.71878051757812,-22.92157554626465,9.73387050628662,0.04408739134669,0.29709586501122,-4.32760524749756,-2.05203223228455,0.35018968582153
585,2294857091,61.00927352905273,-87.71535491943359,-23.23339843750000,9.77252769470215,0.05424167588353,0.33501100540161,-4.39925718307495,-1.49075531959534,0.13559365272522
586,2294873758,61.29166793823242,-87.71689605712891,-23.60026931762695,9.79957485198975,0.01733532734215,0.40229037404060,-4.43327093124390,-1.74868822097778,0.32916167378426
587,2294890425,61.83148193359375,-87.72704315185547,-24.21948814392090,9.79038429260254,0.03827728331089,0.30058392882347,-4.11232995986938,-2.51922035217285,0.50828403234482
588,2294907092,62.25345230102539,-87.73947143554688,-24.71558189392090,9.79921436309814,0.07960525900126,0.36838409304619,-3.81378889083862,-2.32831621170044,0.79325097799301
589,2294923759,62.59402084350586,-87.75746154785156,-25.12717247009277,9.83506488800049,0.09905293583870,0.39989909529686,-3.61808180809021,-2.29183077812195,1.17508494853973
590,2294940426,62.76776504516602,-87.77718353271484,-25.37279129028320,9.83086204528809,0.05807650834322,0.43821600079536,-3.69274306297302,-1.99645233154297,1.46496951580048
591,2294957093,63.00699234008789,-87.79948425292969,-25.66540718078613,9.78934097290039,-0.03302801400423,0.42866575717926,-2.57743835449219,-2.15471339225769,1.56127345561981
592,2294973760,63.58520889282227,-87.82219696044922,-26.27648162841797,9.76368331909180,0.04560909047723,0.42626225948334,-1.33089339733124,-2.79757881164551,1.27088928222656
593,2294990427,64.04499816894531,-87.83988189697266,-26.76333236694336,9.83056354522705,0.10727766901255,0.45962148904800,-0.98959141969681,-2.39935278892517,1.15223836898804
594,2295007094,64.20986938476562,-87.85689544677734,-26.95089721679688,9.85199832916260,0.14523465931416,0.42092162370682,-0.74629652500153,-1.76945984363556,1.41004323959351
595,2295023761,64.15670776367188,-87.86962890625000,-26.92755508422852,9.82308387756348,0.17791387438774,0.46565425395966,-1.18931925296783,-1.23984038829803,1.39831256866455
596,2295040428,64.01709747314453,-87.87846374511719,-26.82802963256836,9.79380607604980,0.11841046065092,0.46664834022522,-1.79441940784454,-0.97971785068512,1.23953938484192
597,2295057095,63.86110305786133,-87.88687133789062,-26.71115493774414,9.84009552001953,0.07523848861456,0.45956349372864,-1.74152922630310,-0.94079935550690,1.24061524868011
598,2295073762,63.46883773803711,-87.89039611816406,-26.35469627380371,9.85347938537598,0.21451082825661,0.42866030335426,-1.55333983898163,-0.34331902861595,1.20543611049652
599,2295090429,63.39040756225586,-87.90100097656250,-26.32372474670410,9.81988716125488,0.15685439109802,0.44084566831589,-2.23521351814270,-1.16621649265289,1.26129722595215
600,2295107096,63.55734252929688,-87.91390991210938,-26.53823661804199,9.88945007324219,0.08477697521448,0.38739675283432,-2.22128081321716,-1.70223927497864,1.14446520805359
601,2295123763,63.46137237548828,-87.91634368896484,-26.48325538635254,9.90705204010010,0.11200197786093,0.42240005731583,-1.86979758739471,-0.91566050052643,0.87582629919052
602,2295140430,63.13640975952148,-87.90538787841797,-26.20186042785645,9.86754798889160,0.11639400571585,0.48378011584282,-1.99432623386383,-0.09756517410278,0.33276018500328
603,2295157097,62.90249252319336,-87.89076232910156,-26.00498962402344,9.80176639556885,0.12165796756744,0.46032598614693,-1.60480856895447,-0.14711293578148,0.04325985163450
604,2295173764,62.75620269775391,-87.88345336914062,-25.90465545654297,9.81738567352295,0.14493499696255,0.51446634531021,-2.15092253684998,-0.55936217308044,0.39544728398323
605,2295190431,62.73745346069336,-87.88243103027344,-25.93585968017578,9.84828186035156,0.14607909321785,0.48488685488701,-2.39685583114624,-0.98075509071350,0.58820849657059
606,2295207098,62.79282760620117,-87.87846374511719,-26.03355979919434,9.88131237030029,0.03318786621094,0.51773363351822,-1.91835939884186,-1.02606403827667,0.35651597380638
607,2295223765,62.86373519897461,-87.86870574951172,-26.12770462036133,9.85731983184814,0.04685372486711,0.53976553678513,-0.76362335681915,-0.85465091466904,0.03410330787301
608,2295240432,62.68159103393555,-87.85260772705078,-25.95116996765137,9.89516544342041,0.11866928637028,0.40198358893394,0.27829477190971,-0.14433394372463,-0.03596663102508
609,2295257099,62.40979385375977,-87.83680725097656,-25.69644165039062,9.82840442657471,0.13965447247028,0.48096412420273,-0.41832581162453,-0.00159439037088,0.08165328204632
610,2295273766,62.46606445312500,-87.83038330078125,-25.76448059082031,9.77371501922607,0.01202008221298,0.44510695338249,-0.08265857398510,-0.89743691682816,0.24351273477077
611,2295290433,62.14901351928711,-87.82040405273438,-25.44617271423340,9.81714630126953,0.06889563053846,0.38812935352325,0.68251442909241,-0.02061181887984,0.44413700699806
612,2295307100,61.63350296020508,-87.81323242187500,-24.92387199401855,9.79989528656006,0.16905140876770,0.43151536583900,0.97326976060867,0.28540229797363,0.86646479368210
613,2295323767,61.33755874633789,-87.80947113037109,-24.62190246582031,9.73758125305176,0.21549651026726,0.43931329250336,0.97919917106628,-0.22378455102444,0.76806080341339
614,2295340434,61.29156494140625,-87.81054687500000,-24.57999420166016,9.72817039489746,0.14353644847870,0.43315678834915,0.36484014987946,-0.89346706867218,0.76853466033936
615,2295357101,61.49840164184570,-87.81627655029297,-24.79887199401855,9.79832363128662,0.06280324608088,0.42720994353294,-0.10547950863838,-1.55345511436462,0.74540638923645
616,2295373768,61.59780883789062,-87.81923675537109,-24.90378189086914,9.82431793212891,0.12404271960258,0.42165043950081,0.28218793869019,-1.24506533145905,0.72161215543747
617,2295390435,61.27528762817383,-87.80768585205078,-24.58948326110840,9.80317687988281,0.19498553872108,0.43500652909279,0.11926553398371,0.02371735870838,0.37167870998383
618,2295407102,60.59774780273438,-87.79442596435547,-23.92332267761230,9.76982975006104,0.18538367748260,0.48061689734459,-0.09654066711664,0.77518117427826,0.68898165225983
619,2295423769,60.36278152465820,-87.79833221435547,-23.70791053771973,9.72883510589600,0.10073884576559,0.52285295724869,-0.57416623830795,-0.63701981306076,1.11484396457672
620,2295440436,60.43028259277344,-87.81269073486328,-23.79133224487305,9.82455348968506,0.14049476385117,0.44922551512718,-0.33708229660988,-1.53573095798492,1.31852877140045
621,2295457103,60.34471511840820,-87.82489776611328,-23.72258567810059,9.87694931030273,0.11556747555733,0.39044368267059,-0.41069319844246,-1.19097113609314,1.40864706039429
622,2295473770,60.18702697753906,-87.83789062500000,-23.59294319152832,9.79722785949707,0.14086043834686,0.43569394946098,-1.07759666442871,-1.07550930976868,1.47678995132446
623,2295490437,60.51016998291016,-87.85762786865234,-23.95144653320312,9.79665946960449,0.01392308250070,0.43425831198692,-1.49655640125275,-2.24091243743896,1.32467591762543
624,2295507104,60.79591751098633,-87.87634277343750,-24.26307678222656,9.88050460815430,-0.00754714896902,0.36769533157349,-0.92754459381104,-2.09717416763306,1.30838620662689
625,2295523771,60.84349060058594,-87.88724517822266,-24.33027648925781,9.85236358642578,-0.01270377449691,0.35199484229088,-0.56424134969711,-1.40738594532013,1.18687975406647
626,2295540438,60.72072982788086,-87.89179229736328,-24.22312355041504,9.82628631591797,0.03379852697253,0.35898193717003,-0.32457053661346,-0.86905819177628,1.00447893142700
627,2295557105,60.53015518188477,-87.89104461669922,-24.04602813720703,9.84456729888916,0.04893684387207,0.38518226146698,-0.21207955479622,-0.59555286169052,0.82568937540054
628,2295573772,60.50915145874023,-87.89225769042969,-24.04168891906738,9.85460090637207,0.09682396799326,0.39673551917076,-0.37475863099098,-0.96634799242020,0.71930706501007
629,2295590439,60.70024108886719,-87.89606475830078,-24.24156951904297,9.79947566986084,0.09725507348776,0.38892033696175,0.09412666410208,-1.43823623657227,0.64894890785217
630,2295607106,60.51498413085938,-87.89513397216797,-24.06758880615234,9.76453590393066,0.06240903213620,0.36804032325745,-0.08264577388763,-0.59197992086411,0.80450767278671
631,2295623773,60.18253326416016,-87.89457702636719,-23.74015808105469,9.76692199707031,0.04637811705470,0.38073620200157,0.30431729555130,-0.30527138710022,0.97753435373306
632,2295640440,59.98197174072266,-87.89792633056641,-23.54282569885254,9.78584861755371,0.08335196226835,0.37208244204521,0.41057795286179,-0.68018364906311,1.06105089187622
633,2295657107,60.10019302368164,-87.90650939941406,-23.66162109375000,9.77439022064209,0.02992832846940,0.38319870829582,0.58965557813644,-1.41861712932587,0.96386992931366
634,2295673774,60.31527709960938,-87.91728973388672,-23.87641334533691,9.76204776763916,0.03677689656615,0.41293442249298,0.63824284076691,-1.68199229240417,1.01369929313660
635,2295690441,60.35125350952148,-87.92887878417969,-23.91958045959473,9.74366569519043,0.07047328352928,0.37261736392975,0.17419193685055,-1.38648569583893,1.24751746654510
636,2295707108,60.20100784301758,-87.94300079345703,-23.77852058410645,9.82096862792969,0.14138850569725,0.41529130935669,0.05858904868364,-1.10204398632050,1.53969442844391
637,2295723775,60.34169006347656,-87.96029663085938,-23.93701553344727,9.81109809875488,0.13027742505074,0.51269698143005,-0.45673209428787,-1.75941967964172,1.40799415111542
638,2295740442,60.04132461547852,-87.96260833740234,-23.64701843261719,9.89469528198242,0.14738126099110,0.35947364568710,-0.02367253787816,-0.49226972460747,1.09678709506989
639,2295757109,59.15747070312500,-87.95560455322266,-22.78846740722656,9.81382369995117,-0.00175985123497,0.40063041448593,-0.95602619647980,0.82559978961945,1.21735882759094
640,2295773776,59.25038909912109,-87.96904754638672,-22.89665222167969,9.70340728759766,-0.02025597542524,0.35304197669029,-0.29862487316132,-1.55681014060974,1.23993635177612
641,2295790443,59.19321441650391,-87.97832489013672,-22.84151458740234,9.83199214935303,-0.06542859971523,0.20091238617897,0.49728339910507,-1.12571024894714,1.18657255172729
642,2295807110,58.32944107055664,-87.97165679931641,-21.97102165222168,9.72903442382812,0.06782080978155,0.35418787598610,0.97744470834732,0.81955522298813,1.25951743125916
643,2295823777,58.36443328857422,-87.98500823974609,-22.00601196289062,9.65269184112549,0.19919186830521,0.50820815563202,0.62082624435425,-1.43374121189117,1.31144702434540
644,2295840444,59.13376235961914,-88.02256011962891,-22.79150772094727,9.77512168884277,0.19325709342957,0.48195064067841,-0.33998939394951,-3.51788568496704,1.77741920948029
645,2295857111,60.04840850830078,-88.05559539794922,-23.72600555419922,9.82853603363037,0.10789920389652,0.45315945148468,-0.54051131010056,-3.58915305137634,1.42437362670898
646,2295873778,60.92465209960938,-88.07878875732422,-24.62799072265625,9.79114341735840,0.06032608076930,0.47397223114967,-0.91023063659668,-3.21755051612854,1.01869380474091
647,2295890445,61.90313720703125,-88.09597015380859,-25.63668060302734,9.82496738433838,0.08079339563847,0.48190957307816,-1.16841948032379,-3.20902180671692,0.65382826328278
648,2295907112,63.15439605712891,-88.11788940429688,-26.92848205566406,9.85755634307861,0.09999749064445,0.48289319872856,-1.76022636890411,-3.79096770286560,0.66466230154037
649,2295923779,64.55973052978516,-88.14259338378906,-28.38161087036133,9.86125469207764,0.08640644699335,0.45263689756393,-2.19979190826416,-4.12786483764648,0.78510618209839
650,2295940446,65.87689208984375,-88.16815948486328,-29.74022865295410,9.87085342407227,0.04005430638790,0.39598977565765,-1.81160545349121,-3.92962169647217,0.95813274383545
651,2295957113,66.86598968505859,-88.18750000000000,-30.76745223999023,9.84837245941162,0.10682889819145,0.36446377635002,-1.65343439579010,-3.20246481895447,1.00486314296722
652,2295973780,67.62255859375000,-88.20114898681641,-31.56737899780273,9.81938934326172,0.09202191233635,0.38400486111641,-1.94882524013519,-2.63514328002930,0.83688205480576
653,2295990447,68.26023864746094,-88.20758056640625,-32.24235534667969,9.83840656280518,0.04097401723266,0.36286035180092,-1.59320604801178,-2.25277137756348,0.55596202611923
654,2296007114,68.47307586669922,-88.20681762695312,-32.49077987670898,9.83221149444580,0.04348782822490,0.36981737613678,-1.52120876312256,-1.36346006393433,0.46385881304741
655,2296023781,68.67805480957031,-88.20823669433594,-32.73060989379883,9.77093696594238,0.04698642343283,0.39573919773102,-1.46226108074188,-1.39327335357666,0.58052468299866
656,2296040448,69.29479980468750,-88.21656036376953,-33.37497329711914,9.78517723083496,0.06156136468053,0.39055255055428,-1.01455092430115,-2.23710918426514,0.70990711450577
657,2296057115,70.69425201416016,-88.23974609375000,-34.79119491577148,9.79163932800293,0.04148340225220,0.33954364061356,-0.33494371175766,-3.84773898124695,1.07479870319366
658,2296073782,71.95381164550781,-88.25370025634766,-36.06137084960938,9.80215930938721,0.04095733165741,0.28893318772316,0.01367717981339,-3.40023303031921,0.75998002290726
659,2296090449,73.12519836425781,-88.26201629638672,-37.23269271850586,9.77867412567139,0.02054052986205,0.29809144139290,0.66785109043121,-3.10288238525391,0.51169049739838
660,2296107116,74.16497039794922,-88.27138519287109,-38.26733016967773,9.83554553985596,0.06305552273989,0.32303327322006,0.96486884355545,-2.87463545799255,0.67557340860367
661,2296123783,75.39504241943359,-88.28308868408203,-39.49861526489258,9.81132125854492,0.05231287702918,0.33485934138298,0.59380489587784,-3.24554562568665,0.79364800453186
662,2296140450,76.75459289550781,-88.30015563964844,-40.85718154907227,9.88289451599121,0.06622347980738,0.26124188303947,0.73089683055878,-3.50895929336548,1.07017552852631
663,2296157117,77.38907623291016,-88.31078338623047,-41.48813247680664,9.87566661834717,0.09846454113722,0.28187423944473,0.83642107248306,-2.17412757873535,1.08948731422424
664,2296173784,77.76094055175781,-88.32019042968750,-41.87039947509766,9.83282661437988,0.07924967259169,0.35196727514267,0.01093662250787,-1.71268916130066,1.04579210281372
665,2296190451,78.09649658203125,-88.32707977294922,-42.22339630126953,9.78575706481934,0.10582862794399,0.25008887052536,-0.41221717000008,-1.63275194168091,0.94709354639053
666,2296207118,78.47272491455078,-88.33199310302734,-42.61865615844727,9.81605339050293,0.10773047804832,0.28292450308800,-0.52397817373276,-1.67788147926331,0.83493548631668
667,2296223785,78.83960723876953,-88.33846282958984,-43.00922775268555,9.82051372528076,0.04679246619344,0.36185824871063,-0.79469168186188,-1.68281185626984,0.91465508937836
668,2296240452,78.63567352294922,-88.34188842773438,-42.81431579589844,9.86895370483398,0.07300839573145,0.23472081124783,0.07136978209019,-0.66528344154358,0.92222356796265
669,2296257119,77.32527160644531,-88.34188842773438,-41.52940750122070,9.89204788208008,0.06344674527645,0.20008905231953,-0.97328883409500,1.18759655952454,1.11401128768921
670,2296273786,76.19973754882812,-88.34648895263672,-40.41960525512695,9.80775642395020,0.02955018542707,0.21140520274639,-0.36968728899956,0.82643216848373,1.33539497852325
671,2296290453,75.07944488525391,-88.34874725341797,-39.31278610229492,9.82561302185059,0.07958479970694,0.17896486818790,-0.24829591810703,0.82535642385483,1.28724312782288
672,2296307120,73.69236755371094,-88.34921264648438,-37.93670654296875,9.77454948425293,0.05392280593514,0.20948551595211,-0.11416219919920,1.28160822391510,1.33256471157074
673,2296323787,72.64569091796875,-88.34957122802734,-36.89038085937500,9.75186347961426,0.03407134488225,0.20443691313267,0.54954606294632,0.73992532491684,1.18539416790009
674,2296340454,71.95078277587891,-88.34412384033203,-36.19020462036133,9.75888347625732,0.03995823860168,0.26642632484436,0.91144073009491,0.27974191308022,0.70675683021545
675,2296357121,71.60138702392578,-88.33458709716797,-35.83170318603516,9.79677009582520,0.03375536203384,0.24508218467236,1.15387761592865,-0.18596738576889,0.28439059853554
676,2296373788,71.17570495605469,-88.32415771484375,-35.39480209350586,9.80601119995117,-0.01236267387867,0.24250581860542,1.26817452907562,-0.03833580762148,0.29372647404671
677,2296390455,70.70256805419922,-88.31681060791016,-34.90090179443359,9.84393596649170,0.03845963254571,0.30119556188583,1.84714937210083,0.00735084433109,0.49209678173065
678,2296407122,70.52597808837891,-88.31286621093750,-34.70261383056641,9.80346584320068,0.08467631787062,0.29538542032242,1.91045105457306,-0.55066663026810,0.55122369527817
679,2296423789,70.64150238037109,-88.31262969970703,-34.79430770874023,9.72416019439697,0.04140610247850,0.26164036989212,2.03857874870300,-1.09970045089722,0.59908109903336
680,2296440456,70.56663513183594,-88.31367492675781,-34.69650268554688,9.76205825805664,0.04829086363316,0.29072320461273,2.01329922676086,-0.80501353740692,0.75100278854370
681,2296457123,70.76748657226562,-88.31704711914062,-34.87767410278320,9.76843929290771,0.05951183289289,0.29323080182076,1.78830420970917,-1.32247984409332,0.76873958110809
682,2296473790,71.24273681640625,-88.32263946533203,-35.33924102783203,9.83598709106445,0.10779681801796,0.25320270657539,1.43726944923401,-1.82005786895752,0.73659569025040
683,2296490457,71.83739471435547,-88.32380676269531,-35.92399978637695,9.78999614715576,0.09737385064363,0.21063524484634,1.24973332881927,-1.92505681514740,0.39140048623085
684,2296507124,72.23655700683594,-88.32661437988281,-36.31178665161133,9.81042671203613,0.05638455972075,0.19242864847183,1.30587637424469,-1.63944983482361,0.61574214696884
