sep=,
DeviceTag:,Xsens_DOT_3
FirmwareVersion:,3.0.0
AppVersion:,2023.6.0
StartTime: ,2025-04-09_10:46:58_000 CEST
© Movella Technologies B. V. 2005-2025

PacketCounter,SampleTimeFine,Euler_X,Euler_Y,Euler_Z,Acc_X,Acc_Y,Acc_Z,Gyr_X,Gyr_Y,Gyr_Z
0,1473157324,-116.01219940185547,-88.97130584716797,1.23173844814301,0.00000000000000,0.00000000000000,0.00000000000000,0.00000000000000,0.00000000000000,0.00000000000000
1,1473173991,-115.65904998779297,-88.97264099121094,0.87482023239136,9.77854824066162,-0.09352965652943,-0.18104921281338,1.09432172775269,0.89105951786041,0.40347042679787
2,1473190658,-115.35035705566406,-88.97473907470703,0.56059145927429,9.77862739562988,-0.10644137859344,-0.22073231637478,1.04141879081726,0.83135628700256,0.41344660520554
3,1473207325,-115.02651977539062,-88.97664642333984,0.24850983917713,9.78453445434570,-0.09446191787720,-0.22077855467796,1.48231589794159,0.85614937543869,0.37762722373009
4,1473223992,-114.61938476562500,-88.98048400878906,-0.15843610465527,9.78491497039795,-0.09349923580885,-0.22783696651459,1.02899658679962,0.97471058368683,0.34995275735855
5,1473240659,-114.23773193359375,-88.98394012451172,-0.53985720872879,9.77368259429932,-0.06252539157867,-0.21723777055740,0.99651968479156,0.94995576143265,0.33540472388268
6,1473257326,-113.92368316650391,-88.98741149902344,-0.85424828529358,9.78231525421143,-0.07453252375126,-0.20196363329887,1.17404139041901,0.88601374626160,0.28670212626457
7,1473273993,-113.62234497070312,-88.98876953125000,-1.15072333812714,9.79836654663086,-0.09903515875340,-0.16512258350849,1.16074836254120,0.83856618404388,0.35625344514847
8,1473290660,-113.36793518066406,-88.99147796630859,-1.40409457683563,9.77273845672607,-0.08938597887754,-0.17141242325306,1.33031725883484,0.80594843626022,0.29327180981636
9,1473307327,-113.22618103027344,-88.99419403076172,-1.54263663291931,9.76118087768555,-0.10021603852510,-0.18877373635769,0.88596248626709,0.69800370931625,0.25248357653618
10,1473323994,-113.01422119140625,-88.99672698974609,-1.74833822250366,9.78441715240479,-0.07352596521378,-0.19435939192772,1.09503901004791,0.75859045982361,0.29268270730972
11,1473340661,-112.96925354003906,-88.99790191650391,-1.78470849990845,9.79356575012207,-0.07755337655544,-0.19206000864506,1.40246832370758,0.54996228218079,0.31186664104462
12,1473357328,-113.00758361816406,-88.99790191650391,-1.71647787094116,9.77558135986328,-0.07855331152678,-0.19819493591785,1.72920942306519,0.44272196292877,0.31870523095131
13,1473373995,-113.00840759277344,-88.99829101562500,-1.70186758041382,9.78040218353271,-0.06478683650494,-0.20981621742249,1.59120810031891,0.48228073120117,0.33573764562607
14,1473390662,-113.02412414550781,-88.99868774414062,-1.68256187438965,9.77403068542480,-0.07456595450640,-0.18171766400337,1.10874176025391,0.50064504146576,0.27857011556625
15,1473407329,-113.00115966796875,-89.00102996826172,-1.70303249359131,9.79324245452881,-0.08566788583994,-0.19871273636818,1.02707576751709,0.55811995267868,0.24887222051620
16,1473423996,-112.98951721191406,-89.00299072265625,-1.70793056488037,9.79723834991455,-0.10022539645433,-0.24101224541664,1.21488082408905,0.54130518436432,0.24938446283340
17,1473440663,-112.98071289062500,-89.00337982177734,-1.68757164478302,9.78607749938965,-0.08743274956942,-0.20975171029568,1.59794437885284,0.50572919845581,0.30324795842171
18,1473457330,-112.97615051269531,-89.00397491455078,-1.68526422977448,9.78020477294922,-0.09259739518166,-0.19542825222015,1.28667318820953,0.50165677070618,0.32065179944038
19,1473473997,-113.00540161132812,-89.00534820556641,-1.65357756614685,9.80335807800293,-0.07523271441460,-0.18563786149025,1.16634464263916,0.49007979035378,0.26335617899895
20,1473490664,-113.04898834228516,-89.00771331787109,-1.59505236148834,9.79724693298340,-0.09450940042734,-0.20675961673260,1.04332685470581,0.50257879495621,0.19484217464924
21,1473507331,-113.15542602539062,-89.00811004638672,-1.47859311103821,9.79026031494141,-0.08335237205029,-0.20651520788670,1.22927510738373,0.39341747760773,0.27687966823578
22,1473523998,-113.34305572509766,-89.00731658935547,-1.29143488407135,9.78041839599609,-0.06143432110548,-0.19868154823780,0.78270483016968,0.32120245695114,0.25197133421898
23,1473540665,-113.47982788085938,-89.00889587402344,-1.15642380714417,9.81445407867432,-0.09435822814703,-0.22182856500149,0.67199397087097,0.39918029308319,0.20796871185303
24,1473557332,-113.67224121093750,-89.00811004638672,-0.96441954374313,9.77949905395508,-0.10770679265261,-0.20615367591381,1.30023503303528,0.28802120685577,0.29318219423294
25,1473573999,-113.87094116210938,-89.00771331787109,-0.75115585327148,9.78373622894287,-0.04976580664515,-0.19784295558929,1.12796413898468,0.27931293845177,0.29735705256462
26,1473590666,-114.12902069091797,-89.00672912597656,-0.49927994608879,9.79398345947266,-0.10824955254793,-0.20473054051399,0.77584075927734,0.21914868056774,0.29745948314667
27,1473607333,-114.31429290771484,-89.00653076171875,-0.31638309359550,9.79329395294189,-0.08844950795174,-0.17888621985912,1.14814686775208,0.30475908517838,0.27817311882973
28,1473624000,-114.39871978759766,-89.00771331787109,-0.22583858668804,9.79820919036865,-0.07161992043257,-0.20352102816105,1.45927703380585,0.42591995000839,0.25462222099304
29,1473640667,-114.38902282714844,-89.00711822509766,-0.23874881863594,9.78133964538574,-0.10114432126284,-0.23007693886757,1.00832712650299,0.51478320360184,0.32116404175758
30,1473657334,-114.43128967285156,-89.00968933105469,-0.19540224969387,9.78620243072510,-0.08704458922148,-0.20018371939659,1.11709141731262,0.50621587038040,0.20031052827835
31,1473674001,-114.47038269042969,-89.01126861572266,-0.13253240287304,9.78986072540283,-0.08667340129614,-0.19902521371841,1.29343473911285,0.47761917114258,0.25829768180847
32,1473690668,-114.56189727783203,-89.01285552978516,-0.03609913587570,9.77360725402832,-0.07567146420479,-0.18244536221027,1.20408499240875,0.45128932595253,0.19438116252422
33,1473707335,-114.64401245117188,-89.01245880126953,0.05443657934666,9.76253032684326,-0.09226737916470,-0.18105445802212,1.01890516281128,0.41098773479462,0.31048354506493
34,1473724002,-114.83662414550781,-89.01245880126953,0.25916072726250,9.80039978027344,-0.05538520216942,-0.19589774310589,1.34875845909119,0.28898167610168,0.28421771526337
35,1473740669,-115.22396850585938,-89.01126861572266,0.66476136445999,9.79149913787842,-0.07437732070684,-0.19068869948387,1.05517280101776,0.10138146579266,0.21241250634193
36,1473757336,-115.62709808349609,-89.00929260253906,1.07512497901917,9.78073787689209,-0.09933531284332,-0.17744711041451,1.16062021255493,0.05226911604404,0.27306342124939
37,1473774003,-116.20014190673828,-89.00633239746094,1.68023991584778,9.77424907684326,-0.07738080620766,-0.17731618881226,1.39940750598907,-0.14672234654427,0.25063946843147
38,1473790670,-116.76062011718750,-89.00181579589844,2.23947167396545,9.79871177673340,-0.06946013122797,-0.22443014383316,0.93712395429611,-0.14450687170029,0.29424512386322
39,1473807337,-117.24200439453125,-88.99966430664062,2.72700285911560,9.79205036163330,-0.10403380542994,-0.23262764513493,1.04067599773407,-0.02667562849820,0.23182694613934
40,1473824004,-117.74713134765625,-88.99633789062500,3.25267815589905,9.77741432189941,-0.10969293862581,-0.23040266335011,1.39602649211884,-0.06412138789892,0.22831799089909
41,1473840671,-118.25374603271484,-88.99613952636719,3.75251579284668,9.76890277862549,-0.06495653837919,-0.24500484764576,1.15949332714081,-0.00452064163983,0.12029645591974
42,1473857338,-118.58550262451172,-88.99633789062500,4.06239223480225,9.77417469024658,-0.09799598157406,-0.26183855533600,0.96794879436493,0.18713279068470,0.16919110715389
43,1473874005,-118.92467498779297,-88.99692535400391,4.41252708435059,9.77779483795166,-0.07870674133301,-0.25375157594681,1.44357669353485,0.19133329391479,0.12155147641897
44,1473890672,-119.40644836425781,-88.99594879150391,4.90088033676147,9.78114509582520,-0.07252483069897,-0.21110577881336,1.15953183174133,0.02624661289155,0.11760712414980
45,1473907339,-119.91819000244141,-88.99361419677734,5.41485214233398,9.80105495452881,-0.09061118960381,-0.21408547461033,1.08736789226532,-0.06894938647747,0.21868762373924
46,1473924006,-120.35803985595703,-88.99400329589844,5.85610246658325,9.80830478668213,-0.07525262981653,-0.20529967546463,0.95551371574402,0.09185353666544,0.09693766385317
47,1473940673,-120.83362579345703,-88.99283599853516,6.34143829345703,9.82690429687500,-0.06699468195438,-0.22259002923965,1.12893736362457,0.01310729701072,0.14578106999397
48,1473957340,-121.16928100585938,-88.99050903320312,6.68937301635742,9.80797672271729,-0.06774438917637,-0.21796156466007,1.48033070564270,0.14104272425175,0.21214358508587
49,1473974007,-121.59874725341797,-88.98896026611328,7.13225078582764,9.78221607208252,-0.08800194412470,-0.21368749439716,1.25446522235870,0.01898541487753,0.22046773135662
50,1473990674,-121.94115447998047,-88.98838043212891,7.47351360321045,9.78211116790771,-0.07832490652800,-0.22524029016495,1.14845418930054,0.16493937373161,0.16896057128906
51,1474007341,-122.22734069824219,-88.98721313476562,7.75970458984375,9.77086353302002,-0.09294087439775,-0.25140616297722,1.37245011329651,0.20269250869751,0.21351388096809
52,1474024008,-122.57891845703125,-88.98664093017578,8.11858654022217,9.78120136260986,-0.10006784647703,-0.25528940558434,1.61673116683960,0.14611403644085,0.16086696088314
53,1474040675,-122.82185363769531,-88.98741149902344,8.37978935241699,9.80570030212402,-0.06759861111641,-0.26129454374313,1.43872296810150,0.26972094178200,0.18709439039230
54,1474057342,-123.05539703369141,-88.98799133300781,8.61327648162842,9.79491424560547,-0.07043703645468,-0.22988905012608,1.01088833808899,0.31965291500092,0.14768922328949
55,1474074009,-123.30832672119141,-88.98915863037109,8.86755943298340,9.78795337677002,-0.07419654726982,-0.21347786486149,1.02737033367157,0.31518349051476,0.11577580124140
56,1474090676,-123.49649047851562,-88.99167633056641,9.04726028442383,9.78372955322266,-0.04995032399893,-0.22340162098408,0.84888803958893,0.40586522221565,0.11085815727711
57,1474107343,-123.64540100097656,-88.99400329589844,9.19350433349609,9.79662609100342,-0.06906487792730,-0.22549669444561,1.03204452991486,0.43887999653816,0.13358943164349
58,1474124010,-123.85795593261719,-88.99555969238281,9.41880321502686,9.78988456726074,-0.08541988581419,-0.20396508276463,1.30429470539093,0.35361534357071,0.12923529744148
59,1474140677,-124.03022766113281,-88.99907684326172,9.60209274291992,9.79756164550781,-0.04816231504083,-0.19061964750290,1.27784967422485,0.42912161350250,0.09691205620766
60,1474157344,-124.27391052246094,-89.00005340576172,9.85147094726562,9.78945922851562,-0.08715991675854,-0.21342971920967,1.20919477939606,0.29996952414513,0.15682016313076
61,1474174011,-124.44712829589844,-89.00181579589844,10.03817749023438,9.77682495117188,-0.06387073546648,-0.24923293292522,1.50357437133789,0.39245697855949,0.14394979178905
62,1474190678,-124.70899963378906,-89.00260162353516,10.30749797821045,9.79574966430664,-0.05705959722400,-0.25066021084785,1.37793135643005,0.29485982656479,0.12643070518970
63,1474207345,-124.94873809814453,-89.00279235839844,10.54520893096924,9.77566909790039,-0.06677459925413,-0.25600442290306,1.12337946891785,0.30702584981918,0.16032910346985
64,1474224012,-125.21578216552734,-89.00416564941406,10.82896995544434,9.78660869598389,-0.06705047935247,-0.24635982513428,1.39723050594330,0.29589712619781,0.11510988324881
65,1474240679,-125.45317077636719,-89.00554656982422,11.04553699493408,9.78111839294434,-0.06499519944191,-0.23918117582798,1.19413459300995,0.34748110175133,0.11083255708218
66,1474257346,-125.80364227294922,-89.00692749023438,11.41243648529053,9.79201889038086,-0.06944608688354,-0.21366207301617,1.19359672069550,0.22795943915844,0.06613839417696
67,1474274013,-126.21088409423828,-89.00653076171875,11.82747936248779,9.77071952819824,-0.06233963370323,-0.23961445689201,1.21367704868317,0.13063117861748,0.10085640847683
68,1474290680,-126.61076354980469,-89.00731658935547,12.24890327453613,9.76841640472412,-0.05609871447086,-0.22876101732254,1.05927073955536,0.16825622320175,0.06524194777012
69,1474307347,-126.97172546386719,-89.00653076171875,12.60372352600098,9.80336189270020,-0.06580263376236,-0.24183326959610,0.90453165769577,0.17622175812721,0.13221916556358
70,1474324014,-127.34028625488281,-89.00397491455078,12.97924518585205,9.81194400787354,-0.06514699012041,-0.22738628089428,1.21130788326263,0.09449166059494,0.21514028310776
71,1474340681,-127.72658538818359,-89.00260162353516,13.35874271392822,9.77566051483154,-0.06694787740707,-0.23805171251297,1.39892077445984,0.08169810473919,0.19228093326092
72,1474357348,-128.21664428710938,-88.99829101562500,13.86057567596436,9.77279376983643,-0.06315765529871,-0.23767620325089,1.60306668281555,-0.08146117627621,0.21273267269135
73,1474374015,-128.64070129394531,-88.99594879150391,14.28120613098145,9.80422210693359,-0.04316875711083,-0.25434234738350,0.89079046249390,0.07959786802530,0.13735449314117
74,1474390682,-129.00874328613281,-88.99613952636719,14.64420223236084,9.78955268859863,-0.10019460320473,-0.26766124367714,0.75061219930649,0.18046069145203,0.10909089446068
75,1474407349,-129.37870788574219,-88.99517059326172,15.02315616607666,9.78121089935303,-0.07145346701145,-0.27506509423256,1.73571515083313,0.15785747766495,0.10688820481300
76,1474424016,-129.66281127929688,-88.99439239501953,15.31161594390869,9.78027248382568,-0.02950888872147,-0.24450510740280,1.19197022914886,0.22211974859238,0.18623633682728
77,1474440683,-129.98657226562500,-88.99517059326172,15.63330268859863,9.78818035125732,-0.06356339901686,-0.28039258718491,0.79279625415802,0.28464031219482,0.05732762068510
78,1474457350,-130.28228759765625,-88.99712371826172,15.94435310363770,9.78631877899170,-0.07584458589554,-0.27172455191612,1.19914197921753,0.29015988111496,0.08427219092846
79,1474474017,-130.64149475097656,-88.99672698974609,16.31160545349121,9.77976512908936,-0.05994927138090,-0.25543341040611,1.32176268100739,0.17796343564987,0.11047396808863
80,1474490684,-131.13139343261719,-88.99419403076172,16.79448890686035,9.78397464752197,-0.04858639836311,-0.23043768107891,0.84854233264923,0.01742303743958,0.09586192667484
81,1474507351,-131.67262268066406,-88.99011993408203,17.33944702148438,9.80375099182129,-0.06075629219413,-0.24857336282730,1.07014322280884,-0.10181047767401,0.13595861196518
82,1474524018,-132.24150085449219,-88.98587036132812,17.92271232604980,9.79519271850586,-0.05419653281569,-0.23097293078899,1.04212307929993,-0.13966605067253,0.12681487202644
83,1474540685,-132.66825866699219,-88.98336029052734,18.36931610107422,9.79636573791504,-0.06225778162479,-0.21982721984386,1.19632434844971,0.04322783276439,0.14379610121250
84,1474557352,-133.09268188476562,-88.97817993164062,18.80034255981445,9.77687454223633,-0.05094233527780,-0.27236679196358,1.26482546329498,-0.05953671783209,0.25285497307777
85,1474574019,-133.55729675292969,-88.97435760498047,19.27597618103027,9.78143310546875,-0.05825058370829,-0.27830016613007,1.38946962356567,-0.03238725662231,0.15004558861256
86,1474590686,-134.05975341796875,-88.96921539306641,19.83141326904297,9.77344036102295,-0.04050520807505,-0.27230468392372,1.21055221557617,-0.11387407779694,0.17173956334591
87,1474607353,-134.47114562988281,-88.96485900878906,20.22226715087891,9.76034259796143,-0.03149208053946,-0.26012259721756,0.78630346059799,-0.00112695875578,0.20631667971611
88,1474624020,-134.97940063476562,-88.95957946777344,20.73414611816406,9.79561424255371,-0.07044355571270,-0.26516756415367,1.07611119747162,-0.12259518355131,0.16514426469803
89,1474640687,-135.31445312500000,-88.95507812500000,21.07039260864258,9.81230163574219,-0.01877243071795,-0.24411985278130,0.84799164533615,0.03768268227577,0.27351158857346
90,1474657354,-135.57400512695312,-88.95470428466797,21.31908226013184,9.79413032531738,-0.07570674270391,-0.30275461077690,0.93511319160461,0.27183398604393,0.15569317340851
91,1474674021,-135.71903991699219,-88.95320892333984,21.46839904785156,9.78247451782227,-0.03327454254031,-0.27368864417076,1.22693169116974,0.31651538610458,0.28243765234947
92,1474690688,-135.89506530761719,-88.95003509521484,21.64974594116211,9.77491950988770,-0.06537161022425,-0.28127625584602,1.00124526023865,0.23912654817104,0.31356984376907
93,1474707355,-135.98451232910156,-88.94873046875000,21.73977470397949,9.78028678894043,-0.04251023009419,-0.27838188409805,1.01366746425629,0.36692115664482,0.32376375794411
94,1474724022,-136.11874389648438,-88.94705200195312,21.87702178955078,9.78913021087646,-0.04475738108158,-0.27348247170448,1.11341619491577,0.31153368949890,0.30323520302773
95,1474740689,-136.20138549804688,-88.94352722167969,21.96644592285156,9.79797935485840,-0.06254552304745,-0.24260215461254,1.22203958034515,0.27194923162460,0.41757023334503
96,1474757356,-136.21900939941406,-88.94168090820312,21.99092864990234,9.80396080017090,-0.04438712447882,-0.28094050288200,1.23414146900177,0.39008781313896,0.40621098875999
97,1474774023,-136.18135070800781,-88.94112396240234,21.95195198059082,9.79498577117920,-0.04439603909850,-0.27210551500320,1.12099742889404,0.51728045940399,0.37272241711617
98,1474790690,-136.06913757324219,-88.94168090820312,21.83929443359375,9.79041481018066,-0.07223974913359,-0.26810726523399,1.18994677066803,0.58993089199066,0.41654571890831
99,1474807357,-135.90884399414062,-88.94223022460938,21.66816329956055,9.78322219848633,-0.05693673342466,-0.25396436452866,1.05288052558899,0.64798212051392,0.43969959020615
100,1474824024,-135.74389648437500,-88.94316101074219,21.51834106445312,9.77857017517090,-0.07275309413671,-0.28189805150032,0.97684907913208,0.66493761539459,0.43117055296898
101,1474840691,-135.57011413574219,-88.94352722167969,21.33827018737793,9.79251098632812,-0.05150623992085,-0.29986411333084,1.22356367111206,0.64310294389725,0.46089416742325
102,1474857358,-135.31420898437500,-88.94593811035156,21.07760620117188,9.77155971527100,-0.06430570036173,-0.28677374124527,1.45771479606628,0.78403675556183,0.44414347410202
103,1474874025,-134.98320007324219,-88.94835662841797,20.75735473632812,9.79837608337402,-0.04780463501811,-0.29428270459175,1.59513950347900,0.83677315711975,0.50507587194443
104,1474890692,-134.61000061035156,-88.95096588134766,20.40056037902832,9.80406188964844,-0.04382389411330,-0.26914456486702,1.43919694423676,0.88154435157776,0.52597600221634
105,1474907359,-134.29736328125000,-88.95171356201172,20.10478591918945,9.77796745300293,-0.06000860780478,-0.24893146753311,1.60895764827728,0.77956730127335,0.52948492765427
106,1474924026,-133.94171142578125,-88.95246124267578,19.76484107971191,9.78642368316650,-0.03933655470610,-0.24663011729717,1.37983930110931,0.78687971830368,0.59516865015030
107,1474940693,-133.50682067871094,-88.95488739013672,19.34165954589844,9.80447864532471,-0.05432587489486,-0.26257705688477,1.17760157585144,0.95025026798248,0.55575078725815
108,1474957360,-132.99690246582031,-88.95732879638672,18.82333183288574,9.79450416564941,-0.06136536598206,-0.24704991281033,0.99429136514664,1.03592491149902,0.58931618928909
109,1474974027,-132.45805358886719,-88.96221923828125,18.29492568969727,9.77321815490723,-0.06939516961575,-0.25259697437286,1.31808722019196,1.08292412757874,0.56837785243988
110,1474990694,-132.01643371582031,-88.96599578857422,17.85911369323730,9.76411247253418,-0.05898765847087,-0.29293137788773,1.22598385810852,1.00804531574249,0.48959314823151
111,1475007361,-131.60154724121094,-88.96941375732422,17.44519805908203,9.77944946289062,-0.05053560063243,-0.23839256167412,1.22307682037354,0.96559238433838,0.48927304148674
112,1475024028,-131.13812255859375,-88.97245025634766,16.98415946960449,9.78222656250000,-0.06628521531820,-0.25812390446663,1.23535823822021,0.99768501520157,0.52651381492615
113,1475040695,-130.74018859863281,-88.97550201416016,16.57733345031738,9.77843284606934,-0.07156078517437,-0.20930671691895,1.26732277870178,0.90933412313461,0.51533389091492
114,1475057362,-130.50251770019531,-88.97454833984375,16.33880043029785,9.78140640258789,-0.06318467855453,-0.20710495114326,1.16615271568298,0.68661886453629,0.50894361734390
115,1475074029,-130.26722717285156,-88.97473907470703,16.10734558105469,9.79436874389648,-0.05222090333700,-0.21723727881908,1.02802336215973,0.66092932224274,0.53713035583496
116,1475090696,-130.04408264160156,-88.97473907470703,15.87650489807129,9.81476306915283,-0.07926619052887,-0.23305729031563,0.78451049327850,0.68239265680313,0.49873685836792
117,1475107363,-129.70655822753906,-88.97397613525391,15.54236412048340,9.78410720825195,-0.06203851476312,-0.21544012427330,1.23105537891388,0.78923618793488,0.55439335107803
118,1475124030,-129.55793762207031,-88.97435760498047,15.39673519134521,9.77903556823730,-0.05281621962786,-0.24274797737598,1.08101606369019,0.59840869903564,0.46360906958580
119,1475140697,-129.40995788574219,-88.97283172607422,15.24868965148926,9.78732776641846,-0.08971014618874,-0.26105281710625,1.01190006732941,0.56626468896866,0.50405144691467
120,1475157364,-129.16349792480469,-88.97206878662109,15.01504421234131,9.76444053649902,-0.09160402417183,-0.28239095211029,1.50753140449524,0.65028721094131,0.55763322114944
121,1475174031,-129.06646728515625,-88.96770477294922,14.94447135925293,9.77632904052734,-0.06302079558372,-0.26296967267990,1.44946742057800,0.42052847146988,0.58297705650330
122,1475190698,-128.99024963378906,-88.96334838867188,14.87425994873047,9.77171993255615,-0.04803160205483,-0.25562721490860,1.15682971477509,0.38711673021317,0.59967660903931
123,1475207365,-128.84043884277344,-88.96146392822266,14.73290252685547,9.79087924957275,-0.07287971675396,-0.26486909389496,1.23137545585632,0.53578567504883,0.54318779706955
124,1475224032,-128.76112365722656,-88.95957946777344,14.65686416625977,9.78684806823730,-0.06546877324581,-0.22260807454586,1.17258143424988,0.49492064118385,0.47227898240089
125,1475240699,-128.58442687988281,-88.95957946777344,14.47664737701416,9.80833435058594,-0.03954685479403,-0.23029971122742,0.70644319057465,0.65875226259232,0.45424765348434
126,1475257366,-128.41607666015625,-88.95920562744141,14.30829906463623,9.78108692169189,-0.09368696063757,-0.25712460279465,0.64787966012955,0.63545751571655,0.46990975737572
127,1475274033,-128.37615966796875,-88.95619964599609,14.26588439941406,9.77315902709961,-0.06055597960949,-0.22410839796066,0.94022291898727,0.42666274309158,0.49652135372162
128,1475290700,-128.50166320800781,-88.95207977294922,14.39386940002441,9.76847553253174,-0.04162706807256,-0.25074940919876,0.88049417734146,0.22393821179867,0.45838409662247
129,1475307367,-128.73081970214844,-88.94668579101562,14.62878131866455,9.77302742004395,-0.07048457860947,-0.23045974969864,0.72855961322784,0.09328785538673,0.43743288516998
130,1475324034,-129.02418518066406,-88.93909454345703,14.92746257781982,9.77574920654297,-0.06281252205372,-0.22044466435909,1.05225288867950,-0.05799995362759,0.49762272834778
131,1475340701,-129.41232299804688,-88.92955017089844,15.30913352966309,9.79013252258301,-0.04144833609462,-0.18379175662994,0.44690951704979,-0.16456158459187,0.46844986081123
132,1475357368,-129.88194274902344,-88.92443847656250,15.77007865905762,9.80807018280029,-0.11173859983683,-0.28975147008896,0.21310405433178,-0.14270114898682,0.29109475016594
133,1475374035,-130.21812438964844,-88.91754913330078,16.09704780578613,9.77969074249268,-0.04909639805555,-0.28394815325737,0.95566737651825,-0.04117241501808,0.37988114356995
134,1475390702,-130.48863220214844,-88.91088104248047,16.36311912536621,9.77004814147949,-0.08148746192455,-0.28950113058090,0.67195558547974,-0.00049944763305,0.44993188977242
135,1475407369,-130.75212097167969,-88.90389251708984,16.62127876281738,9.78592681884766,-0.07873379439116,-0.27261817455292,0.50286054611206,-0.01085978373885,0.47152340412140
136,1475424036,-130.87889099121094,-88.89979553222656,16.74480628967285,9.77623844146729,-0.06552151590586,-0.27065798640251,1.31570518016815,0.22178675234318,0.41933751106262
137,1475440703,-130.89558410644531,-88.89891052246094,16.76426887512207,9.78046226501465,-0.06045280769467,-0.31279060244560,1.03463125228882,0.45587399601936,0.35283410549164
138,1475457370,-130.79280090332031,-88.89997100830078,16.65917396545410,9.80228233337402,-0.06546087563038,-0.30919647216797,0.87510269880295,0.61458307504654,0.38549032807350
139,1475474037,-130.37840270996094,-88.90496826171875,16.23917388916016,9.85286235809326,-0.06051352247596,-0.27844530344009,0.32213735580444,1.06878602504730,0.42971068620682
140,1475490704,-129.72837829589844,-88.91069793701172,15.58393955230713,9.82046318054199,-0.10576447099447,-0.29214471578598,1.06777417659760,1.29020774364471,0.56019449234009
141,1475507371,-128.88394165039062,-88.91827392578125,14.75652790069580,9.76368427276611,-0.07754976302385,-0.28213730454445,1.50107705593109,1.51721310615540,0.60705304145813
142,1475524038,-127.85883331298828,-88.92808532714844,13.76142024993896,9.78865814208984,-0.05579236894846,-0.27411320805550,1.42874681949615,1.74830377101898,0.62514835596085
143,1475540705,-126.81120300292969,-88.93909454345703,12.71319389343262,9.77145862579346,-0.07749708741903,-0.27120202779770,1.44799482822418,1.80939018726349,0.55598127841949
144,1475557372,-125.77088928222656,-88.94724273681641,11.69293117523193,9.78880500793457,-0.08950585871935,-0.23447512090206,2.04054450988770,1.74936652183533,0.57024759054184
145,1475574039,-124.60923767089844,-88.95883178710938,10.54720687866211,9.80279159545898,-0.07332206517458,-0.24122904241085,1.74598562717438,1.89046680927277,0.57243740558624
146,1475590706,-123.47171783447266,-88.96826934814453,9.42336654663086,9.79317283630371,-0.06337924301624,-0.23586691915989,1.40961408615112,1.84075284004211,0.56871074438095
147,1475607373,-122.33119201660156,-88.97626495361328,8.30793190002441,9.76963901519775,-0.07725533843040,-0.22348929941654,1.59644591808319,1.79117929935455,0.60458141565323
148,1475624040,-121.14620971679688,-88.98220825195312,7.12116479873657,9.77469635009766,-0.06032142788172,-0.22150349617004,1.66666305065155,1.75578248500824,0.72177225351334
149,1475640707,-119.96664428710938,-88.98818969726562,5.95553970336914,9.77637958526611,-0.06751231849194,-0.22935481369495,1.19600427150726,1.76917815208435,0.67236530780792
150,1475657374,-118.87464904785156,-88.99128723144531,4.87355947494507,9.78831195831299,-0.07910235226154,-0.23373748362064,1.42299687862396,1.60430908203125,0.74136602878571
151,1475674041,-117.76071166992188,-88.99400329589844,3.77904844284058,9.80951309204102,-0.08209915459156,-0.23650626838207,1.60496222972870,1.59887921810150,0.77773606777191
152,1475690708,-116.58390045166016,-88.99594879150391,2.61344599723816,9.78497982025146,-0.05622094869614,-0.18935509026051,1.75769066810608,1.65226864814758,0.80511599779129
153,1475707375,-115.33524322509766,-88.99712371826172,1.37534189224243,9.80790233612061,-0.07445383816957,-0.18249870836735,1.41478776931763,1.71254825592041,0.85992711782455
154,1475724042,-113.97203826904297,-88.99946594238281,0.02050265483558,9.80934619903564,-0.11778303980827,-0.19653265178204,1.47842276096344,1.85590267181396,0.83080559968948
155,1475740709,-112.56613922119141,-89.00357818603516,-1.37363100051880,9.80575656890869,-0.07801473885775,-0.19765736162663,1.72384345531464,1.93970763683319,0.72462809085846
156,1475757376,-111.11518859863281,-89.00416564941406,-2.80684566497803,9.77898693084717,-0.08689775317907,-0.23723699152470,1.90415704250336,1.92983353137970,0.84546887874603
157,1475774043,-109.82799530029297,-89.00397491455078,-4.07707691192627,9.77988433837891,-0.07490780204535,-0.21182358264923,1.94818532466888,1.74183630943298,0.84353512525558
158,1475790710,-108.58785247802734,-89.00357818603516,-5.29800605773926,9.77872371673584,-0.08787688612938,-0.14361250400543,1.98267269134521,1.70989727973938,0.78891599178314
159,1475807377,-107.37059783935547,-89.00260162353516,-6.49663162231445,9.79013252258301,-0.10444840043783,-0.15725226700306,1.75423288345337,1.69901192188263,0.76156163215637
160,1475824044,-106.22293090820312,-89.00181579589844,-7.64365005493164,9.80869674682617,-0.06736022979021,-0.14420571923256,1.45866250991821,1.64202380180359,0.71868592500687
161,1475840711,-105.12104034423828,-89.00299072265625,-8.74847602844238,9.79568481445312,-0.07306355237961,-0.17342297732830,0.66970157623291,1.63006246089935,0.63284486532211
162,1475857378,-104.13977813720703,-89.00142669677734,-9.71494483947754,9.77825355529785,-0.11489174515009,-0.16233590245247,1.30324447154999,1.46619248390198,0.70651990175247
163,1475874045,-103.13681030273438,-88.99868774414062,-10.71593475341797,9.77987194061279,-0.07951540499926,-0.14115145802498,1.20669746398926,1.50568723678589,0.68065100908279
164,1475890712,-102.11649322509766,-88.99672698974609,-11.71569442749023,9.77427768707275,-0.10877072811127,-0.16277852654457,1.70463407039642,1.50381779670715,0.73299068212509
165,1475907379,-101.24624633789062,-88.99361419677734,-12.54966831207275,9.78675174713135,-0.10384613275528,-0.13483323156834,1.59654867649078,1.34431469440460,0.73833096027374
166,1475924046,-100.47458648681641,-88.98838043212891,-13.30850887298584,9.79327487945557,-0.09753812104464,-0.15479232370853,1.48911571502686,1.24464261531830,0.76526254415512
167,1475940713,-99.83061218261719,-88.98316955566406,-13.93933582305908,9.78640270233154,-0.11099909991026,-0.17383798956871,1.68258154392242,1.10653913021088,0.77594321966171
168,1475957380,-99.30277252197266,-88.97779846191406,-14.45396804809570,9.76066398620605,-0.09344988316298,-0.17708124220371,1.89412975311279,0.98922014236450,0.74053359031677
169,1475974047,-98.92400360107422,-88.97245025634766,-14.82488441467285,9.77966308593750,-0.11055785417557,-0.13518299162388,1.21590530872345,0.84572494029999,0.71317917108536
170,1475990714,-98.61782073974609,-88.96997833251953,-15.12432575225830,9.79678344726562,-0.11611742526293,-0.13730069994926,1.28358685970306,0.79248893260956,0.55306136608124
171,1476007381,-98.32077789306641,-88.96712493896484,-15.41775894165039,9.78563880920410,-0.07695143669844,-0.11686364561319,1.23256635665894,0.78886479139328,0.52846044301987
172,1476024048,-98.04971313476562,-88.96466827392578,-15.67661285400391,9.78050708770752,-0.09770413488150,-0.14302641153336,1.03020036220551,0.76531386375427,0.51591020822525
173,1476040715,-97.94506072998047,-88.96052551269531,-15.78056526184082,9.78453159332275,-0.10553357750177,-0.16021205484867,0.92640501260757,0.57182276248932,0.60925579071045
174,1476057382,-98.05155944824219,-88.95864105224609,-15.68066787719727,9.78679180145264,-0.09475161135197,-0.12571799755096,0.61109972000122,0.37041723728180,0.41896611452103
175,1476074049,-98.41158294677734,-88.95545196533203,-15.32674312591553,9.79655170440674,-0.12388128042221,-0.12076811492443,0.86568999290466,0.06684274971485,0.50685608386993
176,1476090716,-98.85594940185547,-88.95207977294922,-14.86840534210205,9.75960540771484,-0.11292538791895,-0.13442434370518,1.24087762832642,-0.03506378456950,0.48408639431000
177,1476107383,-99.43824768066406,-88.94761657714844,-14.27482986450195,9.77338886260986,-0.07866252213717,-0.15449333190918,0.84471321105957,-0.18590977787971,0.47253507375717
178,1476124050,-100.11118316650391,-88.94426727294922,-13.60228729248047,9.80133247375488,-0.11389505118132,-0.16394406557083,0.28977566957474,-0.28229036927223,0.46031782031059
179,1476140717,-100.90172576904297,-88.93983459472656,-12.81115055084229,9.78083705902100,-0.12648318707943,-0.15619255602360,0.86205297708511,-0.42086786031723,0.40632626414299
180,1476157384,-101.51224517822266,-88.93595886230469,-12.20418262481689,9.80116271972656,-0.09559648483992,-0.13954268395901,0.69257378578186,-0.22101196646690,0.42467772960663
181,1476174051,-101.95313262939453,-88.93265533447266,-11.75648403167725,9.78525447845459,-0.13040281832218,-0.17426501214504,0.64467799663544,-0.03131152689457,0.43145230412483
182,1476190718,-102.40295410156250,-88.92917633056641,-11.31139945983887,9.77961063385010,-0.13081793487072,-0.19420002400875,0.85228174924850,-0.04812626168132,0.43848299980164
183,1476207385,-102.87123870849609,-88.92517089843750,-10.83832550048828,9.78270816802979,-0.11115796864033,-0.19681721925735,1.04850065708160,-0.08288269490004,0.46006169915199
184,1476224052,-103.33907318115234,-88.92080688476562,-10.35319137573242,9.79448604583740,-0.10869763791561,-0.20052179694176,1.19391679763794,-0.09690564125776,0.48704469203949
185,1476240719,-103.76621246337891,-88.91682434082031,-9.92749309539795,9.78847980499268,-0.11030773073435,-0.17599499225616,0.87882930040359,-0.02969792298973,0.42139932513237
186,1476257386,-104.01602172851562,-88.91429901123047,-9.67278957366943,9.80689525604248,-0.10823792219162,-0.17659601569176,0.97262299060822,0.17782256007195,0.41429182887077
187,1476274053,-104.19309997558594,-88.91177368164062,-9.49664306640625,9.76838588714600,-0.10543526709080,-0.19255094230175,0.75529932975769,0.25718352198601,0.45104604959488
188,1476290720,-104.34371948242188,-88.90926361083984,-9.34541702270508,9.78543186187744,-0.11166941374540,-0.16477262973785,1.06823527812958,0.27986359596252,0.46141919493675
189,1476307387,-104.41674804687500,-88.90818786621094,-9.26983070373535,9.78104686737061,-0.11283913254738,-0.22100447118282,1.12122797966003,0.39660626649857,0.36296397447586
190,1476324054,-104.61642456054688,-88.90460968017578,-9.05876541137695,9.77186298370361,-0.11617325991392,-0.19022384285927,1.55426180362701,0.20589411258698,0.47860532999039
191,1476340721,-104.87076568603516,-88.90282440185547,-8.79865741729736,9.78972625732422,-0.10564649105072,-0.16638487577438,1.31374573707581,0.16733416914940,0.38652762770653
192,1476357388,-105.17916107177734,-88.90068817138672,-8.48106479644775,9.78323841094971,-0.12764272093773,-0.15022844076157,1.40778279304504,0.10193213820457,0.37441283464432
193,1476374055,-105.49153900146484,-88.89749145507812,-8.16603183746338,9.77568817138672,-0.10365453362465,-0.20076489448547,1.32400369644165,0.08296594023705,0.42918562889099
194,1476390722,-105.72111511230469,-88.89553833007812,-7.92543554306030,9.80441093444824,-0.11852215230465,-0.18147726356983,1.14494538307190,0.20118136703968,0.36736938357353
195,1476407389,-105.98242187500000,-88.89270782470703,-7.65794420242310,9.77908611297607,-0.12569408118725,-0.19891424477100,1.28207576274872,0.14585793018341,0.41826182603836
196,1476424056,-106.32166290283203,-88.89288330078125,-7.32745265960693,9.78324317932129,-0.10443794727325,-0.18188391625881,1.00454926490784,0.11096061021090,0.22743436694145
197,1476440723,-106.58851623535156,-88.89288330078125,-7.06101465225220,9.77340602874756,-0.12634383141994,-0.22097384929657,0.72886705398560,0.20063067972660,0.23898570239544
198,1476457390,-106.71860504150391,-88.89411926269531,-6.93091058731079,9.79018974304199,-0.12255311757326,-0.18987759947777,0.94362950325012,0.36113271117210,0.24816785752773
199,1476474057,-106.79617309570312,-88.89606475830078,-6.85717725753784,9.80824184417725,-0.12210382521152,-0.20557799935341,1.03349149227142,0.43658763170242,0.20591968297958
200,1476490724,-106.66570281982422,-88.89926147460938,-6.98306703567505,9.78655242919922,-0.12119982391596,-0.20534747838974,1.25998473167419,0.67949855327606,0.22683247923851
201,1476507391,-106.77625274658203,-88.90140533447266,-6.86531114578247,9.79339599609375,-0.11851214617491,-0.23850664496422,1.44876313209534,0.39921870827675,0.17268720269203
202,1476524058,-106.78865814208984,-88.90354156494141,-6.84689950942993,9.80307292938232,-0.11198079586029,-0.17267996072769,1.38375818729401,0.51710116863251,0.18215110898018
203,1476540725,-106.85707092285156,-88.90586090087891,-6.76579236984253,9.78815269470215,-0.13798429071903,-0.16712141036987,1.26805269718170,0.45098197460175,0.18198463320732
204,1476557392,-106.85427093505859,-88.90890502929688,-6.75748968124390,9.78596305847168,-0.11140165477991,-0.17004220187664,1.54724407196045,0.54006302356720,0.15359294414520
205,1476574059,-106.91566467285156,-88.91285705566406,-6.69238042831421,9.78496551513672,-0.08922632783651,-0.18058767914772,1.28681409358978,0.47968104481697,0.11875967681408
206,1476590726,-107.05584716796875,-88.91664886474609,-6.54243421554565,9.77102088928223,-0.10016932338476,-0.19261991977692,1.33152091503143,0.39989748597145,0.06676589697599
207,1476607393,-107.19293212890625,-88.91972351074219,-6.40339517593384,9.77645015716553,-0.11331449449062,-0.21243707835674,1.37840509414673,0.38985726237297,0.11254861950874
208,1476624060,-107.29941558837891,-88.92443847656250,-6.28786373138428,9.77820301055908,-0.09283328056335,-0.20635274052620,1.33697640895844,0.44304203987122,0.06234771013260
209,1476640727,-107.39685058593750,-88.92990875244141,-6.20039987564087,9.79225730895996,-0.08826624602079,-0.17671452462673,0.97281509637833,0.48010361194611,0.00890681613237
210,1476657394,-107.49127960205078,-88.93228912353516,-6.10253000259399,9.81130409240723,-0.10795968770981,-0.17129068076611,1.20991194248199,0.44204321503639,0.13227039575577
211,1476674061,-107.59376525878906,-88.93577575683594,-5.99280309677124,9.77906894683838,-0.12197510153055,-0.16753001511097,1.52480721473694,0.42997956275940,0.12105201929808
212,1476690728,-107.72924041748047,-88.93928527832031,-5.84906291961670,9.78607749938965,-0.08758162707090,-0.19134390354156,1.54446494579315,0.39907786250114,0.09510634839535
213,1476707395,-107.78607177734375,-88.94501495361328,-5.78610944747925,9.79098796844482,-0.10124208033085,-0.20222251117229,0.93691891431808,0.52668035030365,0.02164913527668
214,1476724062,-107.74257659912109,-88.95133972167969,-5.81793498992920,9.77400684356689,-0.10001718252897,-0.22375459969044,1.14092421531677,0.65339916944504,-0.01544445846230
215,1476740729,-107.63978576660156,-88.95883178710938,-5.92814970016479,9.77851200103760,-0.12136308848858,-0.20633566379547,0.91774779558182,0.73797225952148,-0.04848483577371
216,1476757396,-107.52585601806641,-88.96770477294922,-6.04431295394897,9.78238010406494,-0.08533779531717,-0.16883394122124,1.09875285625458,0.76597982645035,-0.11057002842426
217,1476774063,-107.37869262695312,-88.97397613525391,-6.18488931655884,9.77612304687500,-0.07644940167665,-0.19809773564339,1.14613640308380,0.76019132137299,0.01159615069628
218,1476790730,-107.28037261962891,-88.98067474365234,-6.26529264450073,9.76029205322266,-0.09763871878386,-0.19189450144768,1.45474374294281,0.69166457653046,0.02526052668691
219,1476807397,-107.13628387451172,-88.98741149902344,-6.40180397033691,9.78749275207520,-0.09240862727165,-0.16076233983040,1.35804295539856,0.74705201387405,0.02020201645792
220,1476824064,-106.97882080078125,-88.99322509765625,-6.55233621597290,9.80021667480469,-0.11358717828989,-0.19922450184822,1.25784599781036,0.76028090715408,0.02814195305109
221,1476840731,-106.91229248046875,-88.99790191650391,-6.60619068145752,9.83940219879150,-0.07385756820440,-0.18001721799374,1.42927193641663,0.63179492950439,0.09665593504906
222,1476857398,-106.80876922607422,-89.00299072265625,-6.71247863769531,9.82998085021973,-0.10304372012615,-0.21374028921127,1.07886457443237,0.68316119909286,0.08867757767439
223,1476874065,-106.71253967285156,-89.00771331787109,-6.79956960678101,9.78105831146240,-0.09848137199879,-0.17069992423058,1.39438724517822,0.65770208835602,0.11826023459435
224,1476890732,-106.44851684570312,-89.01166534423828,-7.05048990249634,9.76508808135986,-0.07966492325068,-0.17355863749981,1.50130760669708,0.81661605834961,0.19372804462910
225,1476907399,-106.02085113525391,-89.01722717285156,-7.46265697479248,9.76373195648193,-0.08829466253519,-0.19662857055664,1.31045448780060,1.01393628120422,0.12780097126961
226,1476924066,-105.53937530517578,-89.02401733398438,-7.93367624282837,9.78250026702881,-0.08225884288549,-0.22154904901981,1.13669788837433,1.08079838752747,0.09003504365683
227,1476940733,-104.97576141357422,-89.03086090087891,-8.49745464324951,9.78891086578369,-0.10363219678402,-0.21471743285656,1.23973798751831,1.16327118873596,0.08448989689350
228,1476957400,-104.35524749755859,-89.03693389892578,-9.11432647705078,9.77283477783203,-0.07756300270557,-0.16015174984932,1.52123415470123,1.18566942214966,0.17477464675903
229,1476974067,-103.63237762451172,-89.04591369628906,-9.83179759979248,9.77949333190918,-0.10432938486338,-0.13278415799141,1.56678640842438,1.31906032562256,0.03661975637078
230,1476990734,-102.91364288330078,-89.05394744873047,-10.54009342193604,9.79001331329346,-0.12874644994736,-0.18303698301315,1.70741307735443,1.30036318302155,0.03303398191929
231,1477007401,-102.39614868164062,-89.05954742431641,-11.04788589477539,9.79623031616211,-0.05359965935349,-0.14333990216255,1.42324030399323,1.06663453578949,0.12315227091312
232,1477024068,-102.16935729980469,-89.06623840332031,-11.26332378387451,9.78244972229004,-0.09574599564075,-0.15397992730141,1.12086939811707,0.78654682636261,0.03609469905496
233,1477040735,-102.10691833496094,-89.06980133056641,-11.32390975952148,9.80561351776123,-0.06318801641464,-0.13134777545929,1.00137329101562,0.59999668598175,0.13405047357082
234,1477057402,-102.15515899658203,-89.07212066650391,-11.27898979187012,9.80580043792725,-0.08895383775234,-0.12916068732738,0.76815688610077,0.48429137468338,0.17036929726601
235,1477074069,-102.35504150390625,-89.07380676269531,-11.07572364807129,9.78365516662598,-0.10050575435162,-0.17517423629761,1.14054000377655,0.32544136047363,0.16639932990074
236,1477090736,-102.84435272216797,-89.07592010498047,-10.57814693450928,9.76960372924805,-0.07977245748043,-0.15522573888302,1.13049972057343,0.03026781044900,0.17737434804440
237,1477107403,-103.38073730468750,-89.07804107666016,-10.04387474060059,9.76307106018066,-0.08230640739202,-0.15515732765198,0.66612869501114,0.01614240556955,0.07982837408781
238,1477124070,-103.98940277099609,-89.07974243164062,-9.44522476196289,9.77775478363037,-0.08734519779682,-0.18406757712364,0.33746650815010,-0.05381228029728,0.09897386282682
239,1477140737,-104.54386138916016,-89.08315277099609,-8.89130973815918,9.77892780303955,-0.08546780049801,-0.17913942039013,0.79143875837326,0.01644975505769,0.02289135009050
240,1477157404,-105.04030609130859,-89.08358001708984,-8.39029693603516,9.78615093231201,-0.06653975695372,-0.17978732287884,0.93056708574295,0.03654292225838,0.16686034202576
241,1477174071,-105.58508300781250,-89.08614349365234,-7.83837795257568,9.77485084533691,-0.06970048695803,-0.21141594648361,0.98277842998505,0.01490018796176,0.06898140162230
242,1477190738,-106.15531921386719,-89.08699798583984,-7.26888895034790,9.77954769134521,-0.05540096014738,-0.18647830188274,0.90111231803894,-0.02467783354223,0.13484445214272
243,1477207405,-106.79338073730469,-89.09000396728516,-6.63315010070801,9.79577922821045,-0.09257727861404,-0.15899817645550,0.76996254920959,-0.06202114745975,0.03838702663779
244,1477224072,-107.39374542236328,-89.08957672119141,-6.03374528884888,9.79667854309082,-0.09190516918898,-0.14774762094021,1.03595054149628,-0.07130575925112,0.18677422404289
245,1477240739,-108.05022430419922,-89.08936309814453,-5.36773109436035,9.79858779907227,-0.08190603554249,-0.16642735898495,1.00460052490234,-0.11708846688271,0.14868810772896
246,1477257406,-108.79150390625000,-89.08828735351562,-4.61749982833862,9.77809524536133,-0.07272499799728,-0.18356613814831,1.22764861583710,-0.22181877493858,0.18950194120407
247,1477274073,-109.40617370605469,-89.08892822265625,-4.00526189804077,9.79832363128662,-0.08655934035778,-0.18471617996693,0.84094810485840,-0.05682177096605,0.10658083856106
248,1477290740,-110.00505065917969,-89.08872222900391,-3.40414977073669,9.78905296325684,-0.06964293122292,-0.21410614252090,0.83400720357895,-0.05970320478082,0.16286477446556
249,1477307407,-110.47581481933594,-89.09000396728516,-2.93183875083923,9.77544689178467,-0.07874710112810,-0.20545415580273,0.95917636156082,0.07959786802530,0.13981331884861
250,1477324074,-110.93538665771484,-89.08979034423828,-2.47838735580444,9.78021240234375,-0.07917261123657,-0.20767559111118,1.20321428775787,0.08401605486870,0.15305510163307
251,1477340741,-111.35120391845703,-89.09129333496094,-2.05583405494690,9.78171920776367,-0.06811445951462,-0.23066055774689,0.92883819341660,0.14634457230568,0.11842673271894
252,1477357408,-111.74227905273438,-89.09086608886719,-1.64999687671661,9.77170181274414,-0.08521486073732,-0.23998181521893,1.23038947582245,0.13498534262180,0.20086120069027
253,1477374075,-112.07699584960938,-89.09107971191406,-1.30359530448914,9.79526805877686,-0.07296885550022,-0.18513965606689,1.45077371597290,0.18421292304993,0.21589583158493
254,1477390742,-112.50022888183594,-89.09086608886719,-0.87500894069672,9.79077625274658,-0.06449656188488,-0.17378376424313,1.30976295471191,0.09419710189104,0.21640808880329
255,1477407409,-113.01330566406250,-89.09086608886719,-0.36247435212135,9.80684566497803,-0.07649386674166,-0.15812720358372,1.17731988430023,0.01744865253568,0.17961546778679
256,1477424076,-113.46058654785156,-89.09000396728516,0.08018584549427,9.79614543914795,-0.05525587499142,-0.17063081264496,0.82228928804398,0.08687186986208,0.19381769001484
257,1477440743,-113.82447814941406,-89.08742523193359,0.45464700460434,9.78594398498535,-0.06085681542754,-0.18076169490814,1.18052124977112,0.11206195503473,0.31709164381027
258,1477457410,-114.14696502685547,-89.08614349365234,0.77499294281006,9.77616405487061,-0.09676491469145,-0.20734123885632,1.23785531520844,0.17243109643459,0.28129786252975
259,1477474077,-114.42904663085938,-89.08400726318359,1.06713366508484,9.79279422760010,-0.09013132750988,-0.19774824380875,1.58716130256653,0.17921845614910,0.34121876955032
260,1477490744,-114.79521179199219,-89.08102416992188,1.44676887989044,9.77260780334473,-0.06396684795618,-0.20824117958546,1.56825911998749,0.08101937174797,0.35489594936371
261,1477507411,-115.18161010742188,-89.07740783691406,1.84490501880646,9.79027462005615,-0.07421718537807,-0.20618900656700,1.54568159580231,0.04105075448751,0.38899928331375
262,1477524078,-115.51273345947266,-89.07232666015625,2.18691158294678,9.77818965911865,-0.06262252479792,-0.19551619887352,1.62395393848419,0.07921367138624,0.42612487077713
263,1477540745,-115.79966735839844,-89.06832885742188,2.47985935211182,9.78793144226074,-0.07719682902098,-0.19494332373142,1.64189565181732,0.12595684826374,0.42415270209312
264,1477557412,-115.96580505371094,-89.06455993652344,2.65793251991272,9.78547382354736,-0.06727122515440,-0.16377480328083,1.61431097984314,0.23615549504757,0.46522271633148
265,1477574079,-116.09793090820312,-89.06163024902344,2.79081606864929,9.78893375396729,-0.08766464889050,-0.17812031507492,1.10966372489929,0.30568113923073,0.41942712664604
266,1477590746,-116.14006042480469,-89.06121826171875,2.83474612236023,9.78745937347412,-0.09464669972658,-0.17411892116070,0.98404616117477,0.42218050360680,0.38602817058563
267,1477607413,-116.02581787109375,-89.05872344970703,2.72118163108826,9.79368591308594,-0.08881318569183,-0.18808928132057,1.27572369575500,0.51859951019287,0.53725838661194
268,1477624080,-115.98307800292969,-89.05705261230469,2.67954897880554,9.77914524078369,-0.05410685762763,-0.21491016447544,1.44434499740601,0.48269054293633,0.44347751140594
269,1477640747,-116.01315307617188,-89.05312347412109,2.71475386619568,9.77374839782715,-0.06915343552828,-0.20895424485207,1.47346663475037,0.35428127646446,0.53616982698441
270,1477657414,-116.00378417968750,-89.04920959472656,2.71477246284485,9.77602577209473,-0.08231469243765,-0.19661785662174,1.49060165882111,0.39841195940971,0.53478682041168
271,1477674081,-115.92019653320312,-89.04673767089844,2.62296891212463,9.77252864837646,-0.08399720489979,-0.18538533151150,1.24606418609619,0.52358114719391,0.46440303325653
272,1477690748,-115.76859283447266,-89.04570770263672,2.47962975502014,9.79425621032715,-0.08866404742002,-0.20451238751411,1.46167194843292,0.59050714969635,0.47317543625832
273,1477707415,-115.62910461425781,-89.04468536376953,2.34614133834839,9.80494022369385,-0.05851602554321,-0.19392019510269,1.28970837593079,0.59116035699844,0.44859999418259
274,1477724082,-115.41487121582031,-89.04386901855469,2.13715410232544,9.78190612792969,-0.08632402867079,-0.19756966829300,1.45323252677917,0.65492308139801,0.48723676800728
275,1477740749,-115.22302246093750,-89.04141235351562,1.95232653617859,9.77876472473145,-0.07185616344213,-0.20799949765205,1.46715319156647,0.59195429086685,0.56868523359299
276,1477757416,-115.15984344482422,-89.03876495361328,1.90013480186462,9.78927516937256,-0.06943821907043,-0.18639057874680,1.42847776412964,0.47297042608261,0.51269572973251
277,1477774083,-115.09438323974609,-89.03450012207031,1.85607683658600,9.80202198028564,-0.07870252430439,-0.18030811846256,1.30667674541473,0.43336045742035,0.60742443799973
278,1477790750,-115.03101348876953,-89.02964782714844,1.80840635299683,9.79354858398438,-0.08201527595520,-0.15874946117401,1.28915762901306,0.43452587723732,0.60417157411575
279,1477807417,-114.92390441894531,-89.02561950683594,1.71203804016113,9.78452682495117,-0.07245906442404,-0.19062441587448,1.21616137027740,0.49392172694206,0.58643484115601
280,1477824084,-114.83095550537109,-89.02301025390625,1.62341952323914,9.80875205993652,-0.09684341400862,-0.20245301723480,1.02734470367432,0.48297223448753,0.58515411615372
281,1477840751,-114.74416351318359,-89.01902008056641,1.53994488716125,9.79273319244385,-0.08741110563278,-0.18417811393738,1.11208415031433,0.48746728897095,0.56052750349045
282,1477857418,-114.56931304931641,-89.01802062988281,1.35021984577179,9.77908325195312,-0.08062022924423,-0.22191955149174,0.81733322143555,0.63349807262421,0.48215267062187
283,1477874085,-114.33444213867188,-89.01821899414062,1.12066876888275,9.77753353118896,-0.08080327510834,-0.19893762469292,1.33232784271240,0.71812248229980,0.42142495512962
284,1477890752,-113.98075103759766,-89.01722717285156,0.77365612983704,9.77207469940186,-0.05629536509514,-0.17879955470562,1.22320497035980,0.80351519584656,0.53902566432953
285,1477907419,-113.78614807128906,-89.01583099365234,0.60529172420502,9.79492187500000,-0.08603620529175,-0.19196392595768,1.41570997238159,0.62758153676987,0.51238846778870
286,1477924086,-113.68173217773438,-89.01226043701172,0.50718784332275,9.78859996795654,-0.09201776236296,-0.17759115993977,1.56697845458984,0.50928926467896,0.54833585023880
287,1477940753,-113.62187194824219,-89.01048278808594,0.45660021901131,9.78835678100586,-0.09531470388174,-0.15639376640320,1.42003834247589,0.48689094185829,0.48956751823425
288,1477957420,-113.68995666503906,-89.00731658935547,0.53109782934189,9.79696273803711,-0.06756072491407,-0.15570251643658,0.97724616527557,0.35157912969589,0.48085924983025
289,1477974087,-113.79740142822266,-89.00260162353516,0.65106034278870,9.78578758239746,-0.07361762225628,-0.18232119083405,1.29352462291718,0.26589187979698,0.55581480264664
290,1477990754,-114.00611877441406,-88.99790191650391,0.86309987306595,9.79354667663574,-0.09116200357676,-0.20659071207047,1.42382919788361,0.17122729122639,0.49839112162590
291,1478007421,-114.22283935546875,-88.99264526367188,1.08098721504211,9.79869556427002,-0.08011624962091,-0.19864684343338,1.05838727951050,0.14775326848030,0.53853905200958
292,1478024088,-114.44580841064453,-88.98780059814453,1.30806267261505,9.78144359588623,-0.09334962815046,-0.19869458675385,1.17300403118134,0.16062363982201,0.48400956392288
293,1478040755,-114.66346740722656,-88.98297119140625,1.53051233291626,9.76360797882080,-0.05617413297296,-0.20333972573280,1.21645593643188,0.16944721341133,0.47206121683121
294,1478057422,-114.79540252685547,-88.98105621337891,1.66531920433044,9.78393173217773,-0.10406335443258,-0.25563183426857,1.02925276756287,0.29902186989784,0.41266542673111
295,1478074089,-114.82798004150391,-88.97894287109375,1.70818769931793,9.79314327239990,-0.09634485095739,-0.22749350965023,1.43955540657043,0.38910174369812,0.45753884315491
296,1478090756,-114.78783416748047,-88.97626495361328,1.66934978961945,9.78578186035156,-0.10402785986662,-0.18049468100071,1.36070656776428,0.45938295125961,0.49818617105484
297,1478107423,-114.81690216064453,-88.97492980957031,1.69702374935150,9.79279422760010,-0.09214710444212,-0.19160966575146,0.94580650329590,0.45226263999939,0.35681691765785
298,1478124090,-114.75930786132812,-88.97397613525391,1.64300656318665,9.80114746093750,-0.09529616683722,-0.17947649955750,1.02667856216431,0.52703893184662,0.41219159960747
299,1478140757,-114.58611297607422,-88.97397613525391,1.47211420536041,9.79951000213623,-0.09200909733772,-0.22730983793736,1.12232935428619,0.63503485918045,0.47122889757156
300,1478157424,-114.51106262207031,-88.97092437744141,1.41240251064301,9.78438282012939,-0.09812255203724,-0.23595926165581,1.70184195041656,0.49092492461205,0.50907152891159
301,1478174091,-114.44785308837891,-88.96788787841797,1.36805057525635,9.78126811981201,-0.09333495050669,-0.19720008969307,1.70248246192932,0.46010011434555,0.54204791784286
302,1478190758,-114.47152709960938,-88.96618652343750,1.40914082527161,9.80072784423828,-0.09908666461706,-0.19875691831112,1.53436076641083,0.41208913922310,0.42725181579590
303,1478207425,-114.46529388427734,-88.96372985839844,1.41393160820007,9.79038906097412,-0.09445904195309,-0.19681806862354,1.52222037315369,0.43675419688225,0.45344084501266
304,1478224092,-114.47748565673828,-88.96127319335938,1.43615269660950,9.79197597503662,-0.13252325356007,-0.21435816586018,1.39959943294525,0.40613415837288,0.47615927457809
305,1478240759,-114.60404968261719,-88.95883178710938,1.58322644233704,9.78921318054199,-0.08753310889006,-0.24029743671417,1.75934267044067,0.29311811923981,0.40242034196854
306,1478257426,-114.78035736083984,-88.95433044433594,1.77579045295715,9.77365493774414,-0.11401104927063,-0.25399872660637,2.24798202514648,0.17961546778679,0.49730262160301
307,1478274093,-115.14432525634766,-88.94761657714844,2.17499327659607,9.76855278015137,-0.13502885401249,-0.21761372685432,2.88888859748840,-0.07676126062870,0.51715242862701
308,1478290760,-115.30869293212891,-88.94390106201172,2.35435652732849,9.78127956390381,-0.00524904020131,-0.16052415966988,1.98436295986176,0.22811308503151,0.42570224404335
309,1478307427,-115.31999969482422,-88.94241333007812,2.35642743110657,9.82295799255371,-0.08967088907957,-0.20542851090431,1.10413146018982,0.42260313034058,0.45351767539978
310,1478324094,-115.36069488525391,-88.93909454345703,2.40673637390137,9.82449913024902,-0.12999011576176,-0.19947157800198,1.47467029094696,0.37483546137810,0.46067640185356
311,1478340761,-115.35986328125000,-88.93540954589844,2.44283747673035,9.77938270568848,-0.07873126864433,-0.21092996001244,2.56502866744995,0.35407635569572,0.55896514654160
312,1478357428,-115.36181640625000,-88.93137359619141,2.46733689308167,9.77528572082520,-0.08835062384605,-0.23100468516350,2.29679965972900,0.36439827084541,0.54714488983154
313,1478374095,-115.46643829345703,-88.92626190185547,2.58636331558228,9.78817558288574,-0.11010791361332,-0.23768277466297,1.95228302478790,0.24053525924683,0.55011594295502
314,1478390762,-115.46669769287109,-88.92353057861328,2.60369372367859,9.79337692260742,-0.10883729159832,-0.23997870087624,1.75350296497345,0.39889857172966,0.49919787049294
315,1478407429,-115.35490417480469,-88.92116546630859,2.50795578956604,9.79518222808838,-0.09218297153711,-0.22698524594307,1.88702201843262,0.53344202041626,0.50889235734940
316,1478424096,-115.15149688720703,-88.92116546630859,2.32319116592407,9.77780342102051,-0.07378303259611,-0.18378689885139,1.62641310691833,0.69507110118866,0.42627859115601
317,1478440763,-114.84377288818359,-88.91989898681641,2.02885723114014,9.76535606384277,-0.09117817878723,-0.21239782869816,1.57909333705902,0.76746529340744,0.55599403381348
318,1478457430,-114.42103576660156,-88.92116546630859,1.61009395122528,9.80864906311035,-0.07432318478823,-0.17544925212860,1.27662003040314,0.97089409828186,0.44429707527161
319,1478474097,-114.03886413574219,-88.92098999023438,1.24365627765656,9.79524707794189,-0.11561246216297,-0.18192985653877,1.55940997600555,0.87288713455200,0.53246879577637
320,1478490764,-113.73832702636719,-88.91881561279297,0.94377440214157,9.78173255920410,-0.08765870332718,-0.18781767785549,1.46834409236908,0.73903524875641,0.61020338535309
321,1478507431,-113.61147308349609,-88.91339874267578,0.82793503999710,9.78605747222900,-0.08017765730619,-0.15071974694729,1.48565840721130,0.47533971071243,0.71410137414932
322,1478524098,-113.63748168945312,-88.90765380859375,0.86539459228516,9.76948261260986,-0.09304878860712,-0.17763021588326,1.63295698165894,0.31856441497803,0.63171803951263
323,1478540765,-113.72295379638672,-88.89855194091797,0.95397061109543,9.79282855987549,-0.09762255102396,-0.18755723536015,1.41162490844727,0.16972896456718,0.80501365661621
324,1478557432,-113.76117706298828,-88.88864898681641,1.00592339038849,9.78268527984619,-0.09804585576057,-0.21900925040245,1.58365237712860,0.21640808880329,0.82494014501572
325,1478574099,-113.84996795654297,-88.87673950195312,1.11626970767975,9.76428794860840,-0.06819634139538,-0.22140847146511,1.44787931442261,0.10793831199408,0.92380517721176
326,1478590766,-113.91429138183594,-88.86529541015625,1.17497026920319,9.77259159088135,-0.10803857445717,-0.20216228067875,0.35402515530586,0.15724276006222,0.93435764312744
327,1478607433,-113.77472686767578,-88.85328674316406,1.06121754646301,9.79513645172119,-0.14335277676582,-0.26243615150452,2.48685836791992,0.31020176410675,1.09223437309265
328,1478624100,-113.68766784667969,-88.84089660644531,1.00618791580200,9.78979396820068,-0.08641041815281,-0.20845502614975,2.00786256790161,0.27134734392166,1.04910254478455
329,1478640767,-113.51168060302734,-88.82948303222656,0.84623730182648,9.79463386535645,-0.13306482136250,-0.20950467884541,1.58763504028320,0.40676164627075,1.04234075546265
330,1478657434,-113.35531616210938,-88.81849670410156,0.70890790224075,9.77947711944580,-0.14301355183125,-0.22316810488701,2.05723142623901,0.38309556245804,1.02382290363312
331,1478674101,-113.38292694091797,-88.80581665039062,0.75470983982086,9.77878189086914,-0.13024522364140,-0.22790585458279,1.84778344631195,0.15333682298660,0.98939943313599
332,1478690768,-113.32581329345703,-88.79390716552734,0.72106230258942,9.77109622955322,-0.11619728058577,-0.16335158050060,2.17338490486145,0.24926920235157,1.01881551742554
333,1478707435,-113.32316589355469,-88.78035736083984,0.73994213342667,9.78370380401611,-0.12539145350456,-0.19122286140919,1.93329143524170,0.16720612347126,1.04933321475983
334,1478724102,-113.55593109130859,-88.76141357421875,1.00552201271057,9.74332904815674,-0.20179942250252,-0.24579799175262,2.58320069313049,-0.29071691632271,1.29157793521881
335,1478740769,-113.57343292236328,-88.73948669433594,1.07528007030487,9.81083583831787,-0.21139262616634,-0.24998526275158,3.85560131072998,-0.10383387655020,1.48720777034760
336,1478757436,-113.38291931152344,-88.71518707275391,0.96760141849518,9.81541156768799,-0.10769802331924,-0.21722047030926,5.29399824142456,0.06695800274611,1.71573722362518
337,1478774103,-113.06417083740234,-88.69284057617188,0.70930045843124,9.81662750244141,-0.02636323682964,-0.13253335654736,3.82408475875854,0.30710262060165,1.70877039432526
338,1478790770,-112.63463592529297,-88.67322540283203,0.29654785990715,9.83168315887451,-0.13567842543125,-0.18592923879623,2.25165700912476,0.55886268615723,1.64455926418304
339,1478807437,-112.14790344238281,-88.65172576904297,-0.16116914153099,9.79749679565430,-0.09616424143314,-0.17693911492825,2.80426406860352,0.60727065801620,1.75027585029602
340,1478824104,-111.88863372802734,-88.62741851806641,-0.37077313661575,9.79045772552490,-0.11792926490307,-0.22303079068661,3.62854528427124,0.22416879236698,1.82076239585876
341,1478840771,-111.90270233154297,-88.59723663330078,-0.31113737821579,9.76499366760254,-0.10502564907074,-0.20924979448318,3.71701073646545,-0.25820162892342,1.96857285499573
342,1478857438,-112.06571960449219,-88.56659698486328,-0.11102087050676,9.73287773132324,-0.11839976161718,-0.24628107249737,3.19247603416443,-0.48748657107353,1.96147811412811
343,1478874105,-112.44285583496094,-88.53126525878906,0.29160481691360,9.75823593139648,-0.14615204930305,-0.23729258775711,2.69186258316040,-0.85673195123672,1.99816846847534
344,1478890772,-112.90251159667969,-88.49832153320312,0.78243267536163,9.79945755004883,-0.19199942052364,-0.14504499733448,2.72188067436218,-0.97731661796570,1.86744093894958
345,1478907439,-113.36636352539062,-88.46481323242188,1.29273509979248,9.77147006988525,-0.26340195536613,-0.19385431706905,2.67554712295532,-1.02117824554443,1.86842703819275
346,1478924106,-113.89744567871094,-88.41674804687500,1.92391228675842,9.83521461486816,-0.36712807416916,-0.33760410547256,6.97511434555054,-1.60681295394897,2.54547381401062
347,1478940773,-114.40143585205078,-88.35908508300781,2.58850646018982,9.80913639068604,-0.09467357397079,-0.21303614974022,10.77629852294922,-1.95386576652527,3.02096199989319
348,1478957440,-115.12375640869141,-88.29624938964844,3.42836546897888,9.74715995788574,-0.08819404989481,-0.17701345682144,8.10475063323975,-2.42951893806458,3.13236355781555
349,1478974107,-115.93086242675781,-88.22270965576172,4.36923313140869,9.69013786315918,-0.23328454792500,-0.15588429570198,8.17318725585938,-2.93784165382385,3.57358074188232
350,1478990774,-116.30828857421875,-88.14881896972656,4.85672903060913,9.79097652435303,-0.27257481217384,-0.19446505606174,7.76717615127563,-2.28482007980347,3.87231516838074
351,1479007441,-116.52400970458984,-88.07390594482422,5.19450712203979,9.82455539703369,-0.12758933007717,-0.16878141462803,8.13488388061523,-2.10225272178650,4.05872440338135
352,1479024108,-117.09867858886719,-87.99436187744141,5.86097097396851,9.78343582153320,-0.15277084708214,-0.15439130365849,6.55140256881714,-2.88270974159241,3.95277643203735
353,1479040775,-118.07805633544922,-87.90763092041016,6.92702674865723,9.75253295898438,-0.32094565033913,-0.22305548191071,5.30032491683960,-3.93041014671326,3.90100026130676
354,1479057442,-119.28948974609375,-87.80929565429688,8.26936149597168,9.81562042236328,-0.33937135338783,-0.31115978956223,8.48073291778564,-4.96931362152100,4.04692935943604
355,1479074109,-120.52384948730469,-87.69870758056641,9.63465118408203,9.76839160919189,-0.24071899056435,-0.30431360006332,8.89990997314453,-5.59313631057739,4.44555282592773
356,1479090776,-121.75954437255859,-87.58030700683594,11.03147888183594,9.76748466491699,-0.26610127091408,-0.31159949302673,10.67628192901611,-6.13884258270264,4.60811758041382
357,1479107443,-122.98067474365234,-87.45609283447266,12.38802623748779,9.73051261901855,-0.09033811837435,-0.22093138098717,8.84179687500000,-6.48481845855713,4.75244569778442
358,1479124110,-124.30022430419922,-87.31744384765625,13.78356361389160,9.69604778289795,-0.24123977124691,-0.24800166487694,5.43102836608887,-7.28785371780396,5.12049961090088
359,1479140777,-125.80021667480469,-87.15655517578125,15.40706062316895,9.71619415283203,-0.38642352819443,-0.27614215016365,8.13623237609863,-8.89506626129150,5.53175210952759
360,1479157444,-127.46664428710938,-86.97611999511719,17.22268676757812,9.77498435974121,-0.27504590153694,-0.17943693697453,9.68462467193604,-10.42906379699707,5.66764020919800
361,1479174111,-129.29637145996094,-86.77681732177734,19.16964721679688,9.75054550170898,-0.22998221218586,-0.20610570907593,7.68685722351074,-11.92882919311523,5.75599145889282
362,1479190778,-131.23661804199219,-86.55792999267578,21.19277000427246,9.75343513488770,-0.31366109848022,-0.31699725985527,5.64409017562866,-13.37235069274902,5.77477836608887
363,1479207445,-133.18223571777344,-86.31517791748047,23.23667907714844,9.78096675872803,-0.42223840951920,-0.36952811479568,6.52895975112915,-14.92297458648682,5.97673654556274
364,1479224112,-135.08432006835938,-86.04769897460938,25.25578880310059,9.76470565795898,-0.32618853449821,-0.41654074192047,7.61841106414795,-16.46908950805664,6.22333621978760
365,1479240779,-137.01872253417969,-85.74872589111328,27.29908180236816,9.72930526733398,-0.32036787271500,-0.35558545589447,7.08442592620850,-18.49726486206055,6.45449399948120
366,1479257446,-138.99609375000000,-85.41678619384766,29.37856674194336,9.67455387115479,-0.32672733068466,-0.27942779660225,6.62172031402588,-20.73333740234375,6.50739812850952
367,1479274113,-141.06901550292969,-85.04845428466797,31.51555252075195,9.73496341705322,-0.42067766189575,-0.24379348754883,4.26141834259033,-23.28250694274902,6.35399341583252
368,1479290780,-143.13029479980469,-84.63122558593750,33.65117645263672,9.77706336975098,-0.51187205314636,-0.38453266024590,4.80430793762207,-26.33516311645508,6.61025094985962
369,1479307447,-145.14694213867188,-84.15699005126953,35.78830337524414,9.77403068542480,-0.46623939275742,-0.35906741023064,7.47129631042480,-29.89060211181641,6.83914661407471
370,1479324114,-147.16743469238281,-83.61632537841797,37.93574523925781,9.72125816345215,-0.33534491062164,-0.41153737902641,7.74172258377075,-34.08502960205078,6.99606943130493
371,1479340781,-149.18843078613281,-82.99688720703125,40.07902526855469,9.73620319366455,-0.42460033297539,-0.35092714428902,7.32128429412842,-38.97898101806641,7.18622732162476
372,1479357448,-151.20285034179688,-82.28820800781250,42.24567413330078,9.67472267150879,-0.51468324661255,-0.31513005495071,8.92328166961670,-44.66820907592773,7.01569747924805
373,1479374115,-153.22891235351562,-81.50188446044922,44.40406036376953,9.91529083251953,-0.49631327390671,-0.15806904435158,7.50031805038452,-49.74403762817383,6.16606283187866
374,1479390782,-155.15867614746094,-80.64136505126953,46.42145156860352,10.44056510925293,-0.92568701505661,-0.39171212911606,4.64605760574341,-54.15560531616211,5.89330768585205
375,1479407449,-156.85917663574219,-79.71755981445312,48.26440811157227,10.86537647247314,-1.39311730861664,-0.84646725654602,7.78192996978760,-57.80809402465820,5.63694334030151
376,1479424116,-158.25622558593750,-78.72648620605469,49.96917343139648,11.13051700592041,-1.57194185256958,-0.92486041784286,17.51314926147461,-61.76673507690430,5.35275411605835
377,1479440783,-159.35523986816406,-77.66081237792969,51.51020431518555,11.34969329833984,-1.18763375282288,-0.93394833803177,25.41730880737305,-65.96112823486328,5.81008100509644
378,1479457450,-160.47724914550781,-76.56742858886719,53.00157165527344,11.31167888641357,-0.94184195995331,-1.35235881805420,20.76148033142090,-67.97562408447266,4.11739826202393
379,1479474117,-161.30776977539062,-75.44628906250000,54.27286148071289,11.42277717590332,-0.65168839693069,-1.43828499317169,25.03371047973633,-69.10546112060547,4.92229795455933
380,1479490784,-162.04455566406250,-74.49134063720703,55.13164138793945,11.83762550354004,-0.02395563386381,-0.59762674570084,6.40635871887207,-58.10802459716797,5.66237688064575
381,1479507451,-163.08247375488281,-74.00046539306641,55.57526397705078,10.92128562927246,-0.53247982263565,-1.52800536155701,-35.80447006225586,-29.78692626953125,2.26642751693726
382,1479524118,-164.13635253906250,-73.40869903564453,56.37125396728516,10.18501377105713,0.36100023984909,-1.95709645748138,-16.54309654235840,-37.36573028564453,-2.49976325035095
383,1479540785,-165.49516296386719,-72.78306579589844,57.37409591674805,9.64245033264160,0.65761506557465,-2.78135585784912,-23.10726547241211,-40.33281707763672,-6.71484375000000
384,1479557452,-166.95884704589844,-72.18920898437500,58.65099716186523,9.33377361297607,1.13939750194550,-3.70696234703064,-13.90813541412354,-39.61662673950195,-13.57011032104492
385,1479574119,-168.15240478515625,-71.52931213378906,60.10591888427734,8.97218608856201,1.12489068508148,-3.92616772651672,12.19646835327148,-44.04210662841797,-17.66777801513672
386,1479590786,-168.92742919921875,-70.98260498046875,61.49252319335938,8.58110332489014,0.28929859399796,-2.20542502403259,33.13246917724609,-36.98147583007812,-19.34117889404297
387,1479607453,-168.94029235839844,-70.70095062255859,62.63462448120117,7.98847484588623,-1.10616457462311,-0.95608276128769,64.80693054199219,-20.42469024658203,-18.48398208618164
388,1479624120,-168.06907653808594,-70.75928497314453,63.50713348388672,7.43261766433716,-0.48552885651588,-0.49116861820221,102.53900146484375,0.46098858118057,-17.28565979003906
389,1479640787,-167.00735473632812,-71.14361572265625,64.14443969726562,7.67994070053101,-0.40059447288513,0.36814495921135,100.69337463378906,20.29320907592773,-16.82063102722168
390,1479657454,-165.88894653320312,-71.82757568359375,64.56769561767578,7.66431045532227,-0.41378226876259,0.34795618057251,92.03316497802734,38.47225189208984,-17.11396217346191
391,1479674121,-164.81201171875000,-72.76818847656250,64.76727294921875,7.95696878433228,-0.49320009350777,0.31439420580864,76.86544799804688,54.14660263061523,-17.45407676696777
392,1479690788,-163.72926330566406,-73.93565368652344,64.66826629638672,8.32828903198242,-0.72415125370026,0.20996442437172,60.11341857910156,68.34996032714844,-17.00817871093750
393,1479707455,-162.45339965820312,-75.28837585449219,64.20563507080078,8.53045845031738,-1.14809083938599,-0.05975078046322,50.63288116455078,80.25157165527344,-16.21590614318848
394,1479724122,-160.76965332031250,-76.82833099365234,63.28008651733398,9.16925716400146,-1.35788834095001,-0.58292329311371,47.96398162841797,92.34896850585938,-16.10620117187500
395,1479740789,-158.34179687500000,-78.56774902343750,61.65210723876953,9.35846042633057,-1.46315455436707,-1.09898638725281,51.06072998046875,105.50138092041016,-16.60467529296875
396,1479757456,-154.70141601562500,-80.47795867919922,59.11532974243164,9.48874187469482,-0.14930364489555,-2.54399967193604,69.56615447998047,116.57064819335938,-19.91728019714355
397,1479774123,-150.56950378417969,-82.39099121093750,55.13632202148438,9.86366939544678,-0.66501617431641,-2.03453874588013,12.64170455932617,118.65388488769531,-20.79395103454590
398,1479790790,-142.03172302246094,-84.19107055664062,47.61837005615234,10.09048557281494,-3.65560388565063,-2.73912382125854,65.02798461914062,119.32301330566406,-15.60702705383301
399,1479807457,-126.06867980957031,-85.86473846435547,32.97784042358398,10.07099151611328,1.14138400554657,-0.95190733671188,83.28017425537109,124.28076934814453,-18.36984825134277
400,1479824124,-95.65447998046875,-87.00814056396484,2.76776528358459,10.49158191680908,0.48614543676376,-1.29689538478851,16.10998725891113,128.22937011718750,-21.75820350646973
401,1479840791,-55.60708236694336,-86.77742767333984,-37.34247589111328,11.05085659027100,-0.31046703457832,-1.47978568077087,0.19746629893780,127.71516418457031,-18.83815574645996
402,1479857458,-31.96454429626465,-85.40867614746094,-61.31453323364258,11.32554721832275,-0.13602970540524,-1.12932550907135,-15.63657951354980,125.79491424560547,-14.44302272796631
403,1479874125,-21.23947143554688,-83.66277313232422,-72.63749694824219,11.22984027862549,-0.24840232729912,-1.00666284561157,-31.95061111450195,122.56255340576172,-10.78696632385254
404,1479890792,-16.03504943847656,-81.87578582763672,-78.60056304931641,10.92259502410889,-0.66884243488312,-0.93875896930695,-41.82189941406250,116.28544616699219,-8.11470794677734
405,1479907459,-13.20880126953125,-80.17704772949219,-82.16806793212891,10.62617111206055,-1.10222041606903,-0.89508718252182,-41.01243591308594,107.45693969726562,-6.25269842147827
406,1479924126,-11.48508358001709,-78.62099456787109,-84.53086090087891,10.46827697753906,-1.25262868404388,-0.75539612770081,-35.07603454589844,97.21685791015625,-5.18154191970825
407,1479940793,-10.27811050415039,-77.24538421630859,-86.15941619873047,9.99530601501465,-1.51784551143646,-0.79701840877533,-22.29167747497559,85.36839294433594,-4.14214849472046
408,1479957460,-9.33298492431641,-76.10364532470703,-87.19520568847656,9.62581539154053,-1.48682689666748,-0.66959661245346,-2.92577695846558,70.41634368896484,-2.11165022850037
409,1479974127,-8.47992229461670,-75.25074768066406,-87.84014129638672,9.23120212554932,-1.03941082954407,-0.50742000341415,14.53643894195557,52.51189422607422,-1.19768774509430
410,1479990794,-7.70713186264038,-74.72429656982422,-88.26535034179688,8.73613739013672,-0.71535414457321,-0.17103403806686,22.56777763366699,32.68425750732422,-1.75966644287109
411,1480007461,-7.14680862426758,-74.50161743164062,-88.50045013427734,8.56201744079590,-0.42396807670593,0.63238668441772,20.85592269897461,14.22196388244629,-1.64964091777802
412,1480024128,-6.97435426712036,-74.49451446533203,-88.64673614501953,8.71904277801514,-0.67897021770477,1.39225769042969,2.73090934753418,1.20163881778717,-1.94054603576660
413,1480040795,-7.04803419113159,-74.61746978759766,-88.71427154541016,9.09801483154297,-1.33349239826202,1.93253183364868,-7.48108768463135,-6.70048904418945,-1.63603723049164
414,1480057462,-7.42386579513550,-74.77360534667969,-88.67102050781250,9.38603305816650,-1.31293821334839,2.46485638618469,-19.21018409729004,-8.88655757904053,-0.16618826985359
415,1480074129,-8.04823970794678,-74.90237426757812,-88.54944610595703,9.81038665771484,-1.60365855693817,2.60822486877441,-29.58015251159668,-7.42067718505859,1.18446969985962
416,1480090796,-8.77977466583252,-74.98204040527344,-88.39781951904297,10.09093761444092,-1.39920878410339,2.85475277900696,-34.26697921752930,-4.58113193511963,1.97043812274933
417,1480107463,-9.72403526306152,-75.00411987304688,-88.15946197509766,10.00320720672607,-1.46554803848267,2.82585287094116,-41.99790954589844,-1.41345858573914,3.77440738677979
418,1480124130,-10.68307399749756,-74.98719024658203,-87.86107635498047,10.23679542541504,-1.32963061332703,2.81803011894226,-39.40506744384766,0.66558164358139,5.07367992401123
419,1480140797,-11.60577774047852,-74.96870422363281,-87.54100036621094,10.30842685699463,-1.25562596321106,2.80165338516235,-35.96747589111328,0.61379206180573,5.43051338195801
420,1480157464,-12.40906524658203,-74.96514129638672,-87.24246978759766,10.23180580139160,-1.29750967025757,2.82824444770813,-30.06065940856934,-0.26382446289062,4.92067003250122
421,1480174131,-13.03996849060059,-75.00591278076172,-86.91172027587891,10.43958187103271,-1.49719309806824,2.88352847099304,-17.84358024597168,-3.02821850776672,4.80668306350708
422,1480190798,-13.70276165008545,-75.08829498291016,-86.49353027343750,10.74852180480957,-0.69925093650818,3.34550619125366,-14.68083095550537,-5.81740522384644,5.48703336715698
423,1480207465,-14.50410175323486,-75.20126342773438,-86.06127166748047,11.03000354766846,-0.86700296401978,3.09589409828186,-22.16821670532227,-7.70652961730957,5.12763977050781
424,1480224132,-15.24159622192383,-75.36641693115234,-85.63160705566406,11.52846908569336,-0.92815124988556,2.82716345787048,-18.47199821472168,-10.76981163024902,4.11656284332275
425,1480240799,-15.82326030731201,-75.59552764892578,-85.23400115966797,11.34641456604004,-0.69491070508957,2.48813104629517,-10.95891761779785,-14.35958290100098,2.41310954093933
426,1480257466,-16.38855171203613,-75.88859558105469,-84.79840087890625,11.12835788726807,-0.32941573858261,2.24291849136353,-7.74351119995117,-18.18839645385742,1.63759505748749
427,1480274133,-16.98246383666992,-76.26210784912109,-84.33861541748047,10.44381999969482,-0.07555850595236,1.85135483741760,-8.01656055450439,-22.88389396667480,0.25583934783936
428,1480290800,-17.55389022827148,-76.73771667480469,-83.89391326904297,9.61825752258301,-0.07505171746016,1.47681701183319,-7.49679708480835,-28.60850334167480,-2.18979048728943
429,1480307467,-18.04419136047363,-77.32301330566406,-83.52532196044922,7.96959209442139,-0.08065778017044,1.15583515167236,-7.02885961532593,-34.46042633056641,-5.67597866058350
430,1480324134,-18.48081207275391,-78.03215026855469,-83.21649932861328,5.70255947113037,-0.13622093200684,0.83388751745224,-7.25740480422974,-41.14455795288086,-9.24369430541992
431,1480340801,-18.95587539672852,-78.86935424804688,-83.02294921875000,3.19418740272522,-0.23694349825382,0.65446811914444,-16.28311157226562,-47.82912445068359,-13.58504199981689
432,1480357468,-19.70163154602051,-79.79071044921875,-82.87551879882812,0.99512273073196,-0.65692508220673,0.71211832761765,-35.22481918334961,-52.20361328125000,-16.41617774963379
433,1480374135,-21.08791542053223,-80.73524475097656,-82.35111236572266,0.41599014401436,-1.06196093559265,0.96539402008057,-51.33302307128906,-54.47407913208008,-14.42531681060791
434,1480390802,-23.23379135131836,-81.63733673095703,-81.45145416259766,0.65928834676743,-1.56967401504517,0.58505648374557,-74.56745910644531,-52.75440979003906,-12.42020130157471
435,1480407469,-25.66322135925293,-82.46167755126953,-80.14773559570312,1.95530688762665,-2.32578849792480,-0.50339335203171,-67.47208404541016,-48.99813461303711,-10.28069305419922
436,1480424136,-27.50658607482910,-83.21782684326172,-78.94802856445312,1.76426649093628,-2.72938489913940,-1.69892418384552,-38.36174011230469,-44.08364868164062,-11.94103336334229
437,1480440803,-28.89628410339355,-83.87650299072266,-77.48741912841797,0.41441595554352,-3.82903695106506,-3.01249170303345,4.53331422805786,-38.98271560668945,-9.66051387786865
438,1480457470,-32.00689697265625,-84.41138458251953,-73.61167144775391,0.61982822418213,-1.60276746749878,-2.64447355270386,45.50421905517578,-39.16036224365234,4.53876256942749
439,1480474137,-39.11761093139648,-84.91616058349609,-66.03041076660156,0.51669251918793,-0.38046997785568,-1.75249636173248,27.09199523925781,-48.67745590209961,17.15973281860352
440,1480490804,-51.72663116455078,-85.44366455078125,-53.23094940185547,0.88895046710968,-0.09544160962105,-0.13386537134647,9.55376815795898,-67.47259521484375,23.15353965759277
441,1480507471,-71.94702148437500,-85.83971405029297,-33.31750106811523,1.40042126178741,0.45893353223801,1.70223498344421,-20.95553207397461,-90.25658416748047,22.38020324707031
442,1480524138,-98.76224517822266,-85.62875366210938,-7.42978858947754,2.45686054229736,-0.95600444078445,2.82444405555725,-58.85357666015625,-112.80029296875000,21.88005638122559
443,1480540805,-122.51471710205078,-84.49412536621094,14.85635471343994,3.27001166343689,1.29423332214355,4.23975944519043,-91.75621795654297,-130.16827392578125,22.43147277832031
444,1480557472,-139.14488220214844,-82.81362152099609,28.83145904541016,3.62696218490601,4.21865892410278,4.25743532180786,-163.35156250000000,-134.92736816406250,15.54447078704834
445,1480574139,-151.99493408203125,-80.86212921142578,38.89258956909180,2.95743584632874,4.26378536224365,-20.34881782531738,-172.41885375976562,-144.12977600097656,-4.36167144775391
446,1480590806,-167.10794067382812,-74.37009429931641,52.61613082885742,3.87202858924866,8.30394458770752,-45.46426773071289,-100.06623077392578,-423.44964599609375,-29.74849700927734
447,1480607473,-171.72109985351562,-68.89215850830078,58.48358535766602,31.61932945251465,2.16490626335144,17.69941902160645,58.54935836791992,-342.48776245117188,-48.41607284545898
448,1480624140,-173.94410705566406,-64.46038818359375,62.69900131225586,38.07326889038086,4.98515510559082,-2.17530441284180,99.86966705322266,-275.62924194335938,-65.86859130859375
449,1480640807,-178.50183105468750,-60.72609329223633,64.59304809570312,79.95774841308594,-8.23072814941406,1.84449052810669,-171.59013366699219,-226.49478149414062,-37.09915924072266
450,1480657474,-175.46676635742188,-57.09163284301758,64.37199401855469,23.24855804443359,0.79510283470154,-10.76567840576172,171.53013610839844,-216.95317077636719,18.66177368164062
451,1480674141,-175.25302124023438,-54.20799255371094,63.78785324096680,-4.30797863006592,-0.85564327239990,-16.65099525451660,-15.26296424865723,-170.38015747070312,34.05647277832031
452,1480690808,-175.33178710937500,-52.64672088623047,63.75548553466797,-4.01097822189331,0.25823745131493,-14.34309864044189,-5.42379665374756,-92.78102874755859,9.18428611755371
453,1480707475,-175.60881042480469,-52.14976501464844,64.02817535400391,11.96934986114502,-4.69174909591675,-13.04613971710205,-2.79427814483643,-30.01644515991211,-7.25681924819946
454,1480724142,-175.81282043457031,-52.61525726318359,63.90351104736328,15.27225875854492,-4.00043725967407,-14.93652439117432,-17.30255889892578,28.69114494323730,2.80104804039001
455,1480740809,-176.14373779296875,-54.12355422973633,63.50400543212891,14.66378021240234,-0.83693146705627,-14.43964862823486,-38.22713851928711,91.77537536621094,8.25511646270752
456,1480757476,-176.22512817382812,-56.75993347167969,63.09970474243164,17.51495361328125,-1.06516575813293,-15.09571361541748,-23.99724769592285,159.24542236328125,3.53851962089539
457,1480774143,-175.84407043457031,-60.49179458618164,62.32350158691406,23.07255363464355,-1.33542108535767,-14.29454803466797,-16.05058479309082,225.54553222656250,9.04417705535889
458,1480790810,-174.87585449218750,-65.82421875000000,60.35179901123047,32.71471405029297,-1.16945540904999,-8.49119472503662,-46.67684173583984,323.66836547851562,27.71911621093750
459,1480807477,-169.68955993652344,-72.76625823974609,55.10600280761719,37.21178817749023,-4.31838560104370,-3.60362720489502,17.03229904174805,427.75476074218750,54.77309417724609
460,1480824144,-147.08399963378906,-80.57769775390625,35.24343490600586,42.39658355712891,-5.38381433486938,-1.11829876899719,193.84141540527344,530.60748291015625,84.70140838623047
461,1480840811,-89.71087646484375,-83.62390899658203,-19.08250808715820,29.71937561035156,4.81184959411621,-13.37206459045410,208.73736572265625,457.76989746093750,62.63063430786133
462,1480857478,-71.93006896972656,-83.87493896484375,-33.83791351318359,-11.78373336791992,39.07964706420898,-19.80854415893555,187.52429199218750,93.06296539306641,-29.73825836181641
463,1480874145,-91.12105560302734,-84.64961242675781,-17.49562644958496,-8.03540134429932,-11.69417858123779,-13.42308139801025,-174.87808227539062,-102.95781707763672,-30.70358276367188
464,1480890812,-132.37037658691406,-83.87145233154297,25.02972984313965,-2.01502728462219,10.50067138671875,-3.13950228691101,65.95524597167969,-247.36778259277344,-51.68849182128906
465,1480907479,-158.27024841308594,-80.46479797363281,51.10811996459961,4.56839561462402,-1.41255438327789,3.21109271049500,-1.78499114513397,-283.53927612304688,-60.26739883422852
466,1480924146,-170.87301635742188,-77.12556457519531,62.18812179565430,7.97270727157593,0.77893656492233,19.94747352600098,-102.77064514160156,-226.02413940429688,-70.94918823242188
467,1480940813,-177.55389404296875,-76.16492462158203,65.76017761230469,2.76986932754517,-10.02342033386230,13.70476341247559,-191.44303894042969,-61.81219482421875,-43.06724548339844
468,1480957480,-178.74713134765625,-77.49834442138672,66.05802917480469,2.07399463653564,-11.70773029327393,8.03220653533936,-53.32629013061523,80.30352020263672,-6.28492355346680
469,1480974147,-173.24267578125000,-80.24762725830078,63.27359771728516,-0.41651678085327,-14.56065940856934,6.13302803039551,167.10798645019531,167.22093200683594,21.00506401062012
470,1480990814,-160.42631530761719,-83.39351654052734,55.29143142700195,0.93128716945648,-4.90635347366333,4.20211791992188,295.48104858398438,199.33390808105469,23.78789710998535
471,1481007481,-137.60621643066406,-86.06359100341797,36.39685440063477,-0.81455630064011,2.21956300735474,3.07738304138184,240.62548828125000,189.30909729003906,7.99404144287109
472,1481024148,-97.30815887451172,-87.36136627197266,-2.39495229721069,0.39652672410011,3.82565236091614,-0.50964701175690,94.25329589843750,150.67459106445312,-4.26058387756348
473,1481040815,-58.64355468750000,-86.99599456787109,-41.70200729370117,1.18825614452362,1.39193880558014,-2.75647544860840,-35.18184280395508,116.31917572021484,-3.26029515266418
474,1481057482,-42.72644805908203,-85.99131774902344,-59.10879898071289,2.21945428848267,-2.65963172912598,-5.73903369903564,-86.54196166992188,87.46865081787109,6.01752042770386
475,1481074149,-36.50136566162109,-85.07427978515625,-65.89230346679688,1.34476602077484,-4.72664117813110,-6.06267452239990,-31.33920669555664,62.94625854492188,10.89483261108398
476,1481090816,-32.80228805541992,-84.41735839843750,-69.10309600830078,1.03889262676239,-2.21451592445374,-5.01247406005859,30.98137283325195,42.89737319946289,8.20441246032715
477,1481107483,-30.85767555236816,-83.95363616943359,-70.48905944824219,0.58583450317383,-1.16343152523041,-3.65088438987732,34.80685424804688,28.54833602905273,7.83653831481934
478,1481124150,-30.07287979125977,-83.59449005126953,-70.69651031494141,-0.49254617094994,-0.94222748279572,-2.47396731376648,35.57966995239258,19.72228050231934,10.08236789703369
479,1481140817,-29.70631027221680,-83.37812805175781,-70.92938232421875,-0.66592532396317,1.48131406307220,-1.79588353633881,8.96548271179199,12.51880073547363,5.41854429244995
480,1481157484,-30.58672142028809,-83.31352996826172,-70.67084503173828,-0.59930694103241,1.24497306346893,-2.06799554824829,-36.57701492309570,2.92670655250549,3.82898235321045
481,1481174151,-32.68855285644531,-83.38269042968750,-69.45721435546875,-0.64249277114868,-0.07588752359152,-2.14110660552979,-52.93427276611328,-7.48287773132324,5.33407211303711
482,1481190818,-35.56940460205078,-83.56212615966797,-67.37047576904297,-0.68919676542282,-0.69384771585464,-1.91212832927704,-47.61708450317383,-16.42079544067383,6.07370328903198
483,1481207485,-38.92691421508789,-83.81597900390625,-64.60625457763672,-0.67923629283905,0.09834077954292,-0.90432035923004,-35.77322769165039,-22.67600250244141,5.63113546371460
484,1481224152,-43.38535690307617,-84.05215454101562,-60.73560714721680,-0.41708612442017,-0.60255658626556,-0.21290190517902,-35.73651123046875,-26.33653831481934,9.49221801757812
485,1481240819,-48.74450302124023,-84.28433990478516,-55.70718383789062,0.18373973667622,-0.95770180225372,-0.11368571966887,-20.56220054626465,-31.25627136230469,11.58202743530273
486,1481257486,-54.57422637939453,-84.58919525146484,-49.98578643798828,0.34767979383469,0.43892201781273,0.38833707571030,-7.28900289535522,-36.95642089843750,6.65105724334717
487,1481274153,-61.33498382568359,-84.95492553710938,-43.62383651733398,0.22517924010754,1.44331216812134,1.05034315586090,-24.68442153930664,-40.62955856323242,0.21949617564678
488,1481290820,-70.59214019775391,-85.35303497314453,-35.22822952270508,-0.33845037221909,1.84971570968628,0.14902009069920,-52.66230392456055,-48.08108901977539,-4.08299398422241
489,1481307487,-85.65837097167969,-85.67863464355469,-21.77082824707031,-0.54599642753601,0.90132802724838,-0.85047322511673,-98.11579895019531,-65.21143341064453,-5.68098354339600
490,1481324154,-105.98036193847656,-85.56570434570312,-2.63722014427185,3.87214827537537,-4.41677570343018,-10.42524051666260,-73.67718505859375,-87.06765747070312,-1.87102961540222
491,1481340821,-150.23088073730469,-81.69395446777344,45.00967025756836,-0.38165664672852,2.17330050468445,-112.46681976318359,190.42045593261719,-373.37878417968750,-22.84129905700684
492,1481357488,-175.66259765625000,-74.03412628173828,65.38349151611328,69.34931945800781,49.70319747924805,81.48334503173828,-326.12420654296875,-507.27679443359375,-111.71766662597656
493,1481374155,179.10220336914062,-70.40634155273438,68.09832763671875,19.37541389465332,-53.81454086303711,-11.84843540191650,-158.03103637695312,-218.55992126464844,-42.87235260009766
494,1481390822,-179.74087524414062,-66.30329132080078,67.29965972900391,113.37087249755859,31.57694053649902,24.66020965576172,25.66405105590820,-245.81312561035156,16.63150787353516
495,1481407489,-176.87782287597656,-62.80164337158203,66.19629669189453,29.80535697937012,-15.69905567169189,-18.52212524414062,112.77127075195312,-208.71427917480469,34.95949935913086
496,1481424156,179.71080017089844,-60.53317260742188,64.91395568847656,16.49316787719727,-7.85520744323730,-14.66825580596924,-271.54110717773438,-134.74055480957031,40.20318603515625
497,1481440823,-177.72451782226562,-59.83769607543945,64.64945220947266,-7.05745220184326,-3.81985497474670,-11.20760345458984,140.94371032714844,-41.14049148559570,8.93464088439941
498,1481457490,-177.80395507812500,-60.30281829833984,65.58778381347656,-5.37042427062988,-3.22085976600647,-12.51412582397461,44.86328887939453,27.23471450805664,-28.83697319030762
499,1481474157,-177.76820373535156,-61.33974456787109,66.88107299804688,0.46543031930923,-5.99612140655518,-11.77740001678467,70.73419952392578,61.14845275878906,-39.88628005981445
500,1481490824,-177.96789550781250,-62.45731353759766,67.68309020996094,1.72716379165649,-2.05824875831604,-10.66963481903076,31.31035232543945,66.60439300537109,-24.82749366760254
501,1481507491,-178.36984252929688,-63.71327590942383,67.79154968261719,3.56246566772461,1.04656898975372,-8.73841381072998,-17.47275543212891,75.66848754882812,-5.03267049789429
502,1481524158,-178.66896057128906,-65.11701965332031,67.55297851562500,6.00232315063477,2.67095661163330,-6.79760503768921,-30.01615142822266,84.80017852783203,4.32274675369263
503,1481540825,-178.23988342285156,-66.52111053466797,67.22248077392578,8.81380271911621,4.93692350387573,-4.54166984558105,8.49362659454346,84.87545776367188,6.16671705245972
504,1481557492,-177.75268554687500,-67.79693603515625,66.79872131347656,11.04300785064697,4.21973085403442,-2.35970950126648,6.63780736923218,77.29057312011719,7.50717210769653
505,1481574159,-176.49095153808594,-68.96768188476562,66.01377868652344,11.78040218353271,0.77448874711990,-2.39893913269043,32.75423812866211,71.46880340576172,14.12319087982178
506,1481590826,-174.47395324707031,-70.06435394287109,64.92798614501953,10.52645301818848,0.30226266384125,-2.15290737152100,60.82846832275391,67.82893371582031,17.86420059204102
507,1481607493,-172.90937805175781,-71.18686676025391,63.75336837768555,8.11976337432861,0.30563503503799,-2.08896136283875,28.21772193908691,69.95418548583984,16.16114997863770
508,1481624160,-172.03988647460938,-72.34224700927734,62.53967285156250,7.17442083358765,-2.53033995628357,-3.07780647277832,-16.15726089477539,72.14836883544922,13.83423805236816
509,1481640827,-170.73034667968750,-73.49230957031250,61.16049957275391,7.67409086227417,-3.99537515640259,-3.78421068191528,0.30814588069916,72.30348968505859,14.01980686187744
510,1481657494,-168.89263916015625,-74.61280822753906,59.70711135864258,8.21828079223633,-2.28744053840637,-3.22997426986694,27.25010299682617,70.84245300292969,12.01201057434082
511,1481674161,-167.01942443847656,-75.65954589843750,58.25937652587891,8.47609806060791,0.26898449659348,-1.49349248409271,29.27138137817383,66.50601959228516,9.01007175445557
512,1481690828,-165.60900878906250,-76.63381958007812,56.82799530029297,8.88278579711914,1.82165849208832,-1.10938501358032,2.07710957527161,62.09909820556641,6.47211647033691
513,1481707495,-164.28819274902344,-77.50917053222656,55.40333938598633,9.17588329315186,1.07362401485443,-1.23322868347168,-3.22910594940186,56.12386322021484,5.15336465835571
514,1481724162,-162.75785827636719,-78.31361389160156,53.82543182373047,9.43324851989746,0.32863366603851,-1.40510201454163,0.08365830034018,52.34369277954102,5.64784145355225
515,1481740829,-160.98152160644531,-79.09180450439453,52.00415039062500,10.35124397277832,-0.45822715759277,-1.79968225955963,0.25658407807350,51.46832656860352,6.14078664779663
516,1481757496,-158.82554626464844,-79.88330078125000,49.84066772460938,11.22496509552002,-1.31637942790985,-1.85505163669586,2.56446552276611,53.16216278076172,6.25294923782349
517,1481774163,-156.13621520996094,-80.71154022216797,47.28195190429688,11.74888324737549,-1.87743926048279,-1.46694982051849,10.86133956909180,56.24493408203125,5.19959831237793
518,1481790830,-152.75404357910156,-81.51756286621094,44.13246154785156,11.44281482696533,-2.09427428245544,-0.97801995277405,17.05669975280762,56.64364624023438,5.80490207672119
519,1481807497,-148.77999877929688,-82.25965118408203,40.53679656982422,10.33188629150391,-1.44923043251038,-0.68549603223801,25.68172264099121,54.13637542724609,5.15926313400269
520,1481824164,-144.74630737304688,-82.88881683349609,36.82958221435547,9.42910289764404,-0.70683604478836,-0.03758625686169,22.27373313903809,47.75307846069336,3.69545555114746
521,1481840831,-140.98190307617188,-83.36930847167969,33.27246093750000,9.02286243438721,-0.06659999489784,0.25673961639404,14.78950977325439,38.82553863525391,3.29154014587402
522,1481857498,-137.80735778808594,-83.72745513916016,30.20297431945801,9.26934719085693,0.04553364589810,0.15976761281490,8.29489898681641,30.22455406188965,2.05719971656799
523,1481874165,-135.19430541992188,-83.97402954101562,27.65310859680176,9.17934608459473,-0.53779506683350,-0.03646400570869,5.49586153030396,22.44960594177246,2.04102230072021
524,1481890832,-133.09086608886719,-84.13001251220703,25.67261123657227,9.36608028411865,-0.77680575847626,-0.09993315488100,8.84962654113770,15.80806827545166,2.18123745918274
525,1481907499,-131.45910644531250,-84.23030853271484,24.16060066223145,9.60047721862793,-0.57570773363113,-0.18593628704548,8.47999286651611,11.29710960388184,2.06640172004700
526,1481924166,-130.19598388671875,-84.30963134765625,22.93514823913574,9.74157619476318,-0.70542639493942,-0.53204941749573,3.45784997940063,9.11031723022461,1.52690792083740
527,1481940833,-129.07450866699219,-84.36437988281250,21.94902229309082,9.71363639831543,-0.87821829319000,-0.65772408246994,9.24263477325439,7.04169607162476,1.51535689830780
528,1481957500,-128.23127746582031,-84.39310455322266,21.26676368713379,9.52134895324707,-0.58487570285797,-0.57011485099792,10.69062328338623,4.65003252029419,1.48655521869659
529,1481974167,-127.80149841308594,-84.38510894775391,21.01278305053711,9.35864830017090,-0.73743480443954,-0.47757437825203,11.45657157897949,1.32819187641144,1.61230099201202
530,1481990834,-127.94376373291016,-84.33873748779297,21.34003067016602,9.42886924743652,-0.59602236747742,-0.31077352166176,11.84009742736816,-2.79256677627563,1.33903896808624
531,1482007501,-128.63227844238281,-84.27296447753906,22.08192634582520,9.69612884521484,-0.50232899188995,-0.16803398728371,3.83158969879150,-5.45866870880127,0.66861319541931
532,1482024168,-129.73635864257812,-84.20904541015625,23.09533309936523,9.88648986816406,-0.69391769170761,-0.42815509438515,-4.90001821517944,-6.71118259429932,-0.56259590387344
533,1482040835,-130.91973876953125,-84.15581512451172,24.14634132385254,9.98255443572998,-0.84290623664856,-0.80828315019608,-7.42203807830811,-6.49124574661255,-1.38943815231323
534,1482057502,-131.94642639160156,-84.10641479492188,25.08448410034180,9.92830371856689,-0.87105590105057,-1.10663771629333,-4.76515388488770,-5.83518838882446,-1.26653540134430
535,1482074169,-132.73617553710938,-84.06845855712891,25.88565254211426,9.79834365844727,-0.60370564460754,-1.02211534976959,1.26878285408020,-4.75506210327148,-1.32805705070496
536,1482090836,-133.43815612792969,-84.04431915283203,26.56381416320801,9.65038299560547,-0.50704461336136,-0.97055953741074,-0.80157524347305,-3.61551499366760,-1.50790965557098
537,1482107503,-134.03808593750000,-84.02532196044922,27.10642242431641,9.68601036071777,-0.78345608711243,-1.04667568206787,-2.77484130859375,-2.78493261337280,-1.19843089580536
538,1482124170,-134.48011779785156,-84.01850128173828,27.54011344909668,9.78511524200439,-0.61747962236404,-0.99800926446915,0.20243635773659,-1.78056943416595,-1.27963614463806
539,1482140837,-134.86895751953125,-84.02413940429688,27.87590789794922,9.67908477783203,-0.50885647535324,-1.00255858898163,-2.45100736618042,-0.80828559398651,-1.39602029323578
540,1482157504,-135.18476867675781,-84.02912902832031,28.13443756103516,9.56902408599854,-0.65463161468506,-1.01200127601624,-2.68640089035034,-0.48557832837105,-1.03153860569000
541,1482174171,-135.46459960937500,-84.03227996826172,28.37148284912109,9.62143707275391,-0.63109076023102,-0.94775390625000,-1.80299305915833,-0.46294954419136,-0.86301988363266
542,1482190838,-135.70712280273438,-84.03583526611328,28.54778480529785,9.65360641479492,-0.57669854164124,-0.96023303270340,-3.19317340850830,-0.17316745221615,-0.61245077848434
543,1482207505,-135.88655090332031,-84.03760528564453,28.67217445373535,9.76038551330566,-0.59922045469284,-1.01490521430969,-2.49976062774658,-0.00933582801372,-0.31796881556511
544,1482224172,-135.92408752441406,-84.04158782958984,28.67583847045898,9.73658943176270,-0.61577618122101,-1.01103019714355,-1.19893038272858,0.59063524007797,0.14695926010609
545,1482240839,-135.79151916503906,-84.05690765380859,28.49501419067383,9.80978679656982,-0.52607852220535,-1.11243999004364,-1.99458873271942,1.88958299160004,0.48806908726692
546,1482257506,-135.47447204589844,-84.08712768554688,28.11614418029785,9.84038734436035,-0.58565729856491,-1.06535315513611,-2.74911332130432,3.39102530479431,0.72757351398468
547,1482274173,-134.96565246582031,-84.13716125488281,27.53231811523438,9.82427215576172,-0.63402014970779,-1.11179840564728,-3.48051023483276,5.10963821411133,0.75861626863480
548,1482290840,-134.28215026855469,-84.19907379150391,26.79088401794434,9.77915477752686,-0.71421372890472,-1.11080157756805,-2.40928435325623,6.27593755722046,0.85270446538925
549,1482307507,-133.46192932128906,-84.27138519287109,25.92381668090820,9.73222446441650,-0.58280539512634,-0.96913367509842,-1.71483480930328,7.21880722045898,0.82013809680939
550,1482324174,-132.60635375976562,-84.34611511230469,25.02192115783691,9.74578762054443,-0.65119802951813,-0.89192134141922,-1.68078243732452,7.42027568817139,0.71818661689758
551,1482340841,-131.61607360839844,-84.43437194824219,23.97619438171387,9.95778369903564,-0.46807554364204,-0.75218689441681,-2.19070577621460,8.55006408691406,0.50844413042068
552,1482357508,-130.51597595214844,-84.54310607910156,22.75551223754883,9.91182994842529,-0.74708896875381,-0.96349465847015,-6.06428194046021,10.04066181182861,0.02497879602015
553,1482374175,-129.19204711914062,-84.65789794921875,21.38546180725098,9.82291793823242,-0.76026624441147,-0.90827614068985,-1.56845831871033,10.80086040496826,-0.00503289792687
554,1482390842,-127.67292785644531,-84.78503417968750,19.84103202819824,9.81960391998291,-0.65828573703766,-0.79871690273285,-0.29539144039154,11.86363697052002,-0.34465748071671
555,1482407509,-125.99853515625000,-84.91831970214844,18.11325454711914,9.84156703948975,-0.60226583480835,-0.77124935388565,-1.95542836189270,12.69142627716064,-0.49998581409454
556,1482424176,-124.14186096191406,-85.04959869384766,16.24314880371094,9.79826259613037,-0.76148885488510,-0.76870912313461,0.45217326283455,13.00087833404541,-0.47639647126198
557,1482440843,-122.14715576171875,-85.17095184326172,14.32362174987793,9.69622898101807,-0.69275397062302,-0.64250057935715,5.75344228744507,12.64833450317383,-0.39668977260590
558,1482457510,-120.15303039550781,-85.28598785400391,12.37807178497314,9.75924491882324,-0.48292815685272,-0.45736220479012,4.14373350143433,12.32771301269531,-0.54982811212540
559,1482474177,-118.21664428710938,-85.39636230468750,10.44547462463379,9.78565406799316,-0.62803381681442,-0.46437114477158,1.42887556552887,11.89963436126709,-0.85341560840607
560,1482490844,-116.31055450439453,-85.50003051757812,8.55425357818604,9.73250579833984,-0.66068309545517,-0.43404093384743,2.08550882339478,11.31008148193359,-1.08509552478790
561,1482507511,-114.49581146240234,-85.59718322753906,6.75826644897461,9.77832221984863,-0.58583801984787,-0.40014261007309,2.27331352233887,10.50409889221191,-1.34296381473541
562,1482524178,-112.77751159667969,-85.68738555908203,5.04219818115234,9.77777862548828,-0.51595908403397,-0.33014041185379,1.26414716243744,9.79136085510254,-1.49921429157257
563,1482540845,-111.17737579345703,-85.76635742187500,3.45695042610168,9.71928691864014,-0.66221427917480,-0.38323506712914,1.98842310905457,8.79671478271484,-1.41376996040344
564,1482557512,-109.75142669677734,-85.83448791503906,2.07811760902405,9.67895793914795,-0.57142150402069,-0.24557346105576,3.87351846694946,7.55397415161133,-1.38154923915863
565,1482574179,-108.56790161132812,-85.89678192138672,0.92600452899933,9.68971538543701,-0.52095967531204,-0.18255335092545,2.89703345298767,6.38593149185181,-1.57043004035950
566,1482590846,-107.62908172607422,-85.95736694335938,-0.01775939576328,9.76352787017822,-0.54504781961441,-0.22503389418125,0.67940896749496,5.40282630920410,-1.88156008720398
567,1482607513,-106.82818603515625,-86.02043914794922,-0.84780180454254,9.81645870208740,-0.58867710828781,-0.24535349011421,-0.80964308977127,4.89296722412109,-2.24404406547546
568,1482624180,-106.05512237548828,-86.08569335937500,-1.66044819355011,9.79846668243408,-0.58683449029922,-0.31227713823318,-1.42492425441742,4.77714681625366,-2.48256254196167
569,1482640847,-105.29434967041016,-86.14969635009766,-2.46296596527100,9.82503032684326,-0.54581922292709,-0.35174065828323,-1.56200337409973,4.62591600418091,-2.49297356605530
570,1482657514,-104.49484252929688,-86.21214294433594,-3.29227447509766,9.78162097930908,-0.57738757133484,-0.36671027541161,-0.84699934720993,4.61537694931030,-2.43977642059326
571,1482674181,-103.77484130859375,-86.26891326904297,-4.01303100585938,9.70625686645508,-0.50098311901093,-0.30225294828415,0.88758909702301,4.03245735168457,-2.29187607765198
572,1482690848,-103.17964935302734,-86.32102203369141,-4.62818098068237,9.69279861450195,-0.44503420591354,-0.23592893779278,-0.29764515161514,3.49546098709106,-2.15402793884277
573,1482707515,-102.64526367187500,-86.37523651123047,-5.21445608139038,9.89511966705322,-0.50505876541138,-0.11248335987329,-2.20492076873779,3.36039280891418,-2.34732723236084
574,1482724182,-102.15417480468750,-86.43235015869141,-5.73954725265503,9.82161426544189,-0.61345678567886,-0.26622310280800,-1.13813877105713,3.11679029464722,-2.60426092147827
575,1482740849,-101.78961944580078,-86.48291778564453,-6.12935018539429,9.71962833404541,-0.37887904047966,-0.20929855108261,-0.63966435194016,2.49163532257080,-2.34146165847778
576,1482757516,-101.60047912597656,-86.52999877929688,-6.39169168472290,9.75209522247314,-0.43248376250267,-0.20847912132740,-3.52996850013733,1.95880198478699,-2.24342942237854
577,1482774183,-101.43327331542969,-86.57452392578125,-6.61755275726318,9.80582141876221,-0.51718670129776,-0.25337001681328,-2.66701221466064,1.77713084220886,-2.12188410758972
578,1482790850,-101.27021026611328,-86.61748504638672,-6.81033039093018,9.77714920043945,-0.53132426738739,-0.30571743845940,-0.92180109024048,1.63044691085815,-2.07553791999817
579,1482807517,-101.20234680175781,-86.65549468994141,-6.90230464935303,9.72340679168701,-0.43110901117325,-0.28108656406403,-0.60308945178986,1.20948934555054,-1.85035121440887
580,1482824184,-101.21221160888672,-86.69287109375000,-6.92443513870239,9.76905059814453,-0.44709363579750,-0.18752811849117,-1.08040773868561,0.95702499151230,-1.85677993297577
581,1482840851,-101.19183349609375,-86.73121643066406,-6.97852325439453,9.81872272491455,-0.47302821278572,-0.25322261452675,-1.19046545028687,1.07567572593689,-1.89176690578461
582,1482857518,-101.20146179199219,-86.76408386230469,-6.96641826629639,9.75182342529297,-0.44114780426025,-0.29730033874512,0.98358523845673,0.78865975141525,-1.61744189262390
583,1482874185,-101.28065490722656,-86.79021453857422,-6.90894651412964,9.77326393127441,-0.37988328933716,-0.22124452888966,-0.46122068166733,0.56474083662033,-1.26206576824188
584,1482890852,-101.37152099609375,-86.80984497070312,-6.80393600463867,9.76494598388672,-0.45780837535858,-0.32488396763802,1.67558920383453,0.33303549885750,-0.90348792076111
585,1482907519,-101.48636627197266,-86.82374572753906,-6.63283586502075,9.76367664337158,-0.39939501881599,-0.28775328397751,4.18246984481812,0.04893946275115,-0.59160214662552
586,1482924186,-101.74304199218750,-86.83454895019531,-6.34753799438477,9.73839187622070,-0.38763296604156,-0.22932493686676,2.52603340148926,-0.35268685221672,-0.49710410833359
587,1482940853,-102.09233856201172,-86.84644317626953,-6.00954437255859,9.80090713500977,-0.38429567217827,-0.21472620964050,0.15925334393978,-0.49630999565125,-0.63023877143860
588,1482957520,-102.49656677246094,-86.85951232910156,-5.61527442932129,9.77364158630371,-0.49908980727196,-0.34612730145454,0.20517691969872,-0.65629976987839,-0.72325134277344
589,1482974187,-102.86968994140625,-86.86975097656250,-5.24203729629517,9.76672744750977,-0.40505379438400,-0.29238158464432,0.80296450853348,-0.61768871545792,-0.53357654809952
590,1482990854,-103.21299743652344,-86.88240814208984,-4.90637826919556,9.80039310455322,-0.40559351444244,-0.27482199668884,0.35022163391113,-0.45285815000534,-0.66746687889099
591,1483007521,-103.51041412353516,-86.89643859863281,-4.60816144943237,9.77467632293701,-0.46061101555824,-0.29497182369232,0.86755979061127,-0.30412518978119,-0.72225260734558
592,1483024188,-103.85144805908203,-86.91041564941406,-4.29125356674194,9.74218463897705,-0.34203499555588,-0.29586383700371,-0.64939713478088,-0.35532498359680,-0.73035889863968
593,1483040855,-104.21369171142578,-86.92451477050781,-3.96563124656677,9.79054450988770,-0.44376659393311,-0.28657987713814,-1.37537646293640,-0.36692756414413,-0.75825119018555
594,1483057522,-104.55841064453125,-86.94116973876953,-3.65292048454285,9.82845687866211,-0.41603207588196,-0.30068621039391,-1.11767423152924,-0.28097134828568,-0.88769781589508
595,1483074189,-104.86875915527344,-86.95535278320312,-3.39095854759216,9.79131031036377,-0.32150396704674,-0.29950729012489,-2.09793615341187,-0.15012884140015,-0.70165991783142
596,1483090856,-105.16766357421875,-86.96450042724609,-3.12282633781433,9.77198696136475,-0.49556258320808,-0.36184591054916,-1.01670885086060,-0.23357500135899,-0.44090980291367
597,1483107523,-105.40328216552734,-86.97159576416016,-2.90236520767212,9.80980110168457,-0.35755276679993,-0.28327494859695,-0.07906639575958,-0.11450155824423,-0.28027972579002
598,1483124190,-105.60147857666016,-86.97586059570312,-2.71091079711914,9.75930881500244,-0.37738630175591,-0.33490803837776,0.41728848218918,-0.06910306215286,-0.08701914548874
599,1483140857,-105.84062194824219,-86.97637939453125,-2.48833465576172,9.73649978637695,-0.40174040198326,-0.33237627148628,-0.17452493309975,-0.22473862767220,0.10419885814190
600,1483157524,-106.12367248535156,-86.97418212890625,-2.20962929725647,9.76990127563477,-0.37044858932495,-0.31428781151772,0.56207710504532,-0.43866869807243,0.20416522026062
601,1483174191,-106.37339782714844,-86.97496032714844,-1.99021410942078,9.82293605804443,-0.35613042116165,-0.31500425934792,-1.00196886062622,-0.20784705877304,0.08507897704840
602,1483190858,-106.57375335693359,-86.97566986083984,-1.80301952362061,9.78805446624756,-0.46464589238167,-0.36088937520981,0.04275399819016,-0.10944305360317,0.10976962000132
603,1483207525,-106.71546936035156,-86.97806549072266,-1.65824365615845,9.78202438354492,-0.38947224617004,-0.33392319083214,1.01432061195374,0.05266612023115,0.04372728243470
604,1483224192,-106.83478546142578,-86.98014068603516,-1.54809653759003,9.78921699523926,-0.36164397001266,-0.30855157971382,0.27891588211060,0.14862409234047,0.10592772066593
605,1483240859,-106.95337677001953,-86.97890472412109,-1.44460391998291,9.77111721038818,-0.39671590924263,-0.32949045300484,-0.07918165624142,0.11139602959156,0.29954692721367
606,1483257526,-107.06578826904297,-86.97969055175781,-1.35909545421600,9.79262828826904,-0.36283126473427,-0.30596956610680,-0.78876864910126,0.20256443321705,0.20284615457058
607,1483274193,-107.14663696289062,-86.98078918457031,-1.31684815883636,9.76126384735107,-0.38462966680527,-0.33166372776031,-1.47258937358856,0.33988693356514,0.21768872439861
608,1483290860,-107.24861145019531,-86.98052978515625,-1.24427998065948,9.77669906616211,-0.42926385998726,-0.35211938619614,-0.93807792663574,0.22278565168381,0.27261513471603
609,1483307527,-107.28050994873047,-86.98027038574219,-1.23334562778473,9.79403018951416,-0.43596112728119,-0.34189257025719,-0.40904763340950,0.41363868117332,0.31604149937630
610,1483324194,-107.24265289306641,-86.98091888427734,-1.27960836887360,9.80484104156494,-0.42939877510071,-0.33618494868279,0.34440755844116,0.60180234909058,0.32339233160019
611,1483340861,-107.24430084228516,-86.98078918457031,-1.28016591072083,9.77547836303711,-0.43087071180344,-0.36205422878265,0.70383054018021,0.44562894105911,0.33418807387352
612,1483357528,-107.27820587158203,-86.97624969482422,-1.23187041282654,9.75088214874268,-0.35124245285988,-0.31600260734558,1.69906342029572,0.22054457664490,0.54154855012894
613,1483374195,-107.39009094238281,-86.96965789794922,-1.12169408798218,9.76488685607910,-0.38234141469002,-0.29679664969444,0.73355412483215,-0.00193375896197,0.58982849121094
614,1483390862,-107.55459594726562,-86.96345520019531,-0.96253216266632,9.78560829162598,-0.37860947847366,-0.32320687174797,0.50411558151245,-0.14585150778294,0.52441358566284
615,1483407529,-107.67134857177734,-86.95445251464844,-0.84442621469498,9.77729606628418,-0.43112739920616,-0.37342923879623,0.90476220846176,-0.07516046613455,0.72690761089325
616,1483424196,-107.77120208740234,-86.94545745849609,-0.73236495256424,9.78240680694580,-0.37690585851669,-0.36473616957664,1.57740283012390,-0.05481117591262,0.71800714731216
617,1483440863,-107.81426239013672,-86.93721008300781,-0.68952965736389,9.76938915252686,-0.38238933682442,-0.36219319701195,0.82367235422134,0.16913986206055,0.74291557073593
618,1483457530,-107.75115203857422,-86.92922210693359,-0.75749880075455,9.77768230438232,-0.43673729896545,-0.37456366419792,0.54346948862076,0.50839287042618,0.85182070732117
619,1483474197,-107.59590911865234,-86.92311096191406,-0.90153396129608,9.81152820587158,-0.44126075506210,-0.39056822657585,1.52211773395538,0.77855557203293,0.81596291065216
620,1483490864,-107.32505035400391,-86.91802978515625,-1.15870189666748,9.79897308349609,-0.38815850019455,-0.38731345534325,1.68706381320953,1.15124619007111,0.85630309581757
621,1483507531,-106.95726013183594,-86.91435241699219,-1.51988446712494,9.78200244903564,-0.42896249890327,-0.37114018201828,1.26450538635254,1.49827253818512,0.87981551885605
622,1483524198,-106.48939514160156,-86.91016387939453,-1.95805597305298,9.77858734130859,-0.43448832631111,-0.35957458615303,2.65458321571350,1.73635506629944,0.96702665090561
623,1483540865,-106.00285339355469,-86.90351867675781,-2.42108917236328,9.79000091552734,-0.39799702167511,-0.31887629628181,2.29516077041626,1.78007650375366,1.11984491348267
624,1483557532,-105.50143432617188,-86.89575195312500,-2.89425396919250,9.78602981567383,-0.43096455931664,-0.30777758359909,2.57746386528015,1.80477976799011,1.18272411823273
625,1483574199,-105.02492523193359,-86.88800811767578,-3.33565783500671,9.77692508697510,-0.42794701457024,-0.28957059979439,2.96342158317566,1.70793807506561,1.17178750038147
626,1483590866,-104.60854339599609,-86.87789154052734,-3.71567320823669,9.76665782928467,-0.39790692925453,-0.26386541128159,3.06199193000793,1.49719691276550,1.21730124950409
627,1483607533,-104.22071838378906,-86.87255859375000,-4.08049249649048,9.80617618560791,-0.42538490891457,-0.26859751343727,2.23993945121765,1.52690756320953,0.93183493614197
628,1483624200,-103.86826324462891,-86.86700439453125,-4.40390062332153,9.76719093322754,-0.43218624591827,-0.29689040780067,2.60880064964294,1.39577043056488,0.90967983007431
629,1483640867,-103.57905578613281,-86.85782623291016,-4.66142988204956,9.76712608337402,-0.41710594296455,-0.29414010047913,2.75497245788574,1.14024543762207,1.06105089187622
630,1483657534,-103.36581420898438,-86.84830474853516,-4.84809160232544,9.77063465118408,-0.40140479803085,-0.24268035590649,2.45956826210022,0.91683852672577,1.01721477508545
631,1483674201,-103.20237731933594,-86.83715057373047,-4.98620128631592,9.76504230499268,-0.43460729718208,-0.28742492198944,2.37390685081482,0.74084091186523,1.07506096363068
632,1483690868,-103.08313751220703,-86.82454681396484,-5.07461738586426,9.80154800415039,-0.43964534997940,-0.30255562067032,2.68064427375793,0.56060439348221,1.13977158069611
633,1483707535,-103.02109527587891,-86.81211853027344,-5.11282777786255,9.77380561828613,-0.41669043898582,-0.26576977968216,2.29076766967773,0.40897721052170,1.05909156799316
634,1483724202,-102.97846984863281,-86.80292510986328,-5.14875173568726,9.79149818420410,-0.41637745499611,-0.28217512369156,1.24868953227997,0.44360557198524,0.88459229469299
635,1483740869,-102.93008422851562,-86.79441833496094,-5.19007396697998,9.78044033050537,-0.45268282294273,-0.32464647293091,1.27143359184265,0.47128012776375,0.84619873762131
636,1483757536,-102.84535980224609,-86.78800964355469,-5.26455926895142,9.80822277069092,-0.45867848396301,-0.33373895287514,1.44840466976166,0.60551625490189,0.76621031761169
637,1483774203,-102.76751708984375,-86.78095245361328,-5.33745670318604,9.74680423736572,-0.40955033898354,-0.29528343677521,1.13940024375916,0.59505337476730,0.79150289297104
638,1483790870,-102.69249725341797,-86.77238464355469,-5.41451072692871,9.76950645446777,-0.45120996236801,-0.29676407575607,0.73524457216263,0.59282517433167,0.87300240993500
639,1483807537,-102.63877105712891,-86.76396942138672,-5.45129299163818,9.78446769714355,-0.45987948775291,-0.31055873632431,1.85098493099213,0.45910120010376,0.84820932149887
640,1483824204,-102.59301757812500,-86.75629425048828,-5.49142742156982,9.77714061737061,-0.43794798851013,-0.28296434879303,1.18764173984528,0.48358699679375,0.79681754112244
641,1483840871,-102.58441925048828,-86.75050354003906,-5.49688673019409,9.79335212707520,-0.44998410344124,-0.28206115961075,1.02694761753082,0.39239293336868,0.66624391078949
642,1483857538,-102.57822418212891,-86.74406433105469,-5.50983142852783,9.76478195190430,-0.45520153641701,-0.28485292196274,0.44630765914917,0.41032180190086,0.70098757743835
643,1483874205,-102.60289001464844,-86.73493194580078,-5.47732162475586,9.76442432403564,-0.45346125960350,-0.29309949278831,1.30490934848785,0.22165869176388,0.83541578054428
644,1483890872,-102.70442199707031,-86.72559356689453,-5.37036371231079,9.77039623260498,-0.39971080422401,-0.26668325066566,1.15093874931335,-0.03145239874721,0.79662543535233
645,1483907539,-102.85288238525391,-86.71366119384766,-5.21637201309204,9.76892662048340,-0.45579463243484,-0.28135144710541,1.15743148326874,-0.22313782572746,0.89930677413940
646,1483924206,-103.03102874755859,-86.70188140869141,-5.03302526473999,9.77164173126221,-0.42467066645622,-0.26522973179817,1.12884783744812,-0.32578074932098,0.87754869461060
647,1483940873,-103.18406677246094,-86.69168853759766,-4.89186191558838,9.77574157714844,-0.43833571672440,-0.31536784768105,0.12223020941019,-0.16287116706371,0.79768836498260
648,1483957540,-103.32286834716797,-86.67987823486328,-4.76255655288696,9.77031803131104,-0.45248478651047,-0.35005521774292,0.27070701122284,-0.14705531299114,0.89865356683731
649,1483974207,-103.38182830810547,-86.66680908203125,-4.69142675399780,9.77611351013184,-0.47784560918808,-0.35433879494667,1.55702781677246,0.02614415995777,1.03729498386383
650,1483990874,-103.42520141601562,-86.65531921386719,-4.63335990905762,9.79194831848145,-0.43447718024254,-0.30003571510315,1.70719528198242,0.09131567180157,0.95464283227921
651,1484007541,-103.44760131835938,-86.64316558837891,-4.59885978698730,9.78505229949951,-0.48552265763283,-0.34591963887215,1.58425426483154,0.16814096271992,0.98491704463959
652,1484024208,-103.43327331542969,-86.63030242919922,-4.59071826934814,9.77007007598877,-0.48765358328819,-0.32579648494720,2.18818879127502,0.24369846284389,1.06740283966064
653,1484040875,-103.41281127929688,-86.61794281005859,-4.58981704711914,9.77521610260010,-0.41943618655205,-0.31057751178741,2.13004827499390,0.27588081359863,1.03746163845062
654,1484057542,-103.36093902587891,-86.60615539550781,-4.64359331130981,9.79885768890381,-0.45629349350929,-0.32239693403244,0.72223323583603,0.47067812085152,1.06690323352814
655,1484074209,-103.28630065917969,-86.59532928466797,-4.70938491821289,9.76276111602783,-0.50136309862137,-0.33362022042274,1.37957060337067,0.53162360191345,1.00297427177429
656,1484090876,-103.20161437988281,-86.58510589599609,-4.78861856460571,9.77693557739258,-0.44691589474678,-0.28271850943565,1.15536963939667,0.58246475458145,1.00219297409058
657,1484107543,-103.10046386718750,-86.57434844970703,-4.88504552841187,9.79160594940186,-0.48827561736107,-0.32471573352814,1.15265464782715,0.64314126968384,1.01666414737701
658,1484124210,-102.97666168212891,-86.56510162353516,-5.00078201293945,9.77410697937012,-0.50595843791962,-0.30985930562019,1.33495306968689,0.73109531402588,0.96196812391281
659,1484140877,-102.83104705810547,-86.55690765380859,-5.12568187713623,9.79769420623779,-0.47501322627068,-0.30030417442322,2.09360146522522,0.77911913394928,0.90597879886627
660,1484157544,-102.68387603759766,-86.55031585693359,-5.26512002944946,9.77133178710938,-0.47294533252716,-0.28600916266441,1.33426153659821,0.85941499471664,0.80647355318069
661,1484174211,-102.52715301513672,-86.54283142089844,-5.41119480133057,9.78247165679932,-0.48079594969749,-0.30226805806160,1.48472332954407,0.87001854181290,0.87674188613892
662,1484190878,-102.35114288330078,-86.53665924072266,-5.56899452209473,9.78155231475830,-0.50753796100616,-0.31718948483467,1.94776248931885,0.92910712957382,0.81723082065582
663,1484207545,-102.18266296386719,-86.53180694580078,-5.71108102798462,9.77026653289795,-0.49163198471069,-0.27595588564873,2.43608140945435,0.89477318525314,0.71849387884140
664,1484224212,-102.00032806396484,-86.52729034423828,-5.87985801696777,9.80510234832764,-0.49212250113487,-0.31520104408264,1.66138684749603,0.99325400590897,0.72506344318390
665,1484240879,-101.81292724609375,-86.52362823486328,-6.05447292327881,9.77221775054932,-0.50968557596207,-0.28713169693947,1.64715886116028,1.03195464611053,0.65288686752319
666,1484257546,-101.68223571777344,-86.52222442626953,-6.17016887664795,9.75971126556396,-0.49470528960228,-0.25029689073563,1.74814963340759,0.84692859649658,0.49463877081871
667,1484274213,-101.58590698242188,-86.52137756347656,-6.25192403793335,9.79179286956787,-0.47763085365295,-0.29000252485275,1.72931182384491,0.73466825485229,0.43195176124573
668,1484290880,-101.49711608886719,-86.52024841308594,-6.32946825027466,9.79686260223389,-0.50830703973770,-0.29346716403961,1.50027036666870,0.71164250373840,0.46574777364731
669,1484307547,-101.39952087402344,-86.51654052734375,-6.41445732116699,9.76363086700439,-0.47274187207222,-0.28691625595093,1.61963808536530,0.71463900804520,0.58968746662140
670,1484324214,-101.34690856933594,-86.51665496826172,-6.45651006698608,9.77662277221680,-0.51166623830795,-0.28981935977936,1.47518253326416,0.60497838258743,0.34575220942497
671,1484340881,-101.30304718017578,-86.51799774169922,-6.49344587326050,9.77868652343750,-0.44767561554909,-0.29809555411339,1.25598919391632,0.59929239749908,0.27676445245743
672,1484357548,-101.23064422607422,-86.51890563964844,-6.55996656417847,9.77830600738525,-0.51524996757507,-0.29607325792313,1.19929552078247,0.69954049587250,0.32353323698044
673,1484374215,-101.19247436523438,-86.51974487304688,-6.58362102508545,9.77513217926025,-0.48941916227341,-0.25548660755157,1.70865511894226,0.54679906368256,0.29202955961227
674,1484390882,-101.16854095458984,-86.52024841308594,-6.60029363632202,9.78651618957520,-0.44772100448608,-0.25943830609322,1.29719984531403,0.52046924829483,0.29442441463470
675,1484407549,-101.21292877197266,-86.52104187011719,-6.55617809295654,9.75029754638672,-0.46561586856842,-0.26300379633904,0.80715227127075,0.30304306745529,0.25316235423088
