sep=,
DeviceTag:,Xsens_DOT_4
FirmwareVersion:,3.0.0
AppVersion:,2023.6.0
StartTime: ,2025-04-09_10:46:58_000 CEST
© Movella Technologies B. V. 2005-2025

PacketCounter,SampleTimeFine,Euler_X,Euler_Y,Euler_Z,Acc_X,Acc_Y,Acc_Z,Gyr_X,Gyr_Y,Gyr_Z
0,1473157324,-14.58785343170166,-85.07558441162109,43.45260620117188,0.00000000000000,0.00000000000000,0.00000000000000,0.00000000000000,0.00000000000000,0.00000000000000
1,1473173991,-14.58953571319580,-85.06549072265625,43.45976638793945,9.75096988677979,-0.37767463922501,0.77207577228546,0.30176883935928,0.66786396503448,-1.12982106208801
2,1473190658,-14.55885887145996,-85.05497741699219,43.43326950073242,9.76635360717773,-0.35169431567192,0.82416290044785,0.33830538392067,0.73449540138245,-1.28307461738586
3,1473207325,-14.52293872833252,-85.04785919189453,43.38424682617188,9.77617454528809,-0.34517127275467,0.82693076133728,-0.18409126996994,0.55764609575272,-1.40516400337219
4,1473223992,-14.49472332000732,-85.03671264648438,43.34709930419922,9.78049278259277,-0.30610704421997,0.80357420444489,-0.51244610548019,0.78871107101440,-1.33357644081116
5,1473240659,-14.47663402557373,-85.02536010742188,43.32556915283203,9.77467823028564,-0.35981345176697,0.78598338365555,-0.27149462699890,0.78248721361160,-1.26069557666779
6,1473257326,-14.44642257690430,-85.01508331298828,43.30329132080078,9.76628208160400,-0.34147608280182,0.78918451070786,0.53152114152908,0.72149062156677,-1.26841783523560
7,1473273993,-14.42623519897461,-85.00707244873047,43.27777862548828,9.76217842102051,-0.33282679319382,0.84926730394363,-0.31762948632240,0.58668446540833,-1.32665479183197
8,1473290660,-14.41576290130615,-85.00398254394531,43.26435089111328,9.76043605804443,-0.36506840586662,0.87133044004440,-0.02286573685706,0.29137006402016,-1.32290232181549
9,1473307327,-14.38901424407959,-85.00096130371094,43.24898529052734,9.78290176391602,-0.33479511737823,0.84164607524872,0.67794251441956,0.28880882263184,-1.34927070140839
10,1473323994,-14.37818145751953,-85.00045013427734,43.24160003662109,9.77305221557617,-0.34756612777710,0.79746216535568,0.15865145623684,0.14062012732029,-1.34709990024567
11,1473340661,-14.36710166931152,-85.00236511230469,43.22973632812500,9.75265407562256,-0.33953729271889,0.81169545650482,0.11857399344444,-0.00747250532731,-1.39109623432159
12,1473357328,-14.36120223999023,-85.00656890869141,43.22503280639648,9.76516437530518,-0.34625130891800,0.82052171230316,0.00315676513128,-0.13892327249050,-1.40591943264008
13,1473373995,-14.33575439453125,-85.01268768310547,43.20309829711914,9.76656723022461,-0.37756550312042,0.81041115522385,0.24126522243023,-0.23304995894432,-1.51401793956757
14,1473390662,-14.31988239288330,-85.01611328125000,43.19190979003906,9.79209423065186,-0.30278182029724,0.80682581663132,0.25781741738319,-0.08151882141829,-1.42233085632324
15,1473407329,-14.30203342437744,-85.01657867431641,43.17579650878906,9.79342079162598,-0.34417593479156,0.80361241102219,0.25065228343010,0.09026555716991,-1.38863098621368
16,1473423996,-14.28156948089600,-85.01846313476562,43.15667343139648,9.77795600891113,-0.34048208594322,0.81842094659805,0.03330291435122,0.00871472060680,-1.44435143470764
17,1473440663,-14.28452587127686,-85.02004241943359,43.17270278930664,9.78251838684082,-0.31581473350525,0.82547533512115,0.36400774121284,-0.00136387627572,-1.28999006748199
18,1473457330,-14.27757644653320,-85.02346801757812,43.16596984863281,9.78212165832520,-0.33793717622757,0.82327812910080,-0.05935742706060,-0.09417789429426,-1.40494620800018
19,1473473997,-14.27076148986816,-85.02830505371094,43.16035461425781,9.74848842620850,-0.36036083102226,0.80121374130249,-0.02107925340533,-0.17950661480427,-1.42306721210480
20,1473490664,-14.26644229888916,-85.03202056884766,43.16314697265625,9.77865886688232,-0.33509582281113,0.81613528728485,0.42043241858482,-0.12104562669992,-1.35331106185913
21,1473507331,-14.26038455963135,-85.03611755371094,43.16333770751953,9.77876281738281,-0.33513557910919,0.83416825532913,0.07080630213022,-0.13680383563042,-1.39888226985931
22,1473523998,-14.26232433319092,-85.03912353515625,43.16802978515625,9.77492523193359,-0.31889340281487,0.79187470674515,0.16281993687153,-0.08418254554272,-1.33391582965851
23,1473540665,-14.25399875640869,-85.03958892822266,43.15882492065430,9.78405094146729,-0.34690016508102,0.78796714544296,-0.11353470385075,0.08196064084768,-1.37177133560181
24,1473557332,-14.22974872589111,-85.03841400146484,43.13481140136719,9.76747417449951,-0.31958401203156,0.78223931789398,0.06045877560973,0.20308309793472,-1.41156065464020
25,1473573999,-14.23399448394775,-85.03730773925781,43.11513900756836,9.76887130737305,-0.33705705404282,0.82799100875854,-0.52482342720032,0.16314010322094,-1.32039237022400
26,1473590666,-14.24609756469727,-85.03852844238281,43.11855316162109,9.77300643920898,-0.33895140886307,0.85788238048553,-0.41900452971458,0.01146168261766,-1.30749630928040
27,1473607333,-14.25784397125244,-85.04156494140625,43.13955688476562,9.78203678131104,-0.33670824766159,0.84430116415024,0.44505265355110,-0.09723860770464,-1.25883853435516
28,1473624000,-14.25423622131348,-85.04413604736328,43.14998626708984,9.77073860168457,-0.31842070817947,0.79943376779556,0.64267385005951,-0.05676414817572,-1.31316936016083
29,1473640667,-14.25770950317383,-85.04437255859375,43.15383148193359,9.76566600799561,-0.30824244022369,0.77192199230194,0.17951938509941,0.07087033987045,-1.28527724742889
30,1473657334,-14.26590061187744,-85.04547882080078,43.16738510131836,9.76373004913330,-0.34521502256393,0.78130453824997,-0.08715362101793,0.02697017416358,-1.29371666908264
31,1473674001,-14.28217601776123,-85.04710388183594,43.18688964843750,9.76594448089600,-0.37196540832520,0.79533094167709,0.40585884451866,-0.02705981582403,-1.22029149532318
32,1473690668,-14.27621364593506,-85.04675292968750,43.20075607299805,9.76460361480713,-0.32459810376167,0.81859308481216,0.91002559661865,0.10150953382254,-1.26170718669891
33,1473707335,-14.28292083740234,-85.04354858398438,43.20510482788086,9.77516174316406,-0.31750163435936,0.81500786542892,-0.10511452704668,0.27690532803535,-1.23982119560242
34,1473724002,-14.27910995483398,-85.04042816162109,43.19795227050781,9.77779483795166,-0.34265935420990,0.80945771932602,0.03755462169647,0.27978673577309,-1.28269696235657
35,1473740669,-14.28062438964844,-85.04113769531250,43.20683288574219,9.77823352813721,-0.33218979835510,0.80172091722488,0.29019829630852,0.04616048559546,-1.29116165637970
36,1473757336,-14.30545234680176,-85.04686737060547,43.23052978515625,9.74344158172607,-0.33206182718277,0.84688657522202,0.06284716725349,-0.26847231388092,-1.26556193828583
37,1473774003,-14.32850456237793,-85.05291748046875,43.26202774047852,9.75482463836670,-0.35483592748642,0.80389201641083,0.32108083367348,-0.29451406002045,-1.25930595397949
38,1473790670,-14.34990978240967,-85.05874633789062,43.28553390502930,9.77419376373291,-0.33381384611130,0.82048875093460,0.23553438484669,-0.26942637562752,-1.26952540874481
39,1473807337,-14.37582397460938,-85.06691741943359,43.31694412231445,9.78292560577393,-0.32070156931877,0.80053645372391,0.02374297194183,-0.41450312733650,-1.30117642879486
40,1473824004,-14.38225746154785,-85.07303619384766,43.31924819946289,9.77986717224121,-0.33524465560913,0.80423605442047,-0.00214506336488,-0.27165466547012,-1.37212979793549
41,1473840671,-14.37486934661865,-85.07662200927734,43.30529403686523,9.76350593566895,-0.33749198913574,0.79561573266983,-0.32069021463394,-0.09540089964867,-1.42936158180237
42,1473857338,-14.35946178436279,-85.08007812500000,43.28840637207031,9.77244091033936,-0.34015581011772,0.75790315866470,-0.06644574552774,-0.07505161315203,-1.44353818893433
43,1473874005,-14.37731742858887,-85.08653259277344,43.29452514648438,9.76031875610352,-0.33177801966667,0.78536146879196,-0.82048356533051,-0.28736808896065,-1.38740789890289
44,1473890672,-14.38547515869141,-85.09471893310547,43.29568481445312,9.75020503997803,-0.37080371379852,0.80348682403564,-0.43964201211929,-0.38330686092377,-1.43057167530060
45,1473907339,-14.39177227020264,-85.10427093505859,43.30926513671875,9.78522586822510,-0.33300343155861,0.82254976034164,0.29890659451485,-0.45672556757927,-1.39239597320557
46,1473924006,-14.39426517486572,-85.11392211914062,43.30456924438477,9.79386043548584,-0.32574138045311,0.81579768657684,-0.26167851686478,-0.46348100900650,-1.46606457233429
47,1473940673,-14.40314769744873,-85.12252044677734,43.31200027465820,9.80506610870361,-0.33914101123810,0.79477864503860,-0.06184826418757,-0.40738916397095,-1.39890789985657
48,1473957340,-14.40658187866211,-85.13047790527344,43.31888961791992,9.77548980712891,-0.30378106236458,0.81218695640564,0.07489152997732,-0.37594962120056,-1.40796220302582
49,1473974007,-14.40216255187988,-85.13764190673828,43.31745529174805,9.76263236999512,-0.33367389440536,0.77250754833221,0.07926491647959,-0.31314089894295,-1.43303072452545
50,1473990674,-14.39215087890625,-85.14429473876953,43.30647277832031,9.74879169464111,-0.32698479294777,0.77323836088181,0.07094718515873,-0.27422237396240,-1.45293152332306
51,1474007341,-14.37098121643066,-85.15176391601562,43.27803802490234,9.76111030578613,-0.35416817665100,0.77490568161011,-0.24346788227558,-0.31173855066299,-1.54899823665619
52,1474024008,-14.35378742218018,-85.15814971923828,43.26533508300781,9.78063297271729,-0.29839488863945,0.76505100727081,-0.08365108072758,-0.24429394304752,-1.49652445316315
53,1474040675,-14.34350681304932,-85.16341400146484,43.25518798828125,9.77093315124512,-0.32815027236938,0.76369416713715,-0.17419196665287,-0.19153176248074,-1.45341825485229
54,1474057342,-14.32463455200195,-85.16381835937500,43.23635101318359,9.75964927673340,-0.30354204773903,0.81272614002228,-0.00800396874547,0.08723045140505,-1.41388499736786
55,1474074009,-14.30661106109619,-85.16345977783203,43.21783828735352,9.77404594421387,-0.30623790621758,0.81419533491135,-0.10086280852556,0.14937967061996,-1.40059208869934
56,1474090676,-14.28027343750000,-85.16471099853516,43.18649291992188,9.77104282379150,-0.34964060783386,0.77417665719986,-0.06817460060120,0.05791031941772,-1.46536016464233
57,1474107343,-14.25451564788818,-85.16686248779297,43.16786956787109,9.76637840270996,-0.33288604021072,0.77308374643326,0.14905308187008,0.00294545991346,-1.45672857761383
58,1474124010,-14.24181747436523,-85.17103576660156,43.15874481201172,9.78112125396729,-0.33677858114243,0.82683068513870,0.28056791424751,-0.13567048311234,-1.41125977039337
59,1474140677,-14.23123264312744,-85.17785644531250,43.15519714355469,9.76344394683838,-0.33918970823288,0.79073548316956,0.42599684000015,-0.29256105422974,-1.42722928524017
60,1474157344,-14.21093940734863,-85.18757629394531,43.14723587036133,9.77801990509033,-0.33104026317596,0.81417226791382,0.54015898704529,-0.45286455750465,-1.50942671298981
61,1474174011,-14.20618534088135,-85.19645690917969,43.14931488037109,9.76838016510010,-0.32973650097847,0.79217928647995,0.51186978816986,-0.42583030462265,-1.42307364940643
62,1474190678,-14.18633365631104,-85.20446014404297,43.13000106811523,9.76189136505127,-0.30607667565346,0.76705896854401,0.30497044324875,-0.35051620006561,-1.50074410438538
63,1474207345,-14.17436027526855,-85.21120452880859,43.11938095092773,9.77762699127197,-0.31087017059326,0.72658336162567,0.22270241379738,-0.28266814351082,-1.44895505905151
64,1474224012,-14.16308403015137,-85.21635437011719,43.10835647583008,9.76885509490967,-0.31225770711899,0.75644326210022,0.07801628112793,-0.19005264341831,-1.43555974960327
65,1474240679,-14.12625694274902,-85.21935272216797,43.07225418090820,9.78075695037842,-0.33819475769997,0.77010250091553,0.48698705434799,-0.04220332205296,-1.49409759044647
66,1474257346,-14.10394001007080,-85.22488403320312,43.05305480957031,9.77611064910889,-0.29623737931252,0.82426649332047,-0.20061786472797,-0.19043679535389,-1.51549685001373
67,1474274013,-14.09824085235596,-85.23350524902344,43.04199600219727,9.74214553833008,-0.32976403832436,0.80911254882812,-0.37504032254219,-0.38747534155846,-1.49353420734406
68,1474290680,-14.08859825134277,-85.24292755126953,43.03875732421875,9.74667167663574,-0.36083561182022,0.78748357295990,0.31397324800491,-0.44205600023270,-1.46804952621460
69,1474307347,-14.07978153228760,-85.25624847412109,43.03709793090820,9.78692913055420,-0.30416172742844,0.79767858982086,0.69517999887466,-0.68130421638489,-1.49055039882660
70,1474324014,-14.08090496063232,-85.26976776123047,43.04598617553711,9.79850769042969,-0.33267676830292,0.76993739604950,0.49582344293594,-0.69852882623672,-1.46191537380219
71,1474340681,-14.07583904266357,-85.28175354003906,43.05911636352539,9.77619934082031,-0.29710590839386,0.76498562097549,0.73811316490173,-0.60229539871216,-1.44784736633301
72,1474357348,-14.07550048828125,-85.29556274414062,43.06318283081055,9.77028179168701,-0.33484208583832,0.73876899480820,0.36912384629250,-0.70310711860657,-1.47979950904846
73,1474374015,-14.06266021728516,-85.30448150634766,43.06590652465820,9.78179168701172,-0.31423321366310,0.72730135917664,0.70897233486176,-0.42611211538315,-1.44641959667206
74,1474390682,-14.04597091674805,-85.31333160400391,43.04600906372070,9.76746082305908,-0.30886963009834,0.73151797056198,-0.21505063772202,-0.39833512902260,-1.53696060180664
75,1474407349,-14.03895282745361,-85.31809234619141,43.04499435424805,9.77328395843506,-0.29428270459175,0.73618388175964,-0.14028714597225,-0.16568215191364,-1.42207479476929
76,1474424016,-14.02056884765625,-85.32165527343750,43.02521896362305,9.74903774261475,-0.31901109218597,0.75718915462494,-0.17235426604748,-0.08265858888626,-1.46231222152710
77,1474440683,-13.99917411804199,-85.32450103759766,43.01031112670898,9.75869369506836,-0.31023898720741,0.76696532964706,0.54754191637039,-0.05774382874370,-1.41001749038696
78,1474457350,-13.98708820343018,-85.32886505126953,42.99219512939453,9.75886344909668,-0.31655913591385,0.78710877895355,-0.16609837114811,-0.13752740621567,-1.44325017929077
79,1474474017,-13.97097396850586,-85.33477783203125,42.97562026977539,9.75554084777832,-0.33266177773476,0.76921594142914,-0.18315002322197,-0.22178678214550,-1.48577356338501
80,1474490684,-13.95723152160645,-85.34288787841797,42.96331024169922,9.77782154083252,-0.30507019162178,0.76647132635117,0.15352250635624,-0.35706025362015,-1.47880673408508
81,1474507351,-13.94736862182617,-85.34954071044922,42.96358108520508,9.80659961700439,-0.31870988011360,0.79537409543991,0.19281239807606,-0.27899274230003,-1.43558537960052
82,1474524018,-13.92566776275635,-85.35590362548828,42.95094680786133,9.81609344482422,-0.31334021687508,0.76738083362579,0.51011532545090,-0.25878429412842,-1.46332395076752
83,1474540685,-13.89363765716553,-85.35974121093750,42.92628479003906,9.78283119201660,-0.31468665599823,0.76383602619171,0.59216558933258,-0.09720660746098,-1.46929180622101
84,1474557352,-13.87808036804199,-85.36553192138672,42.91078186035156,9.74557495117188,-0.29259696602821,0.75374788045883,-0.09085465222597,-0.21731734275818,-1.47171223163605
85,1474574019,-13.87251091003418,-85.37102508544922,42.90532302856445,9.73995590209961,-0.32629802823067,0.73064857721329,-0.06000415980816,-0.21984021365643,-1.42110157012939
86,1474590686,-13.87724018096924,-85.37754821777344,42.90399169921875,9.75629043579102,-0.30159732699394,0.72134733200073,-0.04831195622683,-0.28259131312370,-1.38277196884155
87,1474607353,-13.89822101593018,-85.38488769531250,42.92538833618164,9.78232574462891,-0.30353748798370,0.72830253839493,0.21932153403759,-0.35764932632446,-1.29722559452057
88,1474624020,-13.91042613983154,-85.38666534423828,42.95093154907227,9.78887557983398,-0.31410887837410,0.73705083131790,0.76720279455185,-0.04114040359855,-1.21797990798950
89,1474640687,-13.92338752746582,-85.38493347167969,42.97244262695312,9.78864860534668,-0.28378906846046,0.72607886791229,0.53515821695328,0.17428801953793,-1.17982339859009
90,1474657354,-13.91318893432617,-85.37818145751953,42.96636581420898,9.75670719146729,-0.32390367984772,0.71747332811356,0.46447992324829,0.49550974369049,-1.22254538536072
91,1474674021,-13.90471744537354,-85.37221527099609,42.96142196655273,9.74805927276611,-0.31605449318886,0.73427134752274,0.13416571915150,0.44433552026749,-1.25357508659363
92,1474690688,-13.88945579528809,-85.36782073974609,42.95022964477539,9.75462436676025,-0.31929710507393,0.77195727825165,0.10661927610636,0.37337556481361,-1.30774617195129
93,1474707355,-13.87835884094238,-85.36164093017578,42.93948364257812,9.76108646392822,-0.27201992273331,0.74372833967209,-0.03677983954549,0.46896213293076,-1.27517950534821
94,1474724022,-13.88920307159424,-85.35855865478516,42.93868255615234,9.77188396453857,-0.32943046092987,0.73439472913742,-0.84392571449280,0.28179731965065,-1.27917516231537
95,1474740689,-13.88952350616455,-85.35936737060547,42.93689727783203,9.75194549560547,-0.35158979892731,0.76542377471924,-0.21950083971024,0.05141109228134,-1.33603525161743
96,1474757356,-13.89928245544434,-85.36438751220703,42.94304275512695,9.74631595611572,-0.29631417989731,0.75916808843613,-0.32626739144325,-0.19684638082981,-1.35872817039490
97,1474774023,-13.93593311309814,-85.37043762207031,42.97194290161133,9.77902603149414,-0.31195804476738,0.72293365001678,-0.47396305203438,-0.29359838366508,-1.26031136512756
98,1474790690,-13.97239303588867,-85.37233734130859,43.01685714721680,9.79223155975342,-0.31048676371574,0.73773860931396,-0.02212296798825,-0.04810705035925,-1.16263079643250
99,1474807357,-13.99071693420410,-85.36971282958984,43.03062438964844,9.80774497985840,-0.26819819211960,0.74267530441284,0.11624325811863,0.22093515098095,-1.17546284198761
100,1474824024,-14.00990676879883,-85.36629486083984,43.04254150390625,9.76689052581787,-0.30626147985458,0.74364465475082,-0.19733303785324,0.27759686112404,-1.18267929553986
101,1474840691,-14.03358840942383,-85.36392211914062,43.06436920166016,9.74575710296631,-0.34913361072540,0.76576238870621,-0.26096779108047,0.21483290195465,-1.18168032169342
102,1474857358,-14.04911518096924,-85.36236572265625,43.08529663085938,9.75004005432129,-0.31032776832581,0.75702130794525,0.27733430266380,0.16185945272446,-1.19048464298248
103,1474874025,-14.08532047271729,-85.35966491699219,43.12131118774414,9.78098011016846,-0.29184526205063,0.73981755971909,0.20772537589073,0.21740695834160,-1.07761585712433
104,1474890692,-14.12367248535156,-85.35501861572266,43.16493606567383,9.78289318084717,-0.30958983302116,0.71254587173462,0.25489756464958,0.31778955459595,-1.03682124614716
105,1474907359,-14.14896202087402,-85.34696960449219,43.20083618164062,9.79765701293945,-0.31476670503616,0.75771647691727,0.42914080619812,0.51809364557266,-1.03778171539307
106,1474924026,-14.17525196075439,-85.34087371826172,43.23188018798828,9.77552318572998,-0.30929625034332,0.79726541042328,0.36028105020523,0.41633442044258,-1.06362497806549
107,1474940693,-14.20107269287109,-85.33251190185547,43.26201629638672,9.77194690704346,-0.31501254439354,0.73940795660019,0.18816368281841,0.54703599214554,-1.04655408859253
108,1474957360,-14.22022533416748,-85.32261657714844,43.27910995483398,9.76751041412354,-0.29989451169968,0.75916892290115,-0.03022938966751,0.64499187469482,-1.07490742206573
109,1474974027,-14.24405384063721,-85.31366729736328,43.31100082397461,9.76453876495361,-0.32259854674339,0.74481385946274,0.18455873429775,0.58232396841049,-1.04649651050568
110,1474990694,-14.27197742462158,-85.30710601806641,43.33910751342773,9.76788330078125,-0.29549100995064,0.72963130474091,0.23222392797470,0.44497582316399,-1.05713844299316
111,1475007361,-14.28936672210693,-85.29772186279297,43.35927581787109,9.77272701263428,-0.31343984603882,0.73074269294739,0.03462837263942,0.61654895544052,-1.08296263217926
112,1475024028,-14.30294513702393,-85.28636932373047,43.36730194091797,9.77025508880615,-0.32749050855637,0.73136693239212,-0.30399712920189,0.75583714246750,-1.09509646892548
113,1475040695,-14.29832839965820,-85.27478027343750,43.36473846435547,9.75751209259033,-0.31200626492500,0.76347804069519,-0.02791784144938,0.77653217315674,-1.16080594062805
114,1475057362,-14.30261039733887,-85.26393890380859,43.36690902709961,9.75930595397949,-0.32390710711479,0.79529523849487,-0.27217972278595,0.72108715772629,-1.14860796928406
115,1475074029,-14.31020641326904,-85.25703430175781,43.37476348876953,9.76806640625000,-0.33227244019508,0.79388284683228,0.13610588014126,0.49219924211502,-1.15571534633636
116,1475090696,-14.32123661041260,-85.25116729736328,43.38738632202148,9.76366233825684,-0.32970774173737,0.76890200376511,0.07023002952337,0.42170029878616,-1.16149115562439
117,1475107363,-14.35233783721924,-85.24742126464844,43.41094970703125,9.78965950012207,-0.31159207224846,0.81731784343719,-0.22886870801449,0.28163725137711,-1.11901247501373
118,1475124030,-14.36679077148438,-85.24601745605469,43.43313598632812,9.76537990570068,-0.37245708703995,0.79382318258286,0.34244182705879,0.15216505527496,-1.18811559677124
119,1475140697,-14.37961959838867,-85.24849700927734,43.45636367797852,9.75663375854492,-0.34816461801529,0.76087999343872,0.60997921228409,-0.07702378183603,-1.23263025283813
120,1475157364,-14.38876819610596,-85.24922943115234,43.47034835815430,9.78510856628418,-0.29170870780945,0.75275576114655,-0.23659729957581,0.05310153216124,-1.29048311710358
121,1475174031,-14.39344692230225,-85.25195312500000,43.47303390502930,9.77231502532959,-0.32058504223824,0.75440126657486,-0.43946266174316,-0.05796153843403,-1.35874092578888
122,1475190698,-14.40336513519287,-85.25290679931641,43.47941970825195,9.76097202301025,-0.32006242871284,0.73948633670807,-0.20800714194775,0.03581936284900,-1.28931128978729
123,1475207365,-14.44093799591064,-85.25731658935547,43.51478195190430,9.76857089996338,-0.33353078365326,0.76073366403580,0.04879219830036,-0.20422928035259,-1.18564391136169
124,1475224032,-14.45247745513916,-85.25727844238281,43.52873229980469,9.76321125030518,-0.32074683904648,0.75547021627426,0.08409930020571,0.07831083238125,-1.24486052989960
125,1475240699,-14.45640468597412,-85.25740814208984,43.52769088745117,9.76405525207520,-0.32504546642303,0.76437020301819,-0.27111682295799,0.09472856670618,-1.30994224548340
126,1475257366,-14.48211193084717,-85.25703430175781,43.55151748657227,9.76434421539307,-0.33505034446716,0.73336929082870,-0.40098604559898,0.09543292224407,-1.20886182785034
127,1475274033,-14.48547744750977,-85.26045989990234,43.55080413818359,9.75765991210938,-0.33325898647308,0.76169866323471,-0.21047875285149,-0.09929402917624,-1.35772275924683
128,1475290700,-14.50694656372070,-85.26683044433594,43.56359100341797,9.77246475219727,-0.31806164979935,0.78905367851257,-0.57576715946198,-0.27745598554611,-1.34158682823181
129,1475307367,-14.52163600921631,-85.27387237548828,43.57780456542969,9.77632236480713,-0.33532780408859,0.80133688449860,-0.22297777235508,-0.32702934741974,-1.35968220233917
130,1475324034,-14.51096916198730,-85.28063201904297,43.56682586669922,9.76874828338623,-0.34762433171272,0.75879824161530,0.01988826133311,-0.28537026047707,-1.45765078067780
131,1475340701,-14.49629497528076,-85.28366088867188,43.54986953735352,9.79032039642334,-0.24689546227455,0.71961271762848,-0.18961721658707,-0.05025852099061,-1.43641781806946
132,1475357368,-14.46875190734863,-85.28424072265625,43.51935958862305,9.76527214050293,-0.30891993641853,0.69299465417862,-0.25683137774467,0.10423728823662,-1.46774840354919
133,1475374035,-14.44079399108887,-85.28357696533203,43.47595977783203,9.75276184082031,-0.32081562280655,0.73332476615906,-0.95622456073761,0.19721138477325,-1.50497663021088
134,1475390702,-14.41629409790039,-85.28387451171875,43.43098831176758,9.75169658660889,-0.32706719636917,0.75588804483414,-1.07744932174683,0.12888950109482,-1.51578509807587
135,1475407369,-14.38223743438721,-85.28462219238281,43.38001251220703,9.75797080993652,-0.29757705330849,0.75930345058441,-0.96794229745865,0.11674907803535,-1.55840456485748
136,1475424036,-14.36756229400635,-85.28076171875000,43.34473037719727,9.76691722869873,-0.30976185202599,0.71783488988876,-1.28792810440063,0.37093591690063,-1.42067873477936
137,1475440703,-14.35803604125977,-85.27822875976562,43.30690002441406,9.79063892364502,-0.31876245141029,0.70868408679962,-1.75434815883636,0.29834955930710,-1.45320701599121
138,1475457370,-14.34756755828857,-85.27221679687500,43.28190994262695,9.78310012817383,-0.31110677123070,0.72452098131180,-0.79049748182297,0.46642643213272,-1.33291041851044
139,1475474037,-14.32650947570801,-85.26203155517578,43.23729705810547,9.81284523010254,-0.28182113170624,0.73177444934845,-1.24206221103668,0.73930406570435,-1.35610270500183
140,1475490704,-14.30062961578369,-85.24811553955078,43.18462753295898,9.77400779724121,-0.30089870095253,0.73006075620651,-1.44650280475616,0.97408306598663,-1.33915996551514
141,1475507371,-14.29693889617920,-85.23523712158203,43.15524673461914,9.77379989624023,-0.33987239003181,0.80764037370682,-1.64422011375427,0.88712793588638,-1.26496005058289
142,1475524038,-14.28527641296387,-85.21713256835938,43.13925933837891,9.76197528839111,-0.28697437047958,0.76679641008377,-0.11491136997938,1.16616535186768,-1.10343348979950
143,1475540705,-14.27151775360107,-85.20094299316406,43.10905456542969,9.77002334594727,-0.32263654470444,0.73677861690521,-0.98258632421494,1.07450389862061,-1.21297264099121
144,1475557372,-14.26020622253418,-85.18350219726562,43.08057022094727,9.82188034057617,-0.30011034011841,0.81131875514984,-0.90245062112808,1.14096248149872,-1.17801761627197
145,1475574039,-14.24015426635742,-85.16061401367188,43.05974578857422,9.77988815307617,-0.28428202867508,0.76844859123230,-0.00764539232478,1.45114505290985,-1.06729400157928
146,1475590706,-14.23957729339600,-85.13574981689453,43.04486846923828,9.76636981964111,-0.28763270378113,0.70846688747406,-0.63221102952957,1.55469703674316,-0.99411833286285
147,1475607373,-14.23178386688232,-85.10487365722656,43.04731750488281,9.75200462341309,-0.29303550720215,0.74763059616089,0.24770684540272,1.89446246623993,-0.86839866638184
148,1475624040,-14.22454357147217,-85.07479095458984,43.03952407836914,9.77192497253418,-0.30602669715881,0.76114547252655,-0.49451723694801,1.86329209804535,-0.93912810087204
149,1475640707,-14.22602653503418,-85.04940032958984,43.02312469482422,9.72976875305176,-0.31297513842583,0.77867662906647,-1.14611721038818,1.59440994262695,-1.01948797702789
150,1475657374,-14.23027706146240,-85.02830505371094,43.00827407836914,9.75278663635254,-0.32079476118088,0.81652522087097,-1.42742776870728,1.34628033638000,-1.09361743927002
151,1475674041,-14.26342010498047,-85.01316070556641,43.00803756713867,9.77117252349854,-0.31641808152199,0.85766273736954,-2.25649785995483,0.98792028427124,-1.10112190246582
152,1475690708,-14.30099010467529,-84.99597930908203,43.02219390869141,9.79912948608398,-0.34757280349731,0.86806726455688,-1.37909650802612,1.07250607013702,-0.97796326875687
153,1475707375,-14.33603763580322,-84.97383117675781,43.06418991088867,9.81930065155029,-0.31729921698570,0.84264606237411,0.48833170533180,1.33397328853607,-0.75290453433990
154,1475724042,-14.35746574401855,-84.94646453857422,43.09934234619141,9.81787586212158,-0.27951276302338,0.77588337659836,0.71339690685272,1.64453375339508,-0.72642731666565
155,1475740709,-14.39128684997559,-84.91805267333984,43.12506866455078,9.77166080474854,-0.30471718311310,0.77295798063278,-0.49159726500511,1.70579934120178,-0.75145095586777
156,1475757376,-14.40628147125244,-84.89205169677734,43.13339996337891,9.75021934509277,-0.36906209588051,0.83405286073685,-0.51312482357025,1.60036468505859,-0.88138413429260
157,1475774043,-14.45950508117676,-84.86783599853516,43.18864440917969,9.76847457885742,-0.32335612177849,0.91019290685654,0.07719027996063,1.43110334873199,-0.65755486488342
158,1475790710,-14.48769187927246,-84.84060668945312,43.24288558959961,9.77175521850586,-0.31355279684067,0.84786832332611,1.83776891231537,1.59424328804016,-0.58952748775482
159,1475807377,-14.50810050964355,-84.81201171875000,43.30701828002930,9.81534576416016,-0.30302554368973,0.83716946840286,1.82199144363403,1.68461763858795,-0.60666239261627
160,1475824044,-14.51882266998291,-84.78034210205078,43.34619903564453,9.76913547515869,-0.31719660758972,0.83583140373230,1.71955323219299,1.87722504138947,-0.62018585205078
161,1475840711,-14.52951145172119,-84.75476837158203,43.37245941162109,9.76542472839355,-0.42477613687515,0.87428402900696,1.04975581169128,1.54575836658478,-0.76888036727905
162,1475857378,-14.54660415649414,-84.73214721679688,43.44688415527344,9.74524593353271,-0.39146569371223,0.90357553958893,3.10850429534912,1.31608927249908,-0.59352308511734
163,1475874045,-14.54583263397217,-84.71228027343750,43.50626373291016,9.77076244354248,-0.35306164622307,0.92424970865250,3.89321970939636,1.16627418994904,-0.65879064798355
164,1475890712,-14.31610584259033,-84.66795349121094,43.44429397583008,9.85235500335693,-0.55911839008331,0.83514350652695,10.23710536956787,2.75043344497681,-0.96189171075821
165,1475907379,-13.91915512084961,-84.61140441894531,43.31956481933594,9.78180789947510,-0.26996740698814,0.99246782064438,15.97995471954346,3.56662225723267,-1.19236814975739
166,1475924046,-13.61824893951416,-84.56440734863281,43.23994827270508,9.76180839538574,-0.24058340489864,0.88781499862671,13.22332096099854,2.94009637832642,-1.07909572124481
167,1475940713,-13.47382926940918,-84.53280639648438,43.20611190795898,9.76394367218018,-0.26934298872948,0.87811964750290,6.81246614456177,1.96822059154510,-1.03527176380157
168,1475957380,-13.46646118164062,-84.51731109619141,43.25052261352539,9.72701072692871,-0.33074155449867,0.87164759635925,3.06783819198608,0.94290590286255,-0.84161406755447
169,1475974047,-13.54072856903076,-84.51938629150391,43.32582473754883,9.74883842468262,-0.34136196970940,0.94068682193756,0.22434161603451,-0.12832602858543,-0.89433777332306
170,1475990714,-13.68780040740967,-84.53159332275391,43.44720077514648,9.76484966278076,-0.28560599684715,0.92835277318954,-1.42909276485443,-0.78016930818558,-0.78442096710205
171,1476007381,-13.92149448394775,-84.55327606201172,43.59558486938477,9.76877021789551,-0.26980754733086,0.91937607526779,-4.78043699264526,-1.37111818790436,-0.75145739316940
172,1476024048,-14.18940639495850,-84.57906341552734,43.76175308227539,9.77765560150146,-0.38011610507965,0.87350320816040,-6.09297418594360,-1.63656866550446,-0.75581163167953
173,1476040715,-14.42305946350098,-84.60348510742188,43.90417480468750,9.78232574462891,-0.37156504392624,0.85965907573700,-4.96682214736938,-1.53179967403412,-0.83222711086273
174,1476057382,-14.63440418243408,-84.62604522705078,44.03010559082031,9.81081008911133,-0.34380653500557,0.89741021394730,-5.12351989746094,-1.38360452651978,-0.94903379678726
175,1476074049,-14.78355503082275,-84.64152526855469,44.11682891845703,9.77689075469971,-0.32923161983490,0.85008990764618,-3.99731612205505,-0.92380517721176,-1.08854603767395
176,1476090716,-14.91389751434326,-84.65584564208984,44.18050003051758,9.75406360626221,-0.39121034741402,0.84083908796310,-4.38908290863037,-0.80710750818253,-1.20856106281281
177,1476107383,-14.99452114105225,-84.66703796386719,44.23267745971680,9.77336978912354,-0.39062687754631,0.85365515947342,-2.04275369644165,-0.61032503843307,-1.22017621994019
178,1476124050,-15.05469703674316,-84.67951202392578,44.26726150512695,9.77500247955322,-0.34376999735832,0.90514963865280,-1.72044336795807,-0.66663450002670,-1.32457363605499
179,1476140717,-15.11091804504395,-84.69525909423828,44.29706573486328,9.79042530059814,-0.36652243137360,0.90918493270874,-1.56205451488495,-0.85291576385498,-1.38455855846405
180,1476157384,-15.16363811492920,-84.70887756347656,44.35063934326172,9.78833389282227,-0.34973570704460,0.88469773530960,0.02739918418229,-0.76736927032471,-1.22911500930786
181,1476174051,-15.21474361419678,-84.71587371826172,44.42113876342773,9.79145908355713,-0.32156807184219,0.86728680133820,0.48459872603416,-0.39233529567719,-1.09400796890259
182,1476190718,-15.26454544067383,-84.71561431884766,44.47380828857422,9.79354572296143,-0.35836145281792,0.76732933521271,0.45025846362114,0.03211832419038,-0.99023175239563
183,1476207385,-15.29398727416992,-84.71216583251953,44.52262115478516,9.77768611907959,-0.32865127921104,0.74442929029465,0.69771558046341,0.23807005584240,-1.02699887752533
184,1476224052,-15.32559204101562,-84.70702362060547,44.55465316772461,9.77006721496582,-0.35255867242813,0.79606389999390,0.27993398904800,0.34210881590843,-1.02576935291290
185,1476240719,-15.35903263092041,-84.70250701904297,44.58245468139648,9.78631782531738,-0.30706143379211,0.84617435932159,-0.49872410297394,0.32622897624969,-1.09389925003052
186,1476257386,-15.39823436737061,-84.69728851318359,44.61533737182617,9.80389785766602,-0.38092103600502,0.85689800977707,-0.38289061188698,0.34525915980339,-1.04422330856323
187,1476274053,-15.43546581268311,-84.69511413574219,44.64349746704102,9.79029464721680,-0.41980373859406,0.87757813930511,-0.42312821745872,0.17779056727886,-1.10523283481598
188,1476290720,-15.45402717590332,-84.69186401367188,44.67807006835938,9.75208473205566,-0.30487912893295,0.87210369110107,0.61198341846466,0.24911551177502,-1.09418725967407
189,1476307387,-15.50222396850586,-84.69463348388672,44.72205734252930,9.74721050262451,-0.38048815727234,0.85186785459518,-0.47322025895119,-0.11885573714972,-1.12843155860901
190,1476324054,-15.54755496978760,-84.69950866699219,44.76896667480469,9.77663135528564,-0.40086120367050,0.85767996311188,0.09757156670094,-0.25192648172379,-1.12634396553040
191,1476340721,-15.59788417816162,-84.70575714111328,44.81569671630859,9.75925159454346,-0.32679498195648,0.85247087478638,0.00517376465723,-0.33614745736122,-1.13024353981018
192,1476357388,-15.65448284149170,-84.71331787109375,44.86316299438477,9.79726600646973,-0.34511649608612,0.82823908329010,-0.44487342238426,-0.41215318441391,-1.16120946407318
193,1476374055,-15.68719577789307,-84.71988677978516,44.89705276489258,9.81276607513428,-0.38574004173279,0.83228808641434,-0.19067373871803,-0.32510200142860,-1.24956679344177
194,1476390722,-15.69943904876709,-84.72211456298828,44.90923309326172,9.77210903167725,-0.32341644167900,0.83241140842438,0.40751084685326,-0.05663607642055,-1.23548614978790
195,1476407389,-15.71541500091553,-84.72322845458984,44.92636489868164,9.77588558197021,-0.35645729303360,0.78482598066330,0.14897626638412,0.00710752466694,-1.22124552726746
196,1476424056,-15.72585868835449,-84.72296142578125,44.93343353271484,9.74714374542236,-0.36212000250816,0.82323718070984,-0.06360914558172,0.10457024723291,-1.24635243415833
197,1476440723,-15.72978591918945,-84.72496795654297,44.92749404907227,9.76301479339600,-0.38281279802322,0.85593110322952,-0.28164365887642,-0.01753829605877,-1.33888471126556
198,1476457390,-15.72786140441895,-84.72883605957031,44.92085647583008,9.76391506195068,-0.35890650749207,0.87898778915405,-0.30865225195885,-0.11577580124140,-1.40263473987579
199,1476474057,-15.73990821838379,-84.73158264160156,44.92529678344727,9.78602027893066,-0.31854033470154,0.86374717950821,-0.10720836371183,-0.07147864252329,-1.29095053672791
200,1476490724,-15.73604583740234,-84.73277282714844,44.90456771850586,9.76691722869873,-0.37201952934265,0.77854412794113,-0.20871149003506,0.04204324260354,-1.35996401309967
201,1476507391,-15.72219085693359,-84.73199462890625,44.88502502441406,9.77603244781494,-0.35882923007011,0.84164977073669,-0.08424656838179,0.16719968616962,-1.37055468559265
202,1476524058,-15.69997024536133,-84.73017120361328,44.87009429931641,9.78628158569336,-0.37747070193291,0.83637064695358,0.38046380877495,0.22449527680874,-1.35746645927429
203,1476540725,-15.66602611541748,-84.72957611083984,44.84149169921875,9.79072475433350,-0.35533949732780,0.87228614091873,-0.01888296194375,0.18913698196411,-1.47390186786652
204,1476557392,-15.63361167907715,-84.72656250000000,44.80782318115234,9.78350830078125,-0.31648996472359,0.88233917951584,-0.08639803528786,0.32711258530617,-1.43252468109131
205,1476574059,-15.61136913299561,-84.72336578369141,44.77268218994141,9.77152729034424,-0.35070013999939,0.84813904762268,-0.29823425412178,0.32369968295097,-1.39571273326874
206,1476590726,-15.56708526611328,-84.72232818603516,44.73120498657227,9.77839756011963,-0.39265960454941,0.84161847829819,0.17616415023804,0.21969294548035,-1.50582826137543
207,1476607393,-15.53364658355713,-84.72622680664062,44.69746017456055,9.74481010437012,-0.34822228550911,0.86171519756317,-0.09752675890923,-0.07042851299047,-1.55017650127411
208,1476624060,-15.49530220031738,-84.73210144042969,44.65167999267578,9.74932575225830,-0.37673875689507,0.86330109834671,-0.50046586990356,-0.16948564350605,-1.64480280876160
209,1476640727,-15.44471549987793,-84.73646545410156,44.60545349121094,9.81939125061035,-0.35442471504211,0.87364184856415,0.23144918680191,-0.07538457959890,-1.61805033683777
210,1476657394,-15.40943431854248,-84.74025726318359,44.57752990722656,9.82448101043701,-0.30674093961716,0.85525012016296,0.48340129852295,-0.08678223192692,-1.50926041603088
211,1476674061,-15.36468982696533,-84.74167633056641,44.53969955444336,9.78557682037354,-0.34200930595398,0.80754286050797,0.59206956624985,0.07036449015141,-1.50961244106293
212,1476690728,-15.32166671752930,-84.74115753173828,44.49567031860352,9.75514602661133,-0.34026402235031,0.77884495258331,0.00494325114414,0.19372163712978,-1.52102935314178
213,1476707395,-15.27577114105225,-84.73843383789062,44.44763946533203,9.76513385772705,-0.38147214055061,0.78775948286057,-0.25272050499916,0.33341968059540,-1.52436542510986
214,1476724062,-15.21508884429932,-84.73530578613281,44.38216018676758,9.76772117614746,-0.33293852210045,0.88827913999557,-0.33790838718414,0.37611609697342,-1.60664629936218
215,1476740729,-15.16047382354736,-84.73139953613281,44.31956100463867,9.76422786712646,-0.34830391407013,0.87576007843018,-0.52936333417892,0.41730132699013,-1.57956075668335
216,1476757396,-15.10052871704102,-84.72883605957031,44.25729751586914,9.77740859985352,-0.35276323556900,0.86450982093811,-0.34408101439476,0.34211525321007,-1.61202490329742
217,1476774063,-15.04300022125244,-84.72504425048828,44.20447158813477,9.75365352630615,-0.30574592947960,0.85623508691788,0.32374450564384,0.39624127745628,-1.52077317237854
218,1476790730,-14.99636840820312,-84.72240447998047,44.16465759277344,9.76408576965332,-0.37387979030609,0.87271225452423,0.13981972634792,0.31899333000183,-1.49564707279205
219,1476807397,-14.93003559112549,-84.71646881103516,44.10641098022461,9.77180194854736,-0.31113365292549,0.81274044513702,0.60574668645859,0.52433675527573,-1.51007354259491
220,1476824064,-14.86784648895264,-84.70857238769531,44.04491424560547,9.80768489837646,-0.31991285085678,0.80777782201767,-0.06620243191719,0.65052413940430,-1.51853215694427
221,1476840731,-14.81538105010986,-84.70024871826172,43.99655914306641,9.82528686523438,-0.36893180012703,0.85246384143829,0.04314458742738,0.64887201786041,-1.45329654216766
222,1476857398,-14.75094127655029,-84.69577789306641,43.93535614013672,9.82608509063721,-0.33858245611191,0.90969926118851,0.27120646834373,0.44325974583626,-1.55583059787750
223,1476874065,-14.69283008575439,-84.69216156005859,43.87402725219727,9.79571247100830,-0.34612452983856,0.89344847202301,-0.15126860141754,0.39380165934563,-1.57369554042816
224,1476890732,-14.62693691253662,-84.68853759765625,43.79541015625000,9.74520206451416,-0.34365922212601,0.85769826173782,-0.23034784197807,0.41071885824203,-1.62209081649780
225,1476907399,-14.54035663604736,-84.68172454833984,43.71256256103516,9.75729465484619,-0.30158179998398,0.83000737428665,0.16435028612614,0.61845064163208,-1.65034139156342
226,1476924066,-14.48667430877686,-84.67822265625000,43.65837860107422,9.77069091796875,-0.33424568176270,0.82416421175003,-0.14730504155159,0.38139870762825,-1.55179023742676
227,1476940733,-14.43772602081299,-84.67453765869141,43.59857177734375,9.78032112121582,-0.33340892195702,0.86134481430054,-0.46783515810966,0.39449962973595,-1.55250740051270
228,1476957400,-14.38939666748047,-84.67266845703125,43.53371810913086,9.75355529785156,-0.35113131999969,0.90319454669952,-0.68675976991653,0.29040965437889,-1.59754741191864
229,1476974067,-14.32490444183350,-84.67163848876953,43.46996307373047,9.75946521759033,-0.30950650572777,0.88861399888992,0.08655171841383,0.24625971913338,-1.62799441814423
230,1476990734,-14.29049968719482,-84.67240905761719,43.42708587646484,9.78197383880615,-0.31851267814636,0.89533239603043,-0.86214900016785,0.12371573597193,-1.57564210891724
231,1477007401,-14.26987075805664,-84.67387390136719,43.41014480590820,9.76863574981689,-0.31795674562454,0.84159964323044,-0.09333268553019,0.04785092920065,-1.44153392314911
232,1477024068,-14.25462341308594,-84.67436218261719,43.40206909179688,9.83040904998779,-0.32107427716255,0.85970127582550,0.69662708044052,0.07257359474897,-1.32725656032562
233,1477040735,-14.23439121246338,-84.67469024658203,43.38755798339844,9.78283405303955,-0.32436096668243,0.89678323268890,0.34378650784492,0.10055546462536,-1.38369417190552
234,1477057402,-14.21098136901855,-84.67406463623047,43.35754776000977,9.78055381774902,-0.34880346059799,0.89398258924484,0.28458270430565,0.15996412932873,-1.39267134666443
235,1477074069,-14.18019580841064,-84.67299652099609,43.32265090942383,9.78331089019775,-0.31532427668571,0.86163473129272,-0.12733352184296,0.21239973604679,-1.46101248264313
236,1477090736,-14.18210124969482,-84.67498016357422,43.31357192993164,9.74590301513672,-0.29877832531929,0.84637957811356,-0.60286533832550,-0.00631993357092,-1.37315452098846
237,1477107403,-14.18215942382812,-84.67745208740234,43.31627655029297,9.75073909759521,-0.36079239845276,0.85216075181961,0.11068528145552,-0.04795337468386,-1.32533562183380
238,1477124070,-14.18896293640137,-84.68175506591797,43.33096694946289,9.75340557098389,-0.34835922718048,0.90173691511154,0.16602151095867,-0.16483689844608,-1.31163263320923
239,1477140737,-14.18316841125488,-84.68444824218750,43.32656097412109,9.78113651275635,-0.31904575228691,0.89100998640060,0.08832539618015,-0.04130688309669,-1.35938775539398
240,1477157404,-14.16273498535156,-84.68869018554688,43.29392623901367,9.79277992248535,-0.36054220795631,0.84788960218430,-0.79841834306717,-0.09794937819242,-1.54381203651428
241,1477174071,-14.14824199676514,-84.69489288330078,43.26328277587891,9.76414299011230,-0.34445020556450,0.83912605047226,-0.28613865375519,-0.24248182773590,-1.49674832820892
242,1477190738,-14.13977622985840,-84.70465087890625,43.24662780761719,9.76880168914795,-0.32895454764366,0.85926932096481,-0.55498242378235,-0.44313174486160,-1.53830516338348
243,1477207405,-14.13874721527100,-84.71553802490234,43.24320220947266,9.78646850585938,-0.33968883752823,0.87692147493362,-0.38582971692085,-0.51381641626358,-1.49598658084869
244,1477224072,-14.13188552856445,-84.72429656982422,43.23608016967773,9.80123424530029,-0.30282050371170,0.85614335536957,-0.11510988324881,-0.39847597479820,-1.47568213939667
245,1477240739,-14.11099910736084,-84.73080444335938,43.20986557006836,9.79073143005371,-0.30010631680489,0.83478212356567,-0.45750048756599,-0.23556642234325,-1.54700076580048
246,1477257406,-14.07691955566406,-84.73500823974609,43.16687774658203,9.74848079681396,-0.34180319309235,0.82665431499481,-0.52587348222733,-0.08501495420933,-1.58985078334808
247,1477274073,-14.05508708953857,-84.73939514160156,43.13084030151367,9.78634357452393,-0.32633364200592,0.81452137231827,-0.55811995267868,-0.11632647365332,-1.53124880790710
248,1477290740,-14.03158187866211,-84.74390411376953,43.11662673950195,9.79332542419434,-0.28021758794785,0.85721743106842,0.03638283908367,-0.12996524572372,-1.48741269111633
249,1477307407,-14.01175403594971,-84.74819946289062,43.07928085327148,9.77253341674805,-0.28703564405441,0.84849125146866,-0.98837482929230,-0.09481180459261,-1.55421054363251
250,1477324074,-13.98601531982422,-84.75043487548828,43.04320144653320,9.75863170623779,-0.32192331552505,0.81295424699783,-0.68783551454544,0.01799292303622,-1.53101837635040
251,1477340741,-13.97407245635986,-84.75582122802734,43.02213287353516,9.76387882232666,-0.34774625301361,0.85837477445602,-0.58496201038361,-0.18432818353176,-1.49275290966034
252,1477357408,-13.96298980712891,-84.76194763183594,43.00757217407227,9.76425361633301,-0.30811399221420,0.85647183656693,-0.16414539515972,-0.23510538041592,-1.46058344841003
253,1477374075,-13.95164680480957,-84.76988220214844,42.98735427856445,9.78307342529297,-0.31217855215073,0.81788414716721,-0.85246115922928,-0.32322588562965,-1.54920351505280
254,1477390742,-13.94424724578857,-84.77896118164062,42.96265029907227,9.77729797363281,-0.31161814928055,0.83545249700546,-1.00599634647369,-0.39839914441109,-1.55853903293610
255,1477407409,-13.95061874389648,-84.78793334960938,42.96004867553711,9.80137348175049,-0.30671012401581,0.88095664978027,-0.41927990317345,-0.42030438780785,-1.43121206760406
256,1477424076,-13.96460342407227,-84.80046844482422,42.97113418579102,9.78915405273438,-0.33674553036690,0.86451500654221,0.20130944252014,-0.65003758668900,-1.38686370849609
257,1477440743,-13.98348331451416,-84.81182861328125,42.99835968017578,9.78324890136719,-0.31414571404457,0.85743546485901,0.50714421272278,-0.58932900428772,-1.31624305248260
258,1477457410,-13.98499488830566,-84.82063293457031,43.00035476684570,9.76297378540039,-0.30378258228302,0.84603631496429,0.33480918407440,-0.41929906606674,-1.38888061046600
259,1477474077,-13.97561454772949,-84.83021545410156,42.98586273193359,9.75994777679443,-0.32190555334091,0.80589973926544,-0.16724450886250,-0.44392570853233,-1.50190937519073
260,1477490744,-13.97699165344238,-84.83885955810547,42.99131393432617,9.76581764221191,-0.30160903930664,0.80886900424957,0.28143230080605,-0.40916925668716,-1.39150595664978
261,1477507411,-13.99889850616455,-84.84489440917969,43.01621246337891,9.79295825958252,-0.30021989345551,0.80539995431900,0.24944205582142,-0.28825169801712,-1.24883031845093
262,1477524078,-14.02681159973145,-84.84638214111328,43.03997802734375,9.78388690948486,-0.31880500912666,0.81167149543762,0.26025062799454,-0.02236629091203,-1.14833903312683
263,1477540745,-14.04848384857178,-84.84759521484375,43.05866622924805,9.76332664489746,-0.32000964879990,0.83572942018509,-0.20246198773384,0.00540427956730,-1.21955513954163
264,1477557412,-14.07685661315918,-84.85178375244141,43.08617401123047,9.75291061401367,-0.31964126229286,0.86694616079330,0.08605866879225,-0.17628580331802,-1.20108830928802
265,1477574079,-14.12107849121094,-84.85897827148438,43.13317489624023,9.77757930755615,-0.31097969412804,0.84794360399246,0.22567351162434,-0.38579770922661,-1.15132296085358
266,1477590746,-14.16495990753174,-84.86725616455078,43.18211746215820,9.77812290191650,-0.32266372442245,0.82128727436066,0.81348496675491,-0.45341518521309,-1.11752700805664
267,1477607413,-14.19970130920410,-84.87451171875000,43.22958374023438,9.80744361877441,-0.32073831558228,0.81301128864288,0.69418740272522,-0.37710863351822,-1.16060113906860
268,1477624080,-14.22257041931152,-84.87718963623047,43.26912689208984,9.79524707794189,-0.31350961327553,0.77302008867264,0.99689751863480,-0.11681310832500,-1.13292002677917
269,1477640747,-14.24265480041504,-84.87937927246094,43.29409027099609,9.78537750244141,-0.31876286864281,0.78200513124466,0.21751585602760,-0.05598295852542,-1.20632612705231
270,1477657414,-14.26132297515869,-84.87830352783203,43.31770324707031,9.76756191253662,-0.31007620692253,0.80163079500198,0.30835130810738,0.13470999896526,-1.15716254711151
271,1477674081,-14.28159809112549,-84.87692260742188,43.33378982543945,9.76579761505127,-0.29824203252792,0.83822822570801,0.07270164042711,0.14490383863449,-1.16722834110260
272,1477690748,-14.30441284179688,-84.87310028076172,43.35998916625977,9.79536342620850,-0.30603998899460,0.84980803728104,0.22338114678860,0.29606997966766,-1.09967482089996
273,1477707415,-14.33736991882324,-84.87123107910156,43.40497970581055,9.78611564636230,-0.32645919919014,0.83020043373108,0.40785658359528,0.15645517408848,-1.06106376647949
274,1477724082,-14.36787033081055,-84.87123107910156,43.44215011596680,9.74074268341064,-0.33161941170692,0.81885808706284,0.41650733351707,0.05516335740685,-1.10068023204803
275,1477740749,-14.41496562957764,-84.87210845947266,43.48899078369141,9.74296665191650,-0.29670462012291,0.85277563333511,-0.05142389610410,-0.00635835248977,-1.06705713272095
276,1477757416,-14.47270870208740,-84.87520599365234,43.54463195800781,9.78852462768555,-0.32663211226463,0.85966360569000,-0.27137297391891,-0.15589809417725,-1.06686484813690
277,1477774083,-14.51800632476807,-84.87593078613281,43.60187149047852,9.81071949005127,-0.31626161932945,0.84905487298965,0.66112786531448,-0.01172421313822,-1.01303994655609
278,1477790750,-14.55979824066162,-84.87298583984375,43.66013717651367,9.78959846496582,-0.28713986277580,0.80100429058075,0.47387334704399,0.20348007977009,-0.99279296398163
279,1477807417,-14.59894561767578,-84.86916351318359,43.69538497924805,9.75869083404541,-0.33512178063393,0.77474957704544,0.02218060009181,0.26413097977638,-1.03393995761871
280,1477824084,-14.63869380950928,-84.86676025390625,43.73436737060547,9.77327346801758,-0.32431891560555,0.84037768840790,-0.18849025666714,0.19354234635830,-1.06864500045776
281,1477840751,-14.67474174499512,-84.86462402343750,43.76936721801758,9.74591827392578,-0.35553249716759,0.80173146724701,-0.08990697562695,0.17492192983627,-1.08489632606506
282,1477857418,-14.71978569030762,-84.86355590820312,43.81700134277344,9.76525878906250,-0.32390382885933,0.83487975597382,0.15855541825294,0.09291007369757,-1.03255677223206
283,1477874085,-14.76747322082520,-84.86107635498047,43.86295318603516,9.77505588531494,-0.29780730605125,0.82843589782715,0.03895050659776,0.18015329539776,-1.00606679916382
284,1477890752,-14.80464649200439,-84.85646820068359,43.90879058837891,9.79248332977295,-0.33573940396309,0.79569363594055,0.51952797174454,0.30927333235741,-0.98440486192703
285,1477907419,-14.84088134765625,-84.85173797607422,43.93678665161133,9.77596092224121,-0.32199153304100,0.80990934371948,-0.05280698090792,0.32648503780365,-1.04056060314178
286,1477924086,-14.86952877044678,-84.84767150878906,43.97044372558594,9.75875663757324,-0.33059668540955,0.81903350353241,0.22361806035042,0.29368159174919,-1.06323432922363
287,1477940753,-14.90452957153320,-84.84652709960938,44.00689697265625,9.77327823638916,-0.35315549373627,0.85863262414932,-0.19667991995811,0.12242870032787,-1.11337125301361
288,1477957420,-14.93211364746094,-84.84824371337891,44.03936386108398,9.78922653198242,-0.34922596812248,0.84803169965744,0.32106801867485,-0.04566104710102,-1.15091323852539
289,1477974087,-14.97892951965332,-84.85193634033203,44.08716583251953,9.78745937347412,-0.32963663339615,0.82940304279327,-0.00728040980175,-0.17608089745045,-1.10863924026489
290,1477990754,-15.00690078735352,-84.85657501220703,44.11578750610352,9.78999805450439,-0.32716506719589,0.83287966251373,-0.02245593629777,-0.21284794807434,-1.22631692886353
291,1478007421,-15.04574966430664,-84.86180114746094,44.15104293823242,9.76082229614258,-0.31483286619186,0.83496564626694,0.14650465548038,-0.25934779644012,-1.16165769100189
292,1478024088,-15.09218788146973,-84.87016296386719,44.19702529907227,9.77537536621094,-0.34726417064667,0.85695022344589,-0.14804139733315,-0.43514692783356,-1.19455063343048
293,1478040755,-15.12339687347412,-84.87608337402344,44.23728942871094,9.76520919799805,-0.32985135912895,0.81081134080887,0.53078478574753,-0.29955974221230,-1.18125140666962
294,1478057422,-15.16708564758301,-84.88297271728516,44.26545333862305,9.76850223541260,-0.30043774843216,0.79900890588760,-0.76582616567612,-0.33587855100632,-1.24217116832733
295,1478074089,-15.19847393035889,-84.88794708251953,44.27820587158203,9.76591300964355,-0.33155572414398,0.79392075538635,-0.97905194759369,-0.20965917408466,-1.29713594913483
296,1478090756,-15.23108100891113,-84.89082336425781,44.30168151855469,9.78436946868896,-0.33829915523529,0.80431967973709,-0.05837774276733,-0.10915491729975,-1.17790877819061
297,1478107423,-15.24910926818848,-84.89481353759766,44.33233642578125,9.78477954864502,-0.32051157951355,0.87082403898239,0.29894503951073,-0.16299921274185,-1.23920643329620
298,1478124090,-15.26706123352051,-84.89612579345703,44.35654067993164,9.79921245574951,-0.31911423802376,0.83592480421066,0.16439512372017,-0.00752373132855,-1.21120524406433
299,1478140757,-15.28573608398438,-84.89601135253906,44.37314224243164,9.77532958984375,-0.33629348874092,0.78908395767212,-0.16700120270252,0.09480540454388,-1.20948922634125
300,1478157424,-15.30045413970947,-84.89819335937500,44.38360214233398,9.77817630767822,-0.32509538531303,0.81802636384964,-0.28064477443695,-0.03869438543916,-1.27886140346527
301,1478174091,-15.31540679931641,-84.90065002441406,44.39581680297852,9.75756359100342,-0.33621641993523,0.83403754234314,-0.28790596127510,-0.05682817474008,-1.28279280662537
302,1478190758,-15.32355690002441,-84.90422821044922,44.40009307861328,9.74312973022461,-0.33680379390717,0.80388969182968,-0.13163006305695,-0.11216440796852,-1.32135272026062
303,1478207425,-15.33089447021484,-84.90657806396484,44.39606094360352,9.76562976837158,-0.30034101009369,0.78443491458893,-0.75707942247391,-0.02569594047964,-1.36010491847992
304,1478224092,-15.35440731048584,-84.90872955322266,44.41085052490234,9.77395820617676,-0.33217087388039,0.76065641641617,-0.47516676783562,-0.04397700354457,-1.25002777576447
305,1478240759,-15.37035942077637,-84.91589355468750,44.41036224365234,9.77408790588379,-0.34209951758385,0.86024737358093,-0.86323755979538,-0.31168094277382,-1.40028476715088
306,1478257426,-15.38250446319580,-84.92580413818359,44.40713882446289,9.74248981475830,-0.36217480897903,0.84123390913010,-0.47864371538162,-0.48134586215019,-1.43444561958313
307,1478274093,-15.38789558410645,-84.93878936767578,44.40675354003906,9.74575710296631,-0.32589250802994,0.82475513219833,-1.07202589511871,-0.62989950180054,-1.56565952301025
308,1478290760,-15.40043067932129,-84.94940948486328,44.40620040893555,9.77063941955566,-0.31528776884079,0.85050320625305,-0.83462190628052,-0.50141340494156,-1.46909964084625
309,1478307427,-15.40043067932129,-84.95644378662109,44.42025375366211,9.84237766265869,-0.32370594143867,0.79910343885422,0.83793866634369,-0.33027574419975,-1.33875012397766
310,1478324094,-15.42973423004150,-84.96533966064453,44.46046829223633,9.80854797363281,-0.28643074631691,0.81372231245041,0.64233452081680,-0.46343618631363,-1.23140740394592
311,1478340761,-15.43001079559326,-84.97133636474609,44.47377777099609,9.78595066070557,-0.32647991180420,0.79298233985901,0.73163956403732,-0.25968077778816,-1.32665455341339
312,1478357428,-15.43750858306885,-84.97542572021484,44.47775650024414,9.73211097717285,-0.35386610031128,0.76004850864410,-0.13936509191990,-0.15181288123131,-1.33756566047668
313,1478374095,-15.44889640808105,-84.98218536376953,44.47235107421875,9.75977230072021,-0.32752719521523,0.76469385623932,-0.46579894423485,-0.28946828842163,-1.38429582118988
314,1478390762,-15.48691272735596,-84.99281311035156,44.50462341308594,9.78530311584473,-0.32031250000000,0.76371926069260,-0.55133259296417,-0.55508476495743,-1.31888103485107
315,1478407429,-15.53574371337891,-85.00366210937500,44.56529617309570,9.75748729705811,-0.31734639406204,0.81600815057755,0.49427384138107,-0.60169994831085,-1.17886924743652
316,1478424096,-15.57606220245361,-85.01158905029297,44.60737228393555,9.76406288146973,-0.29080092906952,0.82837897539139,0.11505226045847,-0.41992664337158,-1.21037304401398
317,1478440763,-15.62689781188965,-85.01409912109375,44.66239547729492,9.76681137084961,-0.34758761525154,0.80733805894852,0.08219115436077,-0.11651857197285,-1.07129597663879
318,1478457430,-15.65978813171387,-85.01355743408203,44.70104598999023,9.78714752197266,-0.31031212210655,0.79062527418137,0.40031364560127,0.08400965481997,-1.08588242530823
319,1478474097,-15.69965744018555,-85.00735473632812,44.76287460327148,9.79533386230469,-0.26579231023788,0.76850855350494,1.24327886104584,0.37153783440590,-0.88916403055191
320,1478490764,-15.75819301605225,-85.00119018554688,44.84032058715820,9.78756904602051,-0.31439357995987,0.78236579895020,1.58788490295410,0.33904808759689,-0.76425087451935
321,1478507431,-15.84696483612061,-84.99731445312500,44.93585586547852,9.76225185394287,-0.34381648898125,0.81324547529221,0.52922242879868,0.18756178021431,-0.73662763834000
322,1478524098,-15.92088794708252,-84.99707794189453,45.02469635009766,9.74106979370117,-0.37234258651733,0.80482864379883,0.55172318220139,-0.00605100113899,-0.87033879756927
323,1478540765,-15.99977302551270,-84.99633789062500,45.11513900756836,9.75635433197021,-0.31359556317329,0.78198724985123,0.66771024465561,0.01278073620051,-0.82728374004364
324,1478557432,-16.09926986694336,-84.99617767333984,45.22550964355469,9.78926944732666,-0.33613941073418,0.79367905855179,0.70294058322906,-0.05133425816894,-0.72934085130692
325,1478574099,-16.20369911193848,-84.99262237548828,45.36460113525391,9.77004241943359,-0.33092638850212,0.81358742713928,1.65551531314850,0.11436071246862,-0.56638008356094
326,1478590766,-16.32541084289551,-84.99234771728516,45.50600433349609,9.77078533172607,-0.32014864683151,0.81802570819855,1.19245040416718,-0.08912578225136,-0.57273197174072
327,1478607433,-16.47101593017578,-84.99543762207031,45.66175079345703,9.75219917297363,-0.31677725911140,0.85431879758835,0.55783176422119,-0.30546340346336,-0.56343448162079
328,1478624100,-16.61443901062012,-85.00236511230469,45.80819702148438,9.74913787841797,-0.39922451972961,0.79805684089661,0.10812401771545,-0.51491129398346,-0.68008762598038
329,1478640767,-16.75630569458008,-85.01108551025391,45.95685958862305,9.75254344940186,-0.36087268590927,0.78198301792145,0.49595150351524,-0.62683880329132,-0.68892407417297
330,1478657434,-16.89975166320801,-85.01831054687500,46.11235046386719,9.77198886871338,-0.32606869935989,0.75643652677536,0.72341150045395,-0.55261963605881,-0.64107310771942
331,1478674101,-17.04514694213867,-85.02543640136719,46.25570297241211,9.78081035614014,-0.33876553177834,0.78452241420746,-0.00153035868425,-0.52644979953766,-0.68921852111816
332,1478690768,-17.22926902770996,-85.03311920166016,46.44939804077148,9.76402378082275,-0.40989232063293,0.80663609504700,0.55359286069870,-0.63270401954651,-0.46149599552155
333,1478707435,-17.39542961120605,-85.04429626464844,46.64676666259766,9.75679683685303,-0.40103968977928,0.80031585693359,1.49470579624176,-0.83910393714905,-0.54211193323135
334,1478724102,-17.57236480712891,-85.06143951416016,46.84673690795898,9.77528572082520,-0.31152492761612,0.83341389894485,1.25949156284332,-1.18358206748962,-0.61910372972488
335,1478740769,-17.80166053771973,-85.08849334716797,47.08912277221680,9.73187923431396,-0.39250463247299,0.84597730636597,0.72104859352112,-1.81969904899597,-0.59387516975403
336,1478757436,-18.04340362548828,-85.12809753417969,47.35773468017578,9.72352218627930,-0.44972857832909,0.82267081737518,1.83292806148529,-2.58553791046143,-0.68966031074524
337,1478774103,-18.25931549072266,-85.16872406005859,47.63669967651367,9.73549652099609,-0.36418670415878,0.83420693874359,3.35571217536926,-2.63639831542969,-0.73013484477997
338,1478790770,-18.49735450744629,-85.19955444335938,47.91222381591797,9.82042503356934,-0.30862644314766,0.84415614604950,2.54442954063416,-2.09476661682129,-0.52569425106049
339,1478807437,-18.71589279174805,-85.21276092529297,48.18289566040039,9.87700271606445,-0.22518134117126,0.70012372732162,3.37174534797668,-1.08763682842255,-0.23201902210712
340,1478824104,-19.00568771362305,-85.21267700195312,48.52306365966797,9.84168910980225,-0.32243168354034,0.59868872165680,2.84687733650208,-0.44626930356026,0.31547161936760
341,1478840771,-19.30529022216797,-85.20368194580078,48.87067031860352,9.74327182769775,-0.33085125684738,0.63768386840820,2.79716300964355,0.02593285776675,0.52792888879776
342,1478857438,-19.62424087524414,-85.20057678222656,49.20137405395508,9.69970226287842,-0.35626399517059,0.69446939229965,1.15154707431793,-0.29233697056770,0.37782576680183
343,1478874105,-20.00911712646484,-85.20981597900391,49.59707641601562,9.71189117431641,-0.39907744526863,0.80172616243362,0.33326607942581,-1.07596397399902,0.37842127680779
344,1478890772,-20.42346763610840,-85.22824859619141,50.03062438964844,9.71939277648926,-0.47565257549286,0.84129202365875,1.04928827285767,-1.69540059566498,0.36072924733162
345,1478907439,-20.83419036865234,-85.25054931640625,50.48266983032227,9.74172019958496,-0.41109269857407,0.81532692909241,2.90514636039734,-1.94465076923370,0.39442279934883
346,1478924106,-21.33456993103027,-85.28188323974609,51.05004119873047,9.74047374725342,-0.47179472446442,0.77653765678406,3.58320355415344,-2.65863013267517,0.63479793071747
347,1478940773,-21.88220214843750,-85.32978820800781,51.67708206176758,9.73375797271729,-0.39831915497780,0.79409956932068,4.29380273818970,-3.68607139587402,0.49839752912521
348,1478957440,-22.49817848205566,-85.39359283447266,52.35720825195312,9.70036315917969,-0.44349291920662,0.80665290355682,3.76191663742065,-4.68217515945435,0.33483484387398
349,1478974107,-23.20238304138184,-85.46845245361328,53.13077926635742,9.72326374053955,-0.39222499728203,0.78136116266251,3.39401626586914,-5.45158052444458,0.33899694681168
350,1478990774,-24.02171325683594,-85.55358123779297,54.01707077026367,9.69904327392578,-0.49897897243500,0.75682437419891,3.44433259963989,-6.22423982620239,0.46504986286163
351,1479007441,-24.92454338073730,-85.64927673339844,55.00934219360352,9.68865489959717,-0.42972782254219,0.73446559906006,4.75957679748535,-6.98607015609741,0.48047509789467
352,1479024108,-25.90176773071289,-85.74435424804688,56.07968139648438,9.79881000518799,-0.41508865356445,0.72053033113480,5.28251934051514,-7.10484313964844,0.62885594367981
353,1479040775,-26.97669982910156,-85.83162689208984,57.24607086181641,9.82576179504395,-0.33553218841553,0.65279060602188,5.33462667465210,-6.86969184875488,1.00728356838226
354,1479057442,-28.08422660827637,-85.90796661376953,58.45106506347656,9.78840065002441,-0.50405400991440,0.55518442392349,5.86541748046875,-6.36688184738159,1.24943232536316
355,1479074109,-29.29253005981445,-85.97557067871094,59.75757980346680,9.78935718536377,-0.39060464501381,0.51637172698975,5.93687772750854,-6.13214302062988,1.66763687133789
356,1479090776,-30.58361625671387,-86.04091644287109,61.14746093750000,9.68499374389648,-0.42646631598473,0.50057512521744,5.87841749191284,-6.18841409683228,1.82781887054443
357,1479107443,-32.00193786621094,-86.10248565673828,62.65462493896484,9.68311691284180,-0.41043251752853,0.49834138154984,5.32745504379272,-6.30170440673828,2.11521220207214
358,1479124110,-33.58602523803711,-86.16140747070312,64.31496429443359,9.73398685455322,-0.37956115603447,0.52174884080887,4.31755924224854,-6.50472450256348,2.48339486122131
359,1479140777,-35.24616622924805,-86.21069335937500,66.05821990966797,9.76601219177246,-0.54577642679214,0.56944662332535,4.89632940292358,-6.29898977279663,2.80834341049194
360,1479157444,-36.85530090332031,-86.23464965820312,67.77514648437500,9.81271934509277,-0.46273145079613,0.51804780960083,6.30761384963989,-5.07617473602295,3.37955713272095
361,1479174111,-38.41853713989258,-86.24391174316406,69.42930603027344,9.85429096221924,-0.47757056355476,0.41710278391838,5.23163795471191,-4.33000040054321,3.55336570739746
362,1479190778,-39.91971206665039,-86.23615264892578,71.02681732177734,9.78957939147949,-0.48958033323288,0.37954026460648,5.49235630035400,-3.52264332771301,3.89815759658813
363,1479207445,-41.43629074096680,-86.21649169921875,72.61224365234375,9.71748733520508,-0.48976835608482,0.39492288231850,4.31752061843872,-3.13620519638062,4.25724172592163
364,1479224112,-43.04409408569336,-86.19337463378906,74.27864074707031,9.65890598297119,-0.55892777442932,0.45153069496155,3.59672808647156,-3.37088155746460,4.56523370742798
365,1479240779,-44.65575790405273,-86.15840148925781,75.98845672607422,9.73853206634521,-0.55187010765076,0.49119910597801,5.59189987182617,-3.14650797843933,5.11825752258301
366,1479257446,-46.29119110107422,-86.11112976074219,77.72570800781250,9.74218940734863,-0.44048091769218,0.42226937413216,5.88357830047607,-2.96866631507874,5.65470314025879
367,1479274113,-47.94145202636719,-86.05117034912109,79.48348236083984,9.75035381317139,-0.61394190788269,0.42202806472778,6.12134027481079,-2.76498126983643,6.25648593902588
368,1479290780,-49.58118438720703,-85.98336791992188,81.26724243164062,9.66318798065186,-0.64191132783890,0.42780202627182,7.95281696319580,-2.82220077514648,6.65632724761963
369,1479307447,-51.29708862304688,-85.91741180419922,83.13462829589844,9.65387535095215,-0.76418834924698,0.49456545710564,9.40192794799805,-3.55684399604797,6.82627487182617
370,1479324114,-53.12618637084961,-85.85523223876953,85.16082000732422,9.61907100677490,-0.81152272224426,0.56194412708282,11.42134857177734,-4.54746675491333,6.99407625198364
371,1479340781,-55.07861328125000,-85.78876495361328,87.33553314208984,9.62375068664551,-0.63933664560318,0.59691166877747,12.94246101379395,-5.29595565795898,7.52982664108276
372,1479357448,-57.14129257202148,-85.71971130371094,89.66500854492188,9.68684959411621,-0.82127165794373,0.56257933378220,15.52078056335449,-6.22316312789917,7.91115045547485
373,1479374115,-59.19028472900391,-85.64769744873047,92.02111816406250,9.65056800842285,-0.79446107149124,0.52635556459427,17.77447128295898,-6.68824768066406,7.98904848098755
374,1479390782,-61.31320953369141,-85.56729888916016,94.44000244140625,9.54982566833496,-0.89498549699783,0.37582802772522,17.44038009643555,-7.22112131118774,8.40264320373535
375,1479407449,-63.27716827392578,-85.47740936279297,96.77082824707031,9.67540264129639,-0.98551017045975,0.31979936361313,21.54901885986328,-7.10463714599609,8.55442905426025
376,1479424116,-65.10659790039062,-85.37911987304688,98.96119689941406,9.70288276672363,-0.70903384685516,0.24645337462425,21.23377799987793,-6.80532741546631,8.57567501068115
377,1479440783,-66.95851898193359,-85.27511596679688,101.04821014404297,9.67203712463379,-0.95362323522568,0.14923295378685,13.54798603057861,-6.71874332427979,8.54323387145996
378,1479457450,-68.48390197753906,-85.16260528564453,102.79582977294922,9.77829551696777,-0.92269951105118,0.09879689663649,12.88321781158447,-5.46357774734497,8.23887538909912
379,1479474117,-69.86994171142578,-85.04560089111328,104.32315063476562,9.72529888153076,-0.97663247585297,0.01838266849518,8.18553447723389,-4.75188779830933,8.03199863433838
380,1479490784,-71.07424163818359,-84.91847229003906,105.63926696777344,9.66190814971924,-0.79781448841095,0.07479576021433,6.33436203002930,-3.88629269599915,8.18047428131104
381,1479507451,-72.14679718017578,-84.78297424316406,106.74214172363281,9.67072105407715,-0.89754736423492,0.16402840614319,1.62404406070709,-3.00466513633728,8.27458858489990
382,1479524118,-73.18700408935547,-84.64624786376953,107.72096252441406,9.73131942749023,-1.20554935932159,0.15870611369610,-3.90294098854065,-2.64565181732178,8.13695812225342
383,1479540785,-73.98397064208984,-84.51195526123047,108.52984619140625,9.78573322296143,-1.36148381233215,0.25092890858650,0.47824680805206,-2.03987240791321,7.71218347549438
384,1479557452,-74.62220764160156,-84.37848663330078,109.16113281250000,9.80306720733643,-1.11554646492004,0.37099608778954,-0.58738899230957,-1.28013575077057,7.38756847381592
385,1479574119,-75.19793701171875,-84.25539398193359,109.72036743164062,9.78946399688721,-1.37119543552399,0.30573096871376,-1.15745091438293,-1.20187616348267,6.67810916900635
386,1479590786,-75.78736877441406,-84.15417480468750,110.34632110595703,9.74703216552734,-1.40441656112671,0.32263520359993,2.06084299087524,-2.07172179222107,5.52546024322510
387,1479607453,-76.56850433349609,-84.08321380615234,111.13824462890625,9.63769721984863,-1.43427646160126,0.51571929454803,0.28800842165947,-3.61623215675354,3.99631762504578
388,1479624120,-77.51037597656250,-84.03172302246094,112.04933929443359,9.58459663391113,-1.42191612720490,0.56315124034882,-2.22608971595764,-4.73089694976807,2.97287273406982
389,1479640787,-78.49346160888672,-83.98803710937500,113.03533935546875,9.67946243286133,-1.49478042125702,0.45962515473366,-0.25594130158424,-5.40064907073975,2.54601788520813
390,1479657454,-79.56278228759766,-83.95191955566406,114.13180541992188,9.78420829772949,-1.00597667694092,0.43773037195206,1.11474156379700,-6.27675676345825,2.13717508316040
391,1479674121,-80.80993652343750,-83.90764617919922,115.37813568115234,9.60855007171631,-1.19161736965179,0.18036796152592,-0.47974511981010,-7.25927448272705,2.65613985061646
392,1479690788,-82.12933349609375,-83.86330413818359,116.73094177246094,9.51652622222900,-1.47953081130981,0.03939920291305,1.38726723194122,-8.06253337860107,2.60714936256409
393,1479707455,-83.33735656738281,-83.82083129882812,118.06585693359375,9.49441337585449,-1.55866980552673,0.06681706011295,6.88924169540405,-8.09403228759766,2.31755328178406
394,1479724122,-84.53295135498047,-83.77650451660156,119.38108062744141,9.42409229278564,-1.08387196063995,0.10618303716183,6.68849754333496,-8.11481094360352,2.23535585403442
395,1479740789,-85.87363433837891,-83.72843170166016,120.79143524169922,9.51578140258789,-1.51969766616821,0.05503534898162,3.66969299316406,-8.85755348205566,2.34368443489075
396,1479757456,-87.05088806152344,-83.67789459228516,122.15084838867188,9.61653327941895,-1.21038162708282,0.17926836013794,10.38231277465820,-8.65817451477051,2.26767945289612
397,1479774123,-88.47034454345703,-83.61825561523438,123.67788696289062,9.57946395874023,-1.61147928237915,-0.07623755931854,5.77834320068359,-9.89966487884521,2.66578388214111
398,1479790790,-89.68645477294922,-83.55877685546875,125.13262939453125,9.59786891937256,-1.32024550437927,-0.02550343051553,13.72240161895752,-9.60570049285889,2.42090201377869
399,1479807457,-91.00444793701172,-83.49564361572266,126.61653137207031,9.45386505126953,-1.16177797317505,0.05693173408508,9.37916660308838,-9.98053264617920,2.41026568412781
400,1479824124,-92.37606811523438,-83.42419433593750,128.13285827636719,9.49448108673096,-1.33037960529327,0.04318406060338,8.10942745208740,-10.40931510925293,2.66645669937134
401,1479840791,-93.87360382080078,-83.34943389892578,129.77890014648438,9.62852954864502,-1.50569593906403,0.06540112942457,8.16475296020508,-11.51478767395020,2.54482197761536
402,1479857458,-95.46775817871094,-83.27191925048828,131.53894042968750,9.66110801696777,-1.31685483455658,0.33813861012459,9.24798107147217,-12.56452655792236,2.31866216659546
403,1479874125,-97.46672058105469,-83.19190979003906,133.64962768554688,9.54468345642090,-1.68377280235291,0.36281102895737,5.75655555725098,-15.29028320312500,1.77640235424042
404,1479890792,-99.70513153076172,-83.10920715332031,136.07325744628906,9.62926483154297,-1.75376641750336,0.37531352043152,10.02129745483398,-17.81580924987793,1.01050567626953
405,1479907459,-102.32950592041016,-83.00779724121094,138.85624694824219,9.35374259948730,-1.56731963157654,0.24007713794708,8.24221897125244,-20.89850616455078,0.79207408428192
406,1479924126,-105.14656829833984,-82.87933349609375,141.85940551757812,9.52731895446777,-1.53420770168304,0.11191577464342,9.70685005187988,-23.25358200073242,0.90145379304886
407,1479940793,-107.88018035888672,-82.73250579833984,144.81134033203125,9.69426727294922,-1.48786032199860,-0.08867973089218,11.65900707244873,-23.69351577758789,0.80959379673004
408,1479957460,-110.51097106933594,-82.57704162597656,147.60006713867188,9.70584011077881,-1.33237433433533,-0.30653122067451,8.09903335571289,-23.19910240173340,0.45093810558319
409,1479974127,-113.06339263916016,-82.39847564697266,150.32389831542969,9.51385307312012,-1.64341247081757,-0.39018118381500,8.86261558532715,-23.74116325378418,0.68876546621323
410,1479990794,-115.59554290771484,-82.20281219482422,153.08728027343750,9.46395015716553,-1.69955730438232,-0.38103100657463,12.35568428039551,-24.99461936950684,0.20811018347740
411,1480007461,-118.17929840087891,-81.98636627197266,155.90995788574219,9.36645412445068,-1.64981794357300,-0.44348824024200,12.74674797058105,-26.57065963745117,-0.29095470905304
412,1480024128,-120.74841308593750,-81.73060607910156,158.70404052734375,9.42392730712891,-1.35040485858917,-0.36291062831879,11.82539653778076,-28.14377021789551,0.34920471906662
413,1480040795,-123.11289215087891,-81.43924713134766,161.26663208007812,9.45991992950439,-1.11674082279205,-0.55679589509964,10.19495677947998,-28.25584220886230,1.60480093955994
414,1480057462,-125.37033843994141,-81.12445068359375,163.66848754882812,9.66011047363281,-1.30110752582550,-0.70195746421814,6.96656036376953,-28.59321212768555,1.98775625228882
415,1480074129,-127.46792602539062,-80.77959442138672,165.87309265136719,9.58649826049805,-1.06364357471466,-0.45201176404953,4.73718500137329,-28.92937850952148,2.96898174285889
416,1480090796,-129.33911132812500,-80.42927551269531,167.88621520996094,9.54760360717773,-2.11377143859863,-0.35000121593475,6.86757946014404,-28.41304016113281,2.88997936248779
417,1480107463,-131.20744323730469,-80.04163360595703,169.96438598632812,9.68142795562744,-1.84485054016113,-0.25787612795830,10.74529838562012,-31.07475852966309,2.74703669548035
418,1480124130,-133.08879089355469,-79.61073303222656,171.95425415039062,9.83058261871338,-1.09284341335297,-0.73792481422424,4.60751867294312,-32.88805007934570,3.68504762649536
419,1480140797,-135.07040405273438,-79.13574218750000,173.96499633789062,9.59729862213135,-1.08622145652771,-1.17650711536407,-0.34887215495110,-35.71126937866211,3.66604518890381
420,1480157464,-136.98463439941406,-78.62808990478516,175.93417358398438,10.29536437988281,-0.95760500431061,-1.00732421875000,1.04869806766510,-37.64129257202148,3.42455697059631
421,1480174131,-139.07986450195312,-78.07871246337891,177.86544799804688,11.15051555633545,-1.61497509479523,-0.42382699251175,-12.25139808654785,-40.05209350585938,3.32355666160583
422,1480190798,-140.89927673339844,-77.51415252685547,179.56282043457031,11.58135700225830,-1.70172178745270,-0.47599428892136,-9.64956474304199,-39.68651962280273,3.96397876739502
423,1480207465,-142.41166687011719,-76.99697113037109,-179.02436828613281,11.64756011962891,-1.30916190147400,-1.39477407932281,-8.09413909912109,-35.84495162963867,3.26655030250549
424,1480224132,-144.06518554687500,-76.51128387451172,-177.76142883300781,11.43033695220947,-0.06778690963984,-1.39948666095734,-25.47990989685059,-33.64247131347656,2.21375775337219
425,1480240799,-145.82005310058594,-75.98808288574219,-176.46211242675781,12.17991161346436,-1.25403678417206,-1.69764006137848,-29.59519958496094,-36.24699783325195,1.54869008064270
426,1480257466,-147.86526489257812,-75.37107086181641,-175.03547668457031,11.94506168365479,-1.90659308433533,-0.19788646697998,-39.80445480346680,-42.48035812377930,1.21100199222565
427,1480274133,-149.73373413085938,-74.53535461425781,-173.88824462890625,12.42319583892822,-1.73458516597748,1.77408909797668,-45.65522766113281,-52.04542922973633,9.37176513671875
428,1480290800,-151.67736816406250,-73.32836914062500,-172.92266845703125,14.08769798278809,-1.46404576301575,2.53127813339233,-60.96750640869141,-70.90936279296875,20.13411903381348
429,1480307467,-153.35200500488281,-71.69004058837891,-172.27307128906250,17.10232543945312,-1.17533016204834,4.38385963439941,-63.32064056396484,-92.51673126220703,33.65779495239258
430,1480324134,-155.12591552734375,-69.62082672119141,-172.06008911132812,21.03991508483887,-1.02367341518402,7.81297111511230,-94.38767242431641,-113.57004547119141,48.83441925048828
431,1480340801,-156.46951293945312,-67.42645263671875,-172.33866882324219,21.65841674804688,-2.56967687606812,9.20704555511475,-96.19097900390625,-117.51265716552734,58.24964904785156
432,1480357468,-156.86924743652344,-65.52401733398438,-173.40693664550781,14.49960041046143,-2.37601232528687,2.72652316093445,-82.78795623779297,-94.62584686279297,67.39107513427734
433,1480374135,-158.95326232910156,-63.79022979736328,-174.81428527832031,4.59702873229980,-3.23330020904541,1.77655792236328,-201.38182067871094,-82.76342773437500,71.31204223632812
434,1480390802,-161.15823364257812,-63.07450103759766,-176.77362060546875,-6.52250814437866,7.83375930786133,6.92015457153320,-237.47943115234375,-22.39658927917480,62.77635192871094
435,1480407469,-167.25277709960938,-63.26325607299805,-179.16136169433594,-8.90249729156494,2.68014907836914,9.05994129180908,-493.52423095703125,28.55152130126953,57.88288879394531
436,1480424136,-166.64952087402344,-64.63739013671875,177.66943359375000,-10.38749885559082,-7.36478853225708,5.61171340942383,-134.69223022460938,99.17218017578125,61.43200683593750
437,1480440803,-161.20251464843750,-66.87384033203125,173.16508483886719,-11.84081935882568,-3.46646237373352,6.31526231765747,80.24832916259766,159.59059143066406,68.18717193603516
438,1480457470,-152.35717773437500,-69.50104522705078,167.05178833007812,-9.14671516418457,0.75294405221939,2.74424767494202,189.92304992675781,198.41532897949219,61.85279464721680
439,1480474137,-141.82652282714844,-72.23937225341797,158.75834655761719,-5.44705438613892,7.66127347946167,2.03102159500122,161.36705017089844,226.14591979980469,46.49274826049805
440,1480490804,-130.94825744628906,-74.85843658447266,148.46711730957031,-4.78854846954346,6.83084869384766,-1.14685499668121,60.15134048461914,233.82368469238281,17.23560905456543
441,1480507471,-120.78070831298828,-77.05984497070312,137.13716125488281,-0.81463015079498,6.62998151779175,-3.93821501731873,-49.68886566162109,210.50630187988281,-11.27731895446777
442,1480524138,-110.20430755615234,-78.93820190429688,124.48103332519531,2.36894917488098,4.28995275497437,-7.09541034698486,-108.39602661132812,190.53443908691406,-34.50208282470703
443,1480540805,-98.92385101318359,-80.39422607421875,111.28324890136719,2.68230819702148,-2.19499635696411,-11.49230480194092,-102.34627532958984,159.12916564941406,-49.56581878662109
444,1480557472,-84.35414886474609,-81.54949951171875,100.82160186767578,1.79079186916351,-6.92887830734253,-19.91390991210938,254.15653991699219,100.45693969726562,-67.42835235595703
445,1480574139,-76.54644012451172,-83.01776123046875,98.64715576171875,2.12064623832703,3.27208399772644,-17.98846626281738,339.13244628906250,2.77241539955139,-90.99666595458984
446,1480590806,-85.47105407714844,-84.63761138916016,112.20153808593750,3.78915500640869,-4.09877109527588,-17.29804039001465,273.04351806640625,-101.32602691650391,-82.82714843750000
447,1480607473,-135.78962707519531,-82.68549346923828,160.97392272949219,-0.53587532043457,-28.51843643188477,-63.28519439697266,-108.38249969482422,-331.34094238281250,-12.32821655273438
448,1480624140,-154.64378356933594,-77.06437683105469,-178.91564941406250,68.93515014648438,-9.36965084075928,42.75202178955078,58.30570602416992,-392.92681884765625,14.43585395812988
449,1480640807,-159.88723754882812,-73.15151214599609,-172.80229187011719,57.15231323242188,-8.48207378387451,9.68420410156250,40.05803680419922,-252.46855163574219,2.27987027168274
450,1480657474,-162.15188598632812,-71.67471313476562,-163.15451049804688,65.51406860351562,32.90927886962891,2.11613368988037,415.89050292968750,-140.31721496582031,-137.96032714843750
451,1480674141,-173.92117309570312,-68.56419372558594,-157.49955749511719,-6.32847023010254,-26.77462768554688,-28.70116806030273,-386.79986572265625,-206.28507995605469,-75.57223510742188
452,1480690808,-170.03271484375000,-67.74773406982422,-155.13320922851562,-19.83183670043945,16.96901893615723,-5.09734058380127,365.00390625000000,-55.79756546020508,-46.82564926147461
453,1480707475,-171.89424133300781,-66.70709228515625,-155.80265808105469,27.21652603149414,11.84216499328613,-18.23586654663086,-148.75750732421875,-59.11296463012695,23.85153388977051
454,1480724142,-171.83233642578125,-67.19811248779297,-156.37063598632812,18.51509094238281,-0.05658160150051,-13.23343372344971,-27.68762779235840,31.16129684448242,7.74475860595703
455,1480740809,-168.17430114746094,-68.62445068359375,-158.69882202148438,13.28248023986816,4.20047807693481,-12.51130962371826,89.97080230712891,93.48637390136719,35.59240341186523
456,1480757476,-165.19767761230469,-70.91841888427734,-162.24311828613281,20.36778068542480,6.07806539535522,-12.66270351409912,-21.03638839721680,150.90486145019531,38.59566116333008
457,1480774143,-161.89582824707031,-74.29577636718750,-166.45840454101562,23.74848747253418,-2.00471758842468,-11.54576683044434,-43.39601898193359,215.70491027832031,13.90013408660889
458,1480790810,-154.58856201171875,-79.64415740966797,-173.13148498535156,31.07179641723633,-2.30400705337524,-7.80246257781982,47.77656936645508,331.01748657226562,-36.11377716064453
459,1480807477,-127.84683990478516,-86.80340576171875,159.46966552734375,47.60097503662109,2.65710973739624,3.88011860847473,-31.73021125793457,445.45162963867188,-111.89894866943359
460,1480824144,2.46326255798340,-81.97753143310547,27.29631996154785,50.07642745971680,5.25031995773315,13.95248603820801,-100.61184692382812,602.11651611328125,-180.13398742675781
461,1480840811,1.01528954505920,-75.86256408691406,18.54863929748535,10.52386665344238,17.27985191345215,-35.76386260986328,-602.27709960937500,362.94897460937500,-113.37068939208984
462,1480857478,-18.17966461181641,-79.13168334960938,21.83932495117188,-15.80715847015381,-53.38657379150391,-32.74400711059570,-958.68469238281250,-200.65551757812500,11.85446357727051
463,1480874145,-10.58831214904785,-83.49742126464844,18.08170127868652,4.04395151138306,9.88311767578125,-0.83441770076752,232.37112426757812,-244.72149658203125,-99.28548431396484
464,1480890812,-26.40487480163574,-87.90482330322266,29.56642341613770,7.03876924514771,-25.24005126953125,6.10045862197876,-261.23867797851562,-264.54504394531250,-35.12546920776367
465,1480907479,-105.37584686279297,-89.08786010742188,117.61371612548828,7.14796781539917,-4.03683900833130,14.37758350372314,542.92211914062500,-138.77000427246094,6.78917503356934
466,1480924146,-115.43701171875000,-88.50839233398438,134.24357604980469,-0.07178013026714,2.95933151245117,17.21587944030762,393.68258666992188,-31.79532241821289,21.68454360961914
467,1480940813,-75.58601379394531,-88.79325866699219,99.09868621826172,1.18002045154572,7.85750246047974,11.95036888122559,283.50009155273438,52.18954849243164,-11.95072269439697
468,1480957480,-26.60492515563965,-88.18339538574219,50.59937286376953,-0.12946476042271,13.82590675354004,10.69201087951660,30.49363517761230,80.28077697753906,-24.47801399230957
469,1480974147,-19.83805465698242,-86.93069458007812,37.88623046875000,0.07246664911509,3.75130724906921,6.17901515960693,-356.48623657226562,80.90929412841797,-2.42796611785889
470,1480990814,-21.64842796325684,-85.52526092529297,36.03757476806641,-0.31630498170853,-6.85319423675537,0.40937292575836,-219.48884582519531,81.15345764160156,21.55279350280762
471,1481007481,-24.55335235595703,-84.21758270263672,37.37823104858398,-0.48158401250839,-1.29060971736908,1.28314769268036,-94.26113128662109,69.23685455322266,36.02846527099609
472,1481024148,-26.17552375793457,-83.12462615966797,38.79298019409180,-0.58743071556091,4.16498422622681,1.46343266963959,-13.00833797454834,55.22831726074219,35.20774841308594
473,1481040815,-24.93703460693359,-82.33932495117188,37.69421005249023,0.48133492469788,2.82561349868774,0.04827167838812,8.88294219970703,46.15171051025391,11.46720790863037
474,1481057482,-20.55915832519531,-81.73131561279297,34.74240112304688,0.84635174274445,6.44787931442261,0.85964649915695,87.25543975830078,43.19418716430664,-9.86546707153320
475,1481074149,-16.92672348022461,-81.23231506347656,31.26514434814453,1.23618233203888,5.59015178680420,1.15139114856720,11.58802413940430,38.34731292724609,-20.97057914733887
476,1481090816,-14.53521823883057,-80.80311584472656,28.03532028198242,1.47736775875092,2.44435739517212,1.08428764343262,-47.95230865478516,33.06967544555664,-23.45125961303711
477,1481107483,-11.88109207153320,-80.35987091064453,24.64515304565430,0.54908990859985,0.56741189956665,1.13312530517578,-41.44822311401367,33.56913757324219,-27.63693618774414
478,1481124150,-9.43254852294922,-79.98838043212891,21.06094741821289,-0.33454424142838,0.41356277465820,1.72001934051514,-65.01633453369141,28.76339530944824,-33.24913406372070
479,1481140817,-8.03548717498779,-79.70596313476562,18.36886787414551,-0.15008340775967,-1.02704274654388,-0.37303480505943,-75.20368957519531,21.15386772155762,-26.86532592773438
480,1481157484,-7.79877138137817,-79.53546142578125,16.89626693725586,-0.42647194862366,-1.05659592151642,-0.69238317012787,-72.73659515380859,12.41403102874756,-15.64534950256348
481,1481174151,-8.44488430023193,-79.42344665527344,16.49909019470215,-0.43872913718224,-2.05354547500610,0.12429171800613,-62.22526931762695,7.36430311203003,-4.63637876510620
482,1481190818,-7.87449455261230,-79.20599365234375,16.22479438781738,-0.46488255262375,-3.24193000793457,-0.01684539020061,18.02883529663086,13.43759822845459,-2.44957089424133
483,1481207485,-5.36289405822754,-78.96799468994141,15.31526374816895,0.11428726464510,-2.90894269943237,0.63793885707855,97.09824371337891,15.46109962463379,-9.90709686279297
484,1481224152,-1.02670001983643,-78.75412750244141,13.98403072357178,-0.48973208665848,-1.57762825489044,-0.22615127265453,181.79968261718750,13.76467418670654,-15.98772811889648
485,1481240819,3.22967386245728,-78.76015472412109,12.78454589843750,-1.12404847145081,-0.28285425901413,-0.90610569715500,184.79264831542969,-0.53967380523682,-15.31930160522461
486,1481257486,6.12586307525635,-79.08112335205078,12.35863304138184,-1.42932367324829,-1.70701444149017,-1.24755120277405,148.68966674804688,-19.49412918090820,-4.61463451385498
487,1481274153,9.25358676910400,-79.66579437255859,11.92064762115479,-1.20026874542236,-0.01061999611557,-1.54880058765411,161.83720397949219,-35.30180358886719,-1.40159201622009
488,1481290820,11.49284744262695,-80.45912933349609,10.87331199645996,-1.95570564270020,2.17483949661255,-0.86204135417938,72.45559692382812,-48.65020751953125,-3.39789175987244
489,1481307487,12.83286094665527,-81.59375000000000,9.69208812713623,-0.55951404571533,-2.15973496437073,-4.99821949005127,10.39852333068848,-68.71412658691406,2.22811222076416
490,1481324154,14.01725673675537,-83.45207214355469,9.65193462371826,11.64054012298584,-3.61570644378662,-35.57518386840820,68.71158599853516,-108.28856658935547,24.26744079589844
491,1481340821,157.99139404296875,-87.79744720458984,-138.20503234863281,1.89914512634277,-12.28917598724365,-72.86369323730469,-229.31918334960938,-510.74221801757812,35.08696746826172
492,1481357488,-168.65263366699219,-82.80134582519531,-163.98475646972656,63.96130752563477,-28.05017471313477,52.91938400268555,458.15652465820312,-301.35098266601562,97.43118286132812
493,1481374155,-166.21749877929688,-78.92568206787109,-171.74438476562500,37.54417800903320,10.15202617645264,36.79143524169922,-313.59832763671875,-210.06893920898438,121.27661132812500
494,1481390822,-163.30812072753906,-75.99036407470703,-164.44572448730469,99.17574310302734,34.75899505615234,14.62821674346924,601.94177246093750,-194.63482666015625,-46.96361923217773
495,1481407489,-169.73684692382812,-71.70435333251953,-163.39878845214844,22.69544219970703,-7.80037260055542,-22.47936820983887,-325.16085815429688,-254.10588073730469,41.63661956787109
496,1481424156,-168.38162231445312,-69.28608703613281,-163.47904968261719,9.84882164001465,2.76676464080811,-2.10849547386169,76.72587585449219,-142.05117797851562,27.81897354125977
497,1481440823,-168.70233154296875,-68.55599212646484,-164.63072204589844,-9.16491794586182,-9.52889537811279,-24.47962760925293,-83.74784088134766,-37.90907669067383,31.77305030822754
498,1481457490,-164.94372558593750,-69.51783752441406,-166.73185729980469,-14.35225582122803,8.68112850189209,-13.18441867828369,107.72980499267578,66.56900024414062,29.47137451171875
499,1481474157,-163.24398803710938,-70.74977874755859,-169.28839111328125,0.44588029384613,-0.06405996531248,-9.84084129333496,-42.32507705688477,85.47069549560547,28.59901428222656
500,1481490824,-160.57601928710938,-72.20818328857422,-171.30232238769531,7.56860113143921,-5.00245857238770,-4.39533329010010,45.44549942016602,95.21502685546875,8.04163646697998
501,1481507491,-157.79840087890625,-73.64322662353516,-173.41921997070312,10.12737083435059,-5.53202104568481,-1.78155124187469,45.17990112304688,93.84523010253906,2.99277901649475
502,1481524158,-155.51484680175781,-75.03485870361328,-175.86726379394531,9.03520774841309,-2.20900082588196,-1.89581823348999,-4.47127389907837,92.48014831542969,2.04454421997070
503,1481540825,-154.12829589843750,-76.41468048095703,-178.28897094726562,8.77948474884033,-1.65254008769989,-3.12876534461975,-57.67201614379883,90.26628875732422,-4.06595039367676
504,1481557492,-152.83793640136719,-77.82643127441406,179.78906250000000,9.58796405792236,-0.78617322444916,-3.07575964927673,-35.04690933227539,87.37273406982422,-16.08456993103027
505,1481574159,-152.32727050781250,-79.16047668457031,178.82128906250000,9.19718074798584,-1.60055279731750,-2.31536769866943,-26.30714416503906,76.49934387207031,-27.84947776794434
506,1481590826,-151.54124450683594,-80.43468475341797,178.27819824218750,8.39186382293701,-2.36122846603394,-1.75032806396484,15.03034496307373,70.27917480468750,-32.14547729492188
507,1481607493,-150.43200683593750,-81.63712310791016,177.40336608886719,7.37036514282227,-0.09428913146257,-1.12002682685852,14.64115810394287,67.15315246582031,-29.10237693786621
508,1481624160,-149.29739379882812,-82.76094055175781,175.63212585449219,7.25992727279663,0.71735090017319,-1.64169430732727,-37.27130889892578,65.64205169677734,-22.62146949768066
509,1481640827,-147.53933715820312,-83.83731842041016,172.84101867675781,8.67161178588867,0.48704853653908,-0.85655254125595,-60.90341949462891,65.30765533447266,-18.38345146179199
510,1481657494,-143.62258911132812,-84.91959381103516,168.12403869628906,9.37916851043701,-0.60407841205597,-0.52538931369781,-46.72811508178711,69.24971771240234,-14.97147750854492
511,1481674161,-136.52650451660156,-86.00624847412109,161.01612854003906,9.25889587402344,-0.03740042448044,0.04429262131453,0.52395612001419,71.58886718750000,-16.96897697448730
512,1481690828,-125.41510009765625,-86.99599456787109,149.68237304687500,9.41320323944092,-0.16145923733711,0.50944292545319,-12.17628479003906,70.12337493896484,-18.31533050537109
513,1481707495,-105.54897308349609,-87.74301910400391,129.59086608886719,9.98754215240479,-1.40296494960785,0.87156152725220,-12.22620391845703,69.12757110595703,-16.76973915100098
514,1481724162,-77.60304260253906,-87.97774505615234,101.33399963378906,10.48291778564453,0.44352543354034,1.73621034622192,-17.13746833801270,64.11787414550781,-12.98196029663086
515,1481740829,-53.40296173095703,-87.75580596923828,76.65369415283203,12.32293510437012,3.16985249519348,2.79788923263550,-27.50445175170898,56.02926254272461,-12.64011764526367
516,1481757496,-41.15253448486328,-87.20754241943359,64.17675781250000,12.04144573211670,0.28900304436684,1.72506761550903,-12.83809375762939,46.48855972290039,-0.06300135701895
517,1481774163,-36.35008621215820,-86.67369079589844,58.98575973510742,10.51149463653564,1.12578320503235,2.34160947799683,-22.92980003356934,35.38243484497070,5.51128005981445
518,1481790830,-33.50054168701172,-86.27007293701172,55.85675430297852,9.33903408050537,-1.79455947875977,1.39345455169678,-16.45086288452148,26.54659843444824,2.97358703613281
519,1481807497,-31.42708778381348,-85.99977874755859,53.44885635375977,8.82828426361084,-1.76145255565643,1.47017061710358,-19.77132606506348,19.01546287536621,-0.88451135158539
520,1481824164,-29.52621459960938,-85.84730529785156,51.49556350708008,9.18933773040771,-1.17793595790863,1.61249601840973,-2.87564826011658,12.21992874145508,-3.89609670639038
521,1481840831,-28.57090568542480,-85.78490447998047,50.48447036743164,9.51547527313232,0.07200801372528,1.58721232414246,-3.21089148521423,5.55536890029907,-3.36986970901489
522,1481857498,-28.53635215759277,-85.78736877441406,50.54648208618164,9.65833759307861,-0.12033095210791,1.06903135776520,5.76015567779541,-0.12253756821156,-1.12218856811523
523,1481874165,-28.92404174804688,-85.80741119384766,51.22158813476562,9.91157054901123,-0.24820005893707,0.77471131086349,17.11853408813477,-2.33665513992310,0.75033754110336
524,1481890832,-29.32339859008789,-85.82875823974609,51.94361114501953,9.91669273376465,0.03718845918775,0.60963338613510,19.21857643127441,-2.53643536567688,0.84920293092728
525,1481907499,-29.91270446777344,-85.86426544189453,52.56254959106445,9.52707767486572,-0.14473012089729,0.42993384599686,1.65519499778748,-3.03709626197815,0.01002737134695
526,1481924166,-30.41122627258301,-85.91040802001953,53.06989288330078,9.40654850006104,-0.61809015274048,0.39851722121239,0.42981949448586,-3.35299038887024,-0.78361403942108
527,1481940833,-30.60338973999023,-85.93846893310547,53.38445663452148,9.67955684661865,-0.36209806799889,0.41450187563896,7.26698303222656,-1.99972486495972,-0.98879122734070
528,1481957500,-30.63424301147461,-85.96192169189453,53.46178817749023,9.75053596496582,-0.10947541892529,0.39818316698074,2.75689315795898,-1.24006438255310,-1.72528409957886
529,1481974167,-30.57241630554199,-85.98302459716797,53.35374450683594,9.67753887176514,-0.29321494698524,0.44519484043121,-2.78132820129395,-0.71676504611969,-2.32992982864380
530,1481990834,-30.42283439636230,-85.99708557128906,53.15377044677734,9.69973564147949,-0.31940707564354,0.49733424186707,-3.01213717460632,-0.15283741056919,-2.44148612022400
531,1482007501,-30.12972450256348,-85.99801635742188,52.84174728393555,9.86524486541748,-0.21965451538563,0.50551921129227,-1.11689949035645,0.74156457185745,-2.46146392822266
532,1482024168,-29.69205474853516,-85.98736572265625,52.36454772949219,9.92299461364746,-0.24268567562103,0.45253902673721,-2.32562685012817,1.69408833980560,-2.71688675880432
533,1482040835,-29.07996177673340,-85.96473693847656,51.68262863159180,9.83519458770752,-0.34390011429787,0.46082115173340,-4.11318874359131,2.72946858406067,-3.14386296272278
534,1482057502,-28.32956886291504,-85.93297576904297,50.91354370117188,9.88143634796143,-0.32156866788864,0.51800298690796,-1.02852928638458,3.37596583366394,-3.25358152389526
535,1482074169,-27.58914947509766,-85.89663696289062,50.16740036010742,9.81488704681396,-0.14327681064606,0.57998514175415,-0.25203540921211,3.55847549438477,-3.10534167289734
536,1482090836,-26.96915054321289,-85.87052154541016,49.54689788818359,9.64037322998047,-0.32391133904457,0.67156517505646,0.04611567780375,2.75474882125854,-2.96308898925781
537,1482107503,-26.30558967590332,-85.84664154052734,48.98828887939453,9.72921943664551,-0.30156290531158,0.65469932556152,6.36115884780884,2.50346279144287,-2.82609939575195
538,1482124170,-25.71556091308594,-85.83430480957031,48.42489242553711,9.73215770721436,-0.16372986137867,0.68347060680389,1.66693890094757,1.88690066337585,-3.18011808395386
539,1482140837,-25.08695983886719,-85.83528900146484,47.79145050048828,9.60005855560303,-0.36448043584824,0.61013019084930,-0.21870046854019,1.25894117355347,-3.83083462715149
540,1482157504,-24.46104812622070,-85.85324859619141,47.18982315063477,9.59028720855713,-0.31941941380501,0.73187893629074,1.53190839290619,0.26258140802383,-4.12888860702515
541,1482174171,-23.85508346557617,-85.87692260742188,46.66445922851562,9.73214817047119,-0.21551260352135,0.65356796979904,4.90169525146484,-0.21855960786343,-3.95372414588928
542,1482190838,-23.33782386779785,-85.90662384033203,46.16893386840820,9.80812168121338,0.02791521325707,0.66251432895660,1.36315906047821,-0.63354933261871,-3.96373820304871
543,1482207505,-22.95525360107422,-85.93302154541016,45.75656890869141,9.81334781646729,-0.08261636644602,0.56741833686829,-1.74834239482880,-0.62061506509781,-3.54082202911377
544,1482224172,-22.55627632141113,-85.95165252685547,45.34695053100586,9.74349498748779,-0.12364985793829,0.50433087348938,-0.60145658254623,-0.21711246669292,-3.33585572242737
545,1482240839,-22.19714355468750,-85.96541595458984,44.97534561157227,9.65001201629639,0.06401997804642,0.52615255117416,-0.71481847763062,-0.02035569399595,-3.06410503387451
546,1482257506,-21.96773529052734,-85.97075653076172,44.66341781616211,9.74967956542969,-0.09909506887197,0.55869162082672,-4.92752504348755,0.33612188696861,-2.63815975189209
547,1482274173,-21.55585098266602,-85.95040130615234,44.28695297241211,9.87038803100586,-0.33902305364609,0.38564285635948,2.15708875656128,1.86100614070892,-2.32448720932007
548,1482290840,-21.05212974548340,-85.91471862792969,43.82478713989258,9.77509593963623,-0.00581213086843,0.45461684465408,2.53786683082581,2.84200453758240,-2.35839176177979
549,1482307507,-20.62209129333496,-85.86658477783203,43.40799713134766,9.72850131988525,-0.02676848135889,0.52993440628052,0.83503818511963,3.46986818313599,-1.94972229003906
550,1482324174,-20.17383575439453,-85.80096435546875,43.00931167602539,9.80236816406250,-0.22904333472252,0.47482842206955,3.00799417495728,4.42380046844482,-1.56094706058502
551,1482340841,-19.71689605712891,-85.72786712646484,42.63826751708984,9.77247524261475,-0.17556871473789,0.60047054290771,5.18477869033813,4.80400800704956,-1.35490548610687
552,1482357508,-19.29446601867676,-85.65828704833984,42.29379272460938,9.71629333496094,-0.15262113511562,0.70022010803223,4.70781373977661,4.57589530944824,-1.37275123596191
553,1482374175,-18.87764930725098,-85.59544372558594,41.94278335571289,9.83314037322998,-0.23677371442318,0.80643677711487,3.98201346397400,4.21531963348389,-1.58706557750702
554,1482390842,-18.40235137939453,-85.53195953369141,41.52858734130859,9.90349197387695,-0.23987075686455,0.84445160627365,3.71332979202271,4.35374975204468,-1.90660333633423
555,1482407509,-17.94554710388184,-85.46879577636719,41.10253524780273,9.78166770935059,-0.14286328852177,0.76958650350571,1.89893841743469,4.36313629150391,-2.02243661880493
556,1482424176,-17.48288917541504,-85.40095520019531,40.67469406127930,9.77553462982178,-0.18334913253784,0.76998817920685,2.13928771018982,4.61162996292114,-2.01623797416687
557,1482440843,-16.97923851013184,-85.33167266845703,40.26429748535156,9.89000988006592,-0.15177002549171,0.77652394771576,5.64868974685669,4.68198919296265,-1.97169780731201
558,1482457510,-16.55081176757812,-85.27217102050781,39.89258193969727,9.75148010253906,-0.04639739543200,0.84828436374664,3.45219516754150,4.07737541198730,-2.01877379417419
559,1482474177,-16.19342231750488,-85.22878265380859,39.54130172729492,9.65295791625977,-0.27773985266685,0.83210343122482,0.41547647118568,3.12453222274780,-2.23901748657227
560,1482490844,-15.78441333770752,-85.20437622070312,39.15705871582031,9.70940494537354,-0.30259785056114,0.84626352787018,1.54274260997772,2.07706212997437,-2.74138498306274
561,1482507511,-15.34588336944580,-85.19099426269531,38.75526809692383,9.83755207061768,-0.14461074769497,0.87280756235123,2.26187705993652,1.44732916355133,-3.02851009368896
562,1482524178,-14.91630649566650,-85.17664337158203,38.32325363159180,9.83550453186035,-0.12499672174454,0.83917862176895,-0.08197344094515,1.52890515327454,-3.17703747749329
563,1482540845,-14.42326641082764,-85.15721893310547,37.84015655517578,9.78816604614258,-0.20098653435707,0.71626877784729,0.67889666557312,1.88292419910431,-3.36566257476807
564,1482557512,-13.88241863250732,-85.12403869628906,37.31545639038086,9.87378692626953,-0.06940846145153,0.64594483375549,1.05807340145111,2.72250175476074,-3.39847850799561
565,1482574179,-13.35885906219482,-85.07904815673828,36.75497055053711,9.77033996582031,0.02116778492928,0.65479171276093,-2.11866354942322,3.42754340171814,-3.45788741111755
566,1482590846,-12.86136245727539,-85.02397918701172,36.19112777709961,9.79721069335938,-0.12419497221708,0.69194084405899,-3.88081741333008,4.01813364028931,-3.39143586158752
567,1482607513,-12.34603309631348,-84.96518707275391,35.62474822998047,9.83238887786865,-0.11733393371105,0.82324290275574,-2.96211528778076,4.21221351623535,-3.42774128913879
568,1482624180,-11.85974979400635,-84.90911865234375,35.07890319824219,9.76466178894043,-0.01437091175467,0.87505966424942,-3.47294831275940,4.02508783340454,-3.42131304740906
569,1482640847,-11.41248607635498,-84.85924530029297,34.56887817382812,9.77364730834961,-0.14341537654400,0.92295664548874,-3.67125415802002,3.61415696144104,-3.36814022064209
570,1482657514,-11.00629997253418,-84.81961059570312,34.09761047363281,9.78394126892090,-0.10518114268780,0.98117136955261,-3.81603026390076,2.96085405349731,-3.33059239387512
571,1482674181,-10.60027599334717,-84.78940582275391,33.64334869384766,9.74622344970703,-0.06772498041391,0.94175589084625,-2.80346989631653,2.38602805137634,-3.37951231002808
572,1482690848,-10.22700023651123,-84.77101135253906,33.21850585937500,9.71241855621338,-0.08152617514133,0.86664813756943,-3.01953911781311,1.62905776500702,-3.38002538681030
573,1482707515,-9.85731601715088,-84.75947570800781,32.79536437988281,9.76308059692383,-0.11609824001789,0.89365708827972,-3.12567830085754,1.22775781154633,-3.45485305786133
574,1482724182,-9.45162200927734,-84.74383544921875,32.34455108642578,9.82524108886719,-0.04095223546028,0.87693732976913,-2.61759924888611,1.47582948207855,-3.57778048515320
575,1482740849,-9.06950378417969,-84.73121643066406,31.89769363403320,9.79436969757080,-0.03784827142954,0.87914752960205,-3.79940724372864,1.27578151226044,-3.60224056243896
576,1482757516,-8.68685340881348,-84.72170257568359,31.44164848327637,9.74234580993652,-0.06746987998486,0.87324815988541,-4.31209659576416,1.08810448646545,-3.69206476211548
577,1482774183,-8.31357002258301,-84.71390533447266,30.99947357177734,9.78342914581299,-0.05899240449071,0.92105150222778,-4.04143428802490,0.96778869628906,-3.63962292671204
578,1482790850,-7.94083356857300,-84.70339202880859,30.59188079833984,9.82383728027344,-0.05528201162815,0.86418902873993,-2.01580262184143,1.07333838939667,-3.43954849243164
579,1482807517,-7.60020589828491,-84.69403839111328,30.21721458435059,9.77454662322998,0.02580480091274,0.86984258890152,-1.96784329414368,0.97894316911697,-3.27496194839478
580,1482824184,-7.29303026199341,-84.68766021728516,29.87324905395508,9.76850605010986,0.04458701238036,0.86473327875137,-2.14793872833252,0.76195222139359,-3.13770318031311
581,1482840851,-7.02347850799561,-84.68411254882812,29.56688117980957,9.74432182312012,-0.04698393493891,0.90625369548798,-2.15414977073669,0.55717867612839,-2.95455980300903
582,1482857518,-6.75061130523682,-84.68463134765625,29.27921104431152,9.77878379821777,-0.02973579056561,0.93376255035400,-0.83759289979935,0.30385625362396,-2.88216495513916
583,1482874185,-6.48064613342285,-84.68566894531250,28.99969291687012,9.79973411560059,0.00015960901510,0.90578567981720,-0.52718615531921,0.25531381368637,-2.84193396568298
584,1482890852,-6.20602846145630,-84.68651580810547,28.70273017883301,9.78748512268066,-0.00081326306099,0.84373164176941,-1.29349255561829,0.25722193717957,-2.93908286094666
585,1482907519,-5.91852760314941,-84.68625640869141,28.39944839477539,9.77539062500000,-0.01322627719492,0.83891981840134,-0.88756322860718,0.34408101439476,-2.96297311782837
586,1482924186,-5.62455987930298,-84.68164825439453,28.09506225585938,9.78834533691406,-0.00644040480256,0.86006206274033,-0.57221978902817,0.58299630880356,-2.94669628143311
587,1482940853,-5.34458875656128,-84.67535400390625,27.80359077453613,9.80806159973145,0.09396243840456,0.86696785688400,-0.64146369695663,0.66726207733154,-2.86947417259216
588,1482957520,-5.10947847366333,-84.66667175292969,27.52614212036133,9.79028701782227,0.09745733439922,0.84201467037201,-2.49441504478455,0.79838639497757,-2.78205847740173
589,1482974187,-4.90593910217285,-84.65541076660156,27.27203178405762,9.79690361022949,0.07583626359701,0.88442468643188,-2.99577021598816,0.92432385683060,-2.64524745941162
590,1482990854,-4.74003267288208,-84.64580535888672,27.06425666809082,9.74943256378174,-0.01256147213280,0.90417832136154,-2.48395800590515,0.81057155132294,-2.39798903465271
591,1483007521,-4.58081150054932,-84.63768768310547,26.89931488037109,9.79388904571533,0.01177561283112,0.90549242496490,-0.32361650466919,0.70117974281311,-2.16897320747375
592,1483024188,-4.41597461700439,-84.63425445556641,26.72017860412598,9.76352119445801,0.06199074536562,0.93608486652374,-0.83886080980301,0.42077827453613,-2.27346658706665
593,1483040855,-4.28678464889526,-84.63159179687500,26.59049034118652,9.79309368133545,0.02079371735454,0.91053545475006,-0.02088075131178,0.35333997011185,-1.99960255622864
594,1483057522,-4.17495870590210,-84.63663482666016,26.47934532165527,9.77301883697510,0.07595290243626,0.93260771036148,0.04564182087779,-0.11727413535118,-1.93060171604156
595,1483074189,-4.07496070861816,-84.64309692382812,26.39275932312012,9.78863430023193,0.03402866050601,0.89834344387054,0.80151098966599,-0.21402609348297,-1.79741597175598
596,1483090856,-3.99380254745483,-84.65430450439453,26.32015228271484,9.75520420074463,0.04503054916859,0.89987665414810,0.50821352005005,-0.49851271510124,-1.73730909824371
597,1483107523,-3.90504884719849,-84.66575622558594,26.24537658691406,9.78523063659668,0.04016943648458,0.90246737003326,0.83254081010818,-0.52021306753159,-1.74900794029236
598,1483124190,-3.83343434333801,-84.67910766601562,26.19838714599609,9.80979633331299,0.10597939789295,0.91398960351944,1.46349692344666,-0.64087456464767,-1.59950685501099
599,1483140857,-3.79690217971802,-84.68879699707031,26.17508697509766,9.78567409515381,0.08475095778704,0.88883560895920,0.77655780315399,-0.43092086911201,-1.45086979866028
600,1483157524,-3.80206632614136,-84.69906616210938,26.19005012512207,9.78172302246094,0.12066274881363,0.87410104274750,0.56013691425323,-0.47902795672417,-1.24044227600098
601,1483174191,-3.83684563636780,-84.70735168457031,26.23905563354492,9.78238010406494,0.02233985438943,0.85097694396973,0.81223636865616,-0.37964427471161,-1.04499816894531
602,1483190858,-3.85281658172607,-84.71234893798828,26.29540824890137,9.77861118316650,0.03852379694581,0.89607769250870,2.38262152671814,-0.18302194774151,-0.99114114046097
603,1483207525,-3.87997913360596,-84.71768951416016,26.36899375915527,9.78551292419434,0.06639141589403,0.90155971050262,2.73981618881226,-0.21173377335072,-0.89696305990219
604,1483224192,-3.92580485343933,-84.72292327880859,26.45577239990234,9.80612373352051,0.07118256390095,0.87280082702637,2.40776681900024,-0.20846177637577,-0.82430636882782
605,1483240859,-3.96752929687500,-84.72444915771484,26.53252601623535,9.80083370208740,0.09273117035627,0.85685712099075,2.05757689476013,0.02011237293482,-0.86485117673874
606,1483257526,-4.00919961929321,-84.72441101074219,26.61063575744629,9.75055217742920,0.01859569177032,0.83385068178177,2.14179825782776,0.11149208992720,-0.85017520189285
607,1483274193,-4.08844089508057,-84.72203826904297,26.71669387817383,9.76499080657959,0.07366659492254,0.88818395137787,1.55513906478882,0.24131006002426,-0.68568396568298
608,1483290860,-4.14876890182495,-84.72329711914062,26.80553054809570,9.77962970733643,0.00266935583204,0.88805747032166,1.66225135326385,0.02671404369175,-0.79636919498444
609,1483307527,-4.21666860580444,-84.73143768310547,26.90416908264160,9.78523349761963,0.04561864584684,0.94764471054077,1.79617369174957,-0.38134747743607,-0.77231252193451
610,1483324194,-4.28556537628174,-84.74272155761719,27.01422691345215,9.77524852752686,-0.03907076641917,0.91275763511658,2.41408634185791,-0.58745926618576,-0.72622883319855
611,1483340861,-4.33317136764526,-84.75630187988281,27.10937881469727,9.83370304107666,0.04908453300595,0.90338677167892,2.80747222900391,-0.70287013053894,-0.81814008951187
612,1483357528,-4.37994194030762,-84.77123260498047,27.18005180358887,9.77616024017334,0.05120630562305,0.83217644691467,1.38864362239838,-0.78599601984024,-0.96221143007278
613,1483374195,-4.45340108871460,-84.78455352783203,27.26922035217285,9.75457859039307,0.07367567718029,0.85096073150635,0.89218002557755,-0.70504719018936,-0.85585474967957
614,1483390862,-4.52916336059570,-84.79605865478516,27.37161064147949,9.79296398162842,-0.02535027265549,0.85053330659866,1.54847967624664,-0.58770257234573,-0.77636575698853
615,1483407529,-4.58964872360229,-84.80522155761719,27.47427940368652,9.79498100280762,0.01301286276430,0.87539094686508,2.48121118545532,-0.44718495011330,-0.76444953680038
616,1483424196,-4.63793659210205,-84.80906677246094,27.55446624755859,9.79142093658447,0.06138572469354,0.86048918962479,1.86780595779419,-0.12760886549950,-0.86401236057281
617,1483440863,-4.68639230728149,-84.81231689453125,27.62956428527832,9.76424217224121,0.01357605587691,0.79541492462158,1.55145084857941,-0.09652785956860,-0.88844692707062
618,1483457530,-4.73719692230225,-84.81024169921875,27.70504570007324,9.79336929321289,0.03435029089451,0.82349663972855,1.43615543842316,0.23434343934059,-0.85976076126099
619,1483474197,-4.78528404235840,-84.80465698242188,27.78112792968750,9.79410648345947,0.05447081848979,0.85596889257431,1.63047873973846,0.42606723308563,-0.83979558944702
620,1483490864,-4.84827232360840,-84.79911804199219,27.86438560485840,9.78216266632080,0.02100282721221,0.88057059049606,1.17119836807251,0.43014609813690,-0.79947483539581
621,1483507531,-4.93225908279419,-84.79361724853516,27.97186470031738,9.79165649414062,0.03392403572798,0.86169147491455,1.35693526268005,0.41912624239922,-0.66589826345444
622,1483524198,-5.01886796951294,-84.78616333007812,28.06936264038086,9.78575134277344,0.00751704350114,0.86293935775757,0.60342234373093,0.54003101587296,-0.70878654718399
623,1483540865,-5.10091829299927,-84.77587890625000,28.18270301818848,9.79920005798340,0.01885864324868,0.86644762754440,1.82121658325195,0.69386070966721,-0.60684806108475
624,1483557532,-5.18750143051147,-84.76430511474609,28.28893280029297,9.78498744964600,0.03038024343550,0.87088745832443,1.12605583667755,0.77530276775360,-0.63605302572250
625,1483574199,-5.27132749557495,-84.75480651855469,28.39850807189941,9.78468036651611,0.00818447209895,0.85866403579712,1.48903262615204,0.64538878202438,-0.62671071290970
626,1483590866,-5.35817003250122,-84.74857330322266,28.50307655334473,9.76614475250244,-0.00009037851123,0.91386300325394,1.01016497612000,0.45826241374016,-0.66989374160767
627,1483607533,-5.44465732574463,-84.74591827392578,28.62034416198730,9.76590919494629,-0.00342143606395,0.90056276321411,1.78817605972290,0.22354762256145,-0.62156260013580
628,1483624200,-5.52845287322998,-84.74476623535156,28.73161506652832,9.80217170715332,-0.00166124885436,0.90818518400192,1.59426248073578,0.15212661027908,-0.66039139032364
629,1483640867,-5.62132453918457,-84.74521636962891,28.84342765808105,9.78401565551758,0.03485606983304,0.89103877544403,1.08323156833649,0.05433093756437,-0.66632723808289
630,1483657534,-5.71902751922607,-84.74327850341797,28.97086524963379,9.78467750549316,-0.00617126282305,0.86159461736679,1.72707700729370,0.18655009567738,-0.56670016050339
631,1483674201,-5.82489776611328,-84.74122619628906,29.09800910949707,9.75084590911865,0.02705126814544,0.85727381706238,1.21376025676727,0.17959624528885,-0.56830096244812
632,1483690868,-5.93361282348633,-84.73880767822266,29.21543121337891,9.79785633087158,0.00555027369410,0.86841398477554,0.46504980325699,0.21781040728092,-0.61806648969650
633,1483707535,-6.04298496246338,-84.73738861083984,29.32907867431641,9.79894351959229,-0.02209738455713,0.90015643835068,0.20038096606731,0.15329201519489,-0.64452439546585
634,1483724202,-6.12963533401489,-84.73649597167969,29.43229293823242,9.75789356231689,-0.03804942592978,0.89607381820679,0.94235533475876,0.13262255489826,-0.70372813940048
635,1483740869,-6.22260189056396,-84.73757171630859,29.54413032531738,9.76788997650146,0.01372632570565,0.86523628234863,1.07691156864166,0.00563479401171,-0.66963762044907
636,1483757536,-6.32765102386475,-84.73813629150391,29.65493965148926,9.80951595306396,0.00493873097003,0.86053228378296,0.28868070244789,0.03621635213494,-0.67317211627960
637,1483774203,-6.43058443069458,-84.73623657226562,29.76117706298828,9.79934406280518,-0.03502179682255,0.87950021028519,0.14809902012348,0.18975807726383,-0.67955613136292
638,1483790870,-6.53496074676514,-84.73214721679688,29.87279510498047,9.78727817535400,0.04863284155726,0.85459911823273,0.37895268201828,0.30940142273903,-0.63527822494507
639,1483807537,-6.65047693252563,-84.72746276855469,29.98291587829590,9.76595020294189,-0.04269633814692,0.85500681400299,-0.38041898608208,0.34292843937874,-0.64010620117188
640,1483824204,-6.73614120483398,-84.72166442871094,30.07698822021484,9.79009819030762,-0.01629099063575,0.89902013540268,0.45283257961273,0.42543977499008,-0.71775108575821
641,1483840871,-6.82772111892700,-84.72010040283203,30.15970039367676,9.76494789123535,-0.01797889173031,0.93119168281555,-0.58071672916412,0.17330193519592,-0.80931007862091
642,1483857538,-6.92952919006348,-84.72307586669922,30.26976966857910,9.78621292114258,-0.06155725568533,0.90963333845139,0.44314450025558,-0.10749649256468,-0.69073605537415
643,1483874205,-7.02524948120117,-84.72909545898438,30.38088035583496,9.77333641052246,-0.00396635942161,0.89627420902252,0.86791837215424,-0.29436674714088,-0.70837044715881
644,1483890872,-7.11845970153809,-84.73667907714844,30.49260520935059,9.77486324310303,-0.04412475973368,0.88051944971085,1.05447494983673,-0.39299488067627,-0.71880120038986
645,1483907539,-7.20816183090210,-84.74279022216797,30.60472297668457,9.79763984680176,0.00539468368515,0.86967223882675,1.29034233093262,-0.30510494112968,-0.70712178945541
646,1483924206,-7.32276725769043,-84.75114440917969,30.71980667114258,9.78193569183350,-0.01263474021107,0.87813770771027,-0.02353166602552,-0.43283540010452,-0.70676320791245
647,1483940873,-7.42396926879883,-84.76097869873047,30.83848953247070,9.78242874145508,-0.07673655450344,0.87307703495026,0.98899590969086,-0.54107469320297,-0.70441961288452
648,1483957540,-7.52490234375000,-84.77108764648438,30.95830154418945,9.77315998077393,-0.06030127778649,0.85420399904251,1.07638657093048,-0.54783642292023,-0.70023202896118
649,1483974207,-7.59368991851807,-84.78102111816406,31.05207633972168,9.79903507232666,-0.00251495372504,0.86082994937897,1.45113873481750,-0.51182502508163,-0.84160137176514
650,1483990874,-7.67642831802368,-84.78890991210938,31.14317321777344,9.78475570678711,-0.02439034916461,0.84460586309433,0.44783160090446,-0.41214677691460,-0.84512943029404
651,1484007541,-7.77299594879150,-84.79594421386719,31.24874687194824,9.80152320861816,-0.03824257105589,0.84733599424362,0.48920252919197,-0.35193768143654,-0.75716900825500
652,1484024208,-7.86261177062988,-84.79933929443359,31.35765457153320,9.79892063140869,-0.01708745211363,0.83537614345551,1.10517513751984,-0.13941632211208,-0.71147602796555
653,1484040875,-7.97282028198242,-84.80317687988281,31.47023963928223,9.77101325988770,-0.01174784079194,0.86204117536545,0.08572569489479,-0.18285547196865,-0.69736331701279
654,1484057542,-8.07640361785889,-84.80710601806641,31.57987785339355,9.77684974670410,-0.07604804635048,0.82042127847672,0.31107899546623,-0.17851409316063,-0.71406280994415
655,1484074209,-8.15149021148682,-84.80824279785156,31.66799163818359,9.79050922393799,-0.04076886922121,0.85068428516388,0.73512285947800,0.00610862858593,-0.80662709474564
656,1484090876,-8.24312591552734,-84.80864715576172,31.76030158996582,9.77179336547852,-0.02356005273759,0.86656868457794,-0.01191630773246,0.03765066340566,-0.77932387590408
657,1484107543,-8.34409236907959,-84.80695343017578,31.86187362670898,9.77910709381104,-0.05699400231242,0.87007695436478,-0.01299844589084,0.16451676189899,-0.70890825986862
658,1484124210,-8.39978694915771,-84.80495452880859,31.92770195007324,9.78232383728027,-0.08610662072897,0.87288337945938,0.56218600273132,0.19419549405575,-0.90109962224960
659,1484140877,-8.44307708740234,-84.80431365966797,31.98600196838379,9.77015590667725,-0.04394468292594,0.85662263631821,0.86255884170532,0.13304518163204,-0.95139008760452
660,1484157544,-8.50156688690186,-84.80397033691406,32.05192947387695,9.78807353973389,-0.06556740403175,0.86084139347076,0.40077465772629,0.10592131316662,-0.91367536783218
661,1484174211,-8.55102825164795,-84.80348968505859,32.11155700683594,9.81305027008057,-0.02217531390488,0.87041920423508,0.56536185741425,0.11172259598970,-0.94698470830917
662,1484190878,-8.61646652221680,-84.80582427978516,32.17770385742188,9.77921867370605,-0.04577612131834,0.89162451028824,-0.00128703808878,-0.05928699672222,-0.93653476238251
663,1484207545,-8.67797470092773,-84.80955505371094,32.24866485595703,9.76157093048096,-0.08450538665056,0.86815643310547,0.52312654256821,-0.13716240227222,-0.92194831371307
664,1484224212,-8.71285247802734,-84.81156158447266,32.29565429687500,9.82332420349121,-0.04216910153627,0.85445475578308,0.68789315223694,-0.02597768232226,-1.03728234767914
665,1484240879,-8.75122737884521,-84.81204986572266,32.33774566650391,9.80174827575684,-0.01289155613631,0.89562761783600,0.18475720286369,0.06811697036028,-1.04958915710449
666,1484257546,-8.80871677398682,-84.81333923339844,32.39093399047852,9.76259708404541,-0.04724239930511,0.85647165775299,-0.29848399758339,0.01991387456656,-0.99546957015991
667,1484274213,-8.85355567932129,-84.81514739990234,32.44678497314453,9.79586315155029,-0.09491332620382,0.84123396873474,0.62283682823181,-0.01630888693035,-0.98640269041061
668,1484290880,-8.87010765075684,-84.81481170654297,32.47395324707031,9.78745651245117,-0.06861945986748,0.85881823301315,0.60545855760574,0.13510698080063,-1.12040817737579
669,1484307547,-8.88376522064209,-84.81435394287109,32.49158096313477,9.77910804748535,-0.04942201077938,0.84382271766663,0.20797511935234,0.15453422069550,-1.17048108577728
670,1484324214,-8.90549373626709,-84.81431579589844,32.51830291748047,9.78632450103760,-0.05103380233049,0.84872102737427,0.26529633998871,0.11041634529829,-1.12717008590698
671,1484340881,-8.92031097412109,-84.81491851806641,32.53022384643555,9.78321933746338,-0.04054144397378,0.87052613496780,-0.20580446720123,0.08932429552078,-1.21155118942261
672,1484357548,-8.94339370727539,-84.81496429443359,32.55417251586914,9.77122592926025,-0.08387123048306,0.86002576351166,0.01744224876165,0.10899484157562,-1.14179491996765
673,1484374215,-8.95075130462646,-84.81692504882812,32.56476593017578,9.77798652648926,-0.02866096980870,0.88237553834915,0.16959449648857,0.01878691837192,-1.22940325737000
674,1484390882,-8.97758388519287,-84.82077789306641,32.59426498413086,9.79071521759033,-0.08552801609039,0.89136952161789,0.12158349156380,-0.12377977371216,-1.14845430850983
675,1484407549,-9.00832462310791,-84.82536315917969,32.63323593139648,9.77925109863281,-0.05637362599373,0.88437771797180,0.45890274643898,-0.16929355263710,-1.10300457477570
676,1484424216,-9.04440689086914,-84.83206939697266,32.67266082763672,9.78374767303467,-0.08382884413004,0.86070907115936,0.16369076073170,-0.29277235269547,-1.11979365348816
677,1484440883,-9.07733249664307,-84.84143829345703,32.71219635009766,9.76603507995605,-0.08029010146856,0.86725240945816,0.36145925521851,-0.44466850161552,-1.14476621150970
