sep=,
DeviceTag:,Xsens_DOT_2
FirmwareVersion:,3.0.0
AppVersion:,2023.6.0
StartTime: ,2025-04-09_10:46:58_000 CEST
© Movella Technologies B. V. 2005-2025

PacketCounter,SampleTimeFine,Euler_X,Euler_Y,Euler_Z,Acc_X,Acc_Y,Acc_Z,Gyr_X,Gyr_Y,Gyr_Z
0,1473173991,35.50753402709961,-86.58711242675781,9.15567874908447,0.00000000000000,0.00000000000000,0.00000000000000,0.00000000000000,0.00000000000000,0.00000000000000
1,1473190658,35.44137954711914,-86.57572174072266,9.21099090576172,9.81905269622803,0.20534940063953,0.48416841030121,-0.10496083647013,-0.26834422349930,0.38703989982605
2,1473207325,35.36354446411133,-86.56658172607422,9.27989864349365,9.78765773773193,0.18832308053970,0.47168385982513,-0.00783748552203,-0.36603108048439,0.51707559823990
3,1473223992,35.25468826293945,-86.55934906005859,9.37919998168945,9.79721641540527,0.17828465998173,0.48063153028488,-0.02878867462277,-0.37780010700226,0.66194093227386
4,1473240659,35.19642257690430,-86.55223846435547,9.43039608001709,9.80200958251953,0.16037149727345,0.53417438268661,0.08901052922010,-0.49730896949768,0.53401833772659
5,1473257326,35.24148941040039,-86.54747772216797,9.38339519500732,9.77561855316162,0.16811552643776,0.51908344030380,0.40740194916725,-0.81310075521469,0.32384055852890
6,1473273993,35.35251998901367,-86.54475402832031,9.26787757873535,9.78679275512695,0.14508372545242,0.52318876981735,0.28788033127785,-1.04424250125885,0.18504534661770
7,1473290660,35.51986312866211,-86.54810333251953,9.09463691711426,9.78399753570557,0.15987926721573,0.47867810726166,0.20330719649792,-1.48040115833282,0.24009983241558
8,1473307327,35.66057586669922,-86.55127716064453,8.94914627075195,9.79269313812256,0.16848364472389,0.48328739404678,0.25767016410828,-1.41665136814117,0.31815460324287
9,1473323994,35.78372955322266,-86.55678558349609,8.82504940032959,9.79550743103027,0.17696978151798,0.48833310604095,0.48897841572762,-1.47411322593689,0.45554107427597
10,1473340661,35.89674377441406,-86.56487274169922,8.71664619445801,9.79325485229492,0.15629212558270,0.49576246738434,0.77409893274307,-1.57387447357178,0.59466922283173
11,1473357328,36.05659484863281,-86.57457733154297,8.56667327880859,9.83505535125732,0.15081200003624,0.46099945902824,1.15981352329254,-1.72431099414825,0.52798658609390
12,1473373995,36.19710922241211,-86.58013153076172,8.43145370483398,9.85490036010742,0.16243399679661,0.47708970308304,0.88012278079987,-1.50787079334259,0.43944346904755
13,1473390662,36.35077667236328,-86.58797454833984,8.27865600585938,9.79254627227783,0.17178866267204,0.47418656945229,0.66407966613770,-1.64520609378815,0.46825775504112
14,1473407329,36.47877502441406,-86.59745788574219,8.15424823760986,9.81244945526123,0.19623595476151,0.44210448861122,0.78093761205673,-1.66875696182251,0.61044669151306
15,1473423996,36.48907089233398,-86.60356140136719,8.14557266235352,9.81363487243652,0.19144885241985,0.46708089113235,0.66895890235901,-1.25471484661102,0.82027870416641
16,1473440663,36.52903747558594,-86.61123657226562,8.10755920410156,9.79125499725342,0.17616802453995,0.47640004754066,0.63859510421753,-1.40609896183014,0.79845672845840
17,1473457330,36.54192352294922,-86.61892700195312,8.09715747833252,9.80313110351562,0.14816492795944,0.44508022069931,0.67628413438797,-1.34150373935699,0.87273359298706
18,1473473997,36.51007843017578,-86.62188720703125,8.13194561004639,9.81519412994385,0.17607261240482,0.47977569699287,0.70480382442474,-1.01764380931854,0.83352041244507
19,1473490664,36.46571350097656,-86.62873077392578,8.17030239105225,9.79016399383545,0.17906899750233,0.50450265407562,0.18969404697418,-1.19320595264435,0.97944879531860
20,1473507331,36.49582672119141,-86.64187622070312,8.13063812255859,9.79959774017334,0.15448568761349,0.47483471035957,0.00509052351117,-1.66138041019440,0.98572397232056
21,1473523998,36.53311157226562,-86.64952850341797,8.09051609039307,9.83477401733398,0.14670577645302,0.43031620979309,0.36510261893272,-1.40740501880646,0.79309076070786
22,1473540665,36.57287597656250,-86.65286254882812,8.04847812652588,9.81701946258545,0.15892696380615,0.47431635856628,0.38581049442291,-1.19202780723572,0.62464892864227
23,1473557332,36.63095092773438,-86.65935516357422,7.98772859573364,9.80567169189453,0.15154437720776,0.50189858675003,0.38172531127930,-1.38247120380402,0.68615782260895
24,1473573999,36.67501831054688,-86.66822052001953,7.93851900100708,9.80243206024170,0.17914925515652,0.48762264847755,0.25318792462349,-1.47340893745422,0.80734431743622
25,1473590666,36.71360778808594,-86.67899322509766,7.89548635482788,9.80355834960938,0.17421318590641,0.47852611541748,0.28916096687317,-1.55691909790039,0.89725762605667
26,1473607333,36.76447296142578,-86.68660736083984,7.84114456176758,9.83468055725098,0.16399997472763,0.40495645999908,0.36899578571320,-1.42327213287354,0.75186729431152
27,1473624000,36.71652603149414,-86.68294525146484,7.88551998138428,9.83638572692871,0.17724081873894,0.46093279123306,0.32925763726234,-0.67246133089066,0.61503130197525
28,1473640667,36.74174499511719,-86.68318176269531,7.85929489135742,9.81131076812744,0.14624603092670,0.45944133400917,0.47638985514641,-1.01208591461182,0.56305038928986
29,1473657334,36.79466629028320,-86.68808746337891,7.80793094635010,9.82026958465576,0.13617850840092,0.47267642617226,0.64589452743530,-1.29107201099396,0.66391313076019
30,1473674001,36.78896331787109,-86.69074249267578,7.81428050994873,9.79512977600098,0.15116252005100,0.44140380620956,0.57036286592484,-1.06651282310486,0.74496459960938
31,1473690668,36.77006530761719,-86.69405364990234,7.83275794982910,9.77842617034912,0.17381829023361,0.45004269480705,0.49460047483444,-1.07324898242950,0.80129969120026
32,1473707335,36.76051712036133,-86.69886016845703,7.84042739868164,9.78995037078857,0.16887089610100,0.47789931297302,0.45303103327751,-1.15559387207031,0.81956154108047
33,1473724002,36.74896621704102,-86.70271301269531,7.85223293304443,9.80089569091797,0.14322182536125,0.49042961001396,0.57380771636963,-1.10814619064331,0.80133819580078
34,1473740669,36.76682281494141,-86.70901489257812,7.83712148666382,9.80405521392822,0.12285131216049,0.51650357246399,0.70915800333023,-1.28212058544159,0.81408035755157
35,1473757336,36.80220413208008,-86.71759033203125,7.81082677841187,9.81567573547363,0.15390917658806,0.46089756488800,1.09363019466400,-1.41848254203796,0.86936545372009
36,1473774003,36.76248168945312,-86.72159576416016,7.85337543487549,9.80564117431641,0.17100159823895,0.44288858771324,0.71547156572342,-1.04276978969574,0.88187724351883
37,1473790670,36.75123214721680,-86.72702789306641,7.86629247665405,9.77108192443848,0.18777970969677,0.44984742999077,0.65425717830658,-1.17938792705536,0.85882592201233
38,1473807337,36.72852325439453,-86.73181915283203,7.88577270507812,9.79201126098633,0.20525646209717,0.46453490853310,0.38278821110725,-1.13705015182495,0.85703301429749
39,1473824004,36.68032073974609,-86.74027252197266,7.93203210830688,9.80291938781738,0.16308543086052,0.42908757925034,0.42209091782570,-1.26266777515411,1.06129419803619
40,1473840671,36.65565109252930,-86.74671173095703,7.95870208740234,9.80631446838379,0.16931970417500,0.48328909277916,0.67080301046371,-1.19607472419739,0.92823624610901
41,1473857338,36.67625808715820,-86.75411987304688,7.93659973144531,9.78285980224609,0.14342655241489,0.49021267890930,0.41201227903366,-1.34686946868896,0.82883334159851
42,1473874005,36.73996353149414,-86.76275634765625,7.87058353424072,9.78345489501953,0.12703561782837,0.48815333843231,0.38020133972168,-1.49982857704163,0.75994807481766
43,1473890672,36.83007049560547,-86.77232360839844,7.77767801284790,9.82190227508545,0.13287866115570,0.47016167640686,0.41342097520828,-1.59627294540405,0.72499942779541
44,1473907339,36.88173294067383,-86.77803039550781,7.72716712951660,9.84700679779053,0.14600870013237,0.48605218529701,0.62750470638275,-1.32485532760620,0.70078271627426
45,1473924006,36.93189620971680,-86.78283691406250,7.68115234375000,9.82232761383057,0.15343210101128,0.48185375332832,0.80982869863510,-1.26266765594482,0.67239093780518
46,1473940673,37.01530075073242,-86.79118347167969,7.60757732391357,9.81685829162598,0.14554065465927,0.52141124010086,1.13922083377838,-1.48633050918579,0.72533249855042
47,1473957340,37.11364364624023,-86.79943084716797,7.51395273208618,9.80725288391113,0.16689185798168,0.49478885531425,0.82506829500198,-1.54494512081146,0.68766897916794
48,1473974007,37.22699356079102,-86.80984497070312,7.40161895751953,9.83412742614746,0.14318697154522,0.47254243493080,0.63303691148758,-1.66842365264893,0.70625084638596
49,1473990674,37.25825500488281,-86.81463623046875,7.37454271316528,9.84247016906738,0.15750849246979,0.45958080887794,0.82253265380859,-1.22555482387543,0.72991710901260
50,1474007341,37.23275756835938,-86.81586456298828,7.40627717971802,9.82637786865234,0.15846803784370,0.46775808930397,0.90427553653717,-0.94929617643356,0.76273977756500
51,1474024008,37.16413879394531,-86.81427001953125,7.47915697097778,9.82440853118896,0.16321952641010,0.48866632580757,0.81060993671417,-0.71666896343231,0.75907713174820
52,1474040675,37.11763381958008,-86.81205749511719,7.53227138519287,9.82117748260498,0.15753869712353,0.49178230762482,0.93179643154144,-0.73399585485458,0.68869340419769
53,1474057342,37.10673904418945,-86.81040191650391,7.54513263702393,9.80255889892578,0.15090864896774,0.47346073389053,0.63949149847031,-0.84812623262405,0.60627180337906
54,1474074009,37.14919281005859,-86.81137847900391,7.50412559509277,9.78624153137207,0.13994434475899,0.47381955385208,0.63134670257568,-1.07314658164978,0.55357372760773
55,1474090676,37.13478088378906,-86.80947875976562,7.51975297927856,9.82597064971924,0.16167256236076,0.46609520912170,0.62744069099426,-0.81691706180573,0.59638535976410
56,1474107343,37.13529968261719,-86.80677795410156,7.51965332031250,9.79656410217285,0.14640811085701,0.48762056231499,0.62900310754776,-0.81731402873993,0.53526055812836
57,1474124010,37.16881942749023,-86.80831146240234,7.48844432830811,9.81028556823730,0.13706041872501,0.48835137486458,0.69010221958160,-1.09341895580292,0.60989606380463
58,1474140677,37.23646163940430,-86.81082916259766,7.42475700378418,9.81732749938965,0.15784563124180,0.47656768560410,0.76103651523590,-1.18918478488922,0.54404568672180
59,1474157344,37.28245925903320,-86.81383514404297,7.38382482528687,9.81663513183594,0.14660096168518,0.47250422835350,0.85221779346466,-1.16736292839050,0.62422627210617
60,1474174011,37.40602874755859,-86.81801605224609,7.27200174331665,9.79814052581787,0.14823056757450,0.45578896999359,1.25734663009644,-1.37075328826904,0.48397120833397
61,1474190678,37.48555755615234,-86.81937408447266,7.20025682449341,9.80998516082764,0.15132816135883,0.46152234077454,1.04412102699280,-1.14697515964508,0.48308748006821
62,1474207345,37.56376647949219,-86.82405090332031,7.12651729583740,9.81540870666504,0.15645718574524,0.44235140085220,0.82567024230957,-1.32298552989960,0.60924291610718
63,1474224012,37.63017654418945,-86.83028411865234,7.06416225433350,9.81171798706055,0.16977937519550,0.44209182262421,0.77677553892136,-1.38606989383698,0.70538014173508
64,1474240679,37.65839004516602,-86.83560180664062,7.04613876342773,9.78746795654297,0.13901461660862,0.47497355937958,1.09921383857727,-1.22965300083160,0.76701712608337
65,1474257346,37.75373458862305,-86.84489440917969,6.95722293853760,9.76667881011963,0.15382891893387,0.46015596389771,0.93146342039108,-1.56588351726532,0.73480904102325
66,1474274013,37.92718887329102,-86.85601806640625,6.78738164901733,9.78231430053711,0.15899686515331,0.39760968089104,0.79464036226273,-1.81162464618683,0.59438753128052
67,1474290680,38.04564666748047,-86.86350250244141,6.67073440551758,9.80174541473389,0.14746223390102,0.42085981369019,0.68088155984879,-1.53595519065857,0.60441488027573
68,1474307347,38.14895248413086,-86.86994171142578,6.56903982162476,9.80924606323242,0.12587283551693,0.43440452218056,0.65247714519501,-1.46386837959290,0.61200904846191
69,1474324014,38.19774627685547,-86.87287902832031,6.52596330642700,9.86178016662598,0.12165936082602,0.43785288929939,0.88761448860168,-1.16471195220947,0.62139612436295
70,1474340681,38.24449920654297,-86.87544250488281,6.49019956588745,9.83447456359863,0.15139152109623,0.46619170904160,1.24141561985016,-1.14002144336700,0.63449704647064
71,1474357348,38.25464248657227,-86.88027191162109,6.48537969589233,9.85369586944580,0.18386374413967,0.38930863142014,0.86832809448242,-1.19027340412140,0.80153024196625
72,1474374015,38.20414733886719,-86.88215637207031,6.54203891754150,9.85530090332031,0.16788238286972,0.37932091951370,0.91846501827240,-0.92086631059647,0.84411138296127
73,1474390682,38.13942337036133,-86.87927246093750,6.60861682891846,9.82093048095703,0.17188493907452,0.40628978610039,0.68125295639038,-0.67392134666443,0.69326525926590
74,1474407349,37.98015975952148,-86.87332153320312,6.76504087448120,9.76852989196777,0.17443197965622,0.43123820424080,0.38112336397171,-0.33722960948944,0.80126130580902
75,1474424016,37.83543014526367,-86.86988067626953,6.90535926818848,9.74012660980225,0.14428205788136,0.44508409500122,0.23866552114487,-0.50627344846725,0.86510086059570
76,1474440683,37.76269912719727,-86.86893463134766,6.97771310806274,9.76414489746094,0.13984343409538,0.45929172635078,0.49493345618248,-0.75945502519608,0.78211581707001
77,1474457350,37.75070571899414,-86.86581420898438,6.98856830596924,9.78932666778564,0.10884448140860,0.45918738842010,0.45264682173729,-0.77801126241684,0.54072892665863
78,1474474017,37.77148056030273,-86.86076354980469,6.96850299835205,9.80336666107178,0.12717904150486,0.47034776210785,0.59530955553055,-0.74726325273514,0.39209839701653
79,1474490684,37.78136825561523,-86.85982513427734,6.95982503890991,9.81215476989746,0.13649445772171,0.45239108800888,0.63123142719269,-0.91954720020294,0.57367962598801
80,1474507351,37.79445648193359,-86.86325073242188,6.94642257690430,9.83022975921631,0.15045024454594,0.49538663029671,0.54162538051605,-1.12922561168671,0.71486967802048
81,1474524018,37.84992218017578,-86.87225341796875,6.89842367172241,9.81688594818115,0.13519716262817,0.50486081838608,1.00479257106781,-1.46928536891937,0.83733677864075
82,1474540685,37.96500396728516,-86.88172149658203,6.79429721832275,9.82629871368408,0.13351711630821,0.46672061085701,1.21627664566040,-1.59902656078339,0.70538020133972
83,1474557352,38.06531906127930,-86.88504791259766,6.70200157165527,9.83762168884277,0.13313864171505,0.45180186629295,1.01546037197113,-1.29082894325256,0.51430946588516
84,1474574019,38.15707015991211,-86.88674163818359,6.61360502243042,9.83484745025635,0.14253105223179,0.47391164302826,0.76546758413315,-1.20827913284302,0.47072944045067
85,1474590686,38.17451858520508,-86.88819122314453,6.59610462188721,9.81346511840820,0.15462151169777,0.46390217542648,0.58136337995529,-1.04118192195892,0.63321638107300
86,1474607353,38.13315200805664,-86.88819122314453,6.63577032089233,9.80934524536133,0.17583331465721,0.51543509960175,0.43505087494850,-0.86821925640106,0.73167151212692
87,1474624020,38.08020401000977,-86.88586425781250,6.68640279769897,9.80533313751221,0.16194246709347,0.49030429124832,0.38378712534904,-0.74143648147583,0.67551583051682
88,1474640687,38.11709594726562,-86.88272857666016,6.65056180953979,9.80671787261963,0.16265471279621,0.46482825279236,0.61385309696198,-0.86401879787445,0.41553401947021
89,1474657354,38.19984817504883,-86.88291168212891,6.56447505950928,9.82189178466797,0.16124150156975,0.47971493005753,0.35424286127090,-1.13324677944183,0.41910701990128
90,1474674021,38.22725677490234,-86.88071441650391,6.53575706481934,9.83000469207764,0.13031543791294,0.43388524651527,0.44165897369385,-0.89618825912476,0.46769428253174
91,1474690688,38.13579559326172,-86.87375640869141,6.62376451492310,9.82414913177490,0.13665403425694,0.48349964618683,0.37069901823997,-0.43361020088196,0.59328621625900
92,1474707355,38.05087661743164,-86.87162780761719,6.70249843597412,9.79862403869629,0.15206705033779,0.50030070543289,0.16937038302422,-0.68948101997375,0.75455653667450
93,1474724022,37.95721817016602,-86.87174987792969,6.78755331039429,9.81504917144775,0.16774520277977,0.51408922672272,0.01030270755291,-0.78400474786758,0.85338312387466
94,1474740689,37.89762878417969,-86.87225341796875,6.84027719497681,9.82744216918945,0.15945151448250,0.50484788417816,0.10331522673368,-0.86189293861389,0.77891421318054
95,1474757356,37.82197189331055,-86.87043762207031,6.91218948364258,9.83274173736572,0.14248147606850,0.46823936700821,0.31100857257843,-0.71807760000229,0.74846065044403
96,1474774023,37.73845291137695,-86.86212921142578,6.98645639419556,9.78983211517334,0.15287931263447,0.50227481126785,-0.01991387456656,-0.39954528212547,0.51208108663559
97,1474790690,37.74319076538086,-86.85919189453125,6.97431850433350,9.78795433044434,0.14662820100784,0.47713693976402,0.13091289997101,-0.83037644624710,0.49161651730537
98,1474807357,37.76559066772461,-86.85900878906250,6.95032739639282,9.80540084838867,0.12611344456673,0.49313300848007,0.43708714842796,-0.98231106996536,0.55447012186050
99,1474824024,37.79798889160156,-86.86038208007812,6.91739368438721,9.81152725219727,0.13462139666080,0.49114429950714,0.50174635648727,-1.08519721031189,0.59883129596710
100,1474840691,37.79924392700195,-86.86069488525391,6.91902399063110,9.81642246246338,0.14557141065598,0.47588676214218,0.70567470788956,-0.95235699415207,0.63868468999863
101,1474857358,37.77305221557617,-86.86144256591797,6.94606018066406,9.78740119934082,0.13899306952953,0.44746851921082,0.57699644565582,-0.93354451656342,0.72912311553955
102,1474874025,37.76372528076172,-86.86062622070312,6.95784235000610,9.83731269836426,0.12400197982788,0.43555909395218,0.70000141859055,-0.89151400327682,0.63589286804199
103,1474890692,37.72710418701172,-86.85633087158203,6.99916744232178,9.82764625549316,0.12873166799545,0.52529096603394,0.86658656597137,-0.64838546514511,0.57101595401764
104,1474907359,37.77951812744141,-86.85552215576172,6.95578336715698,9.83877182006836,0.14905241131783,0.53146708011627,1.11524748802185,-0.99997109174728,0.49271795153618
105,1474924026,37.77160263061523,-86.85795593261719,6.97389459609985,9.84115886688232,0.16624011099339,0.47902882099152,1.17360603809357,-1.02083265781403,0.76206111907959
106,1474940693,37.70028686523438,-86.85957336425781,7.04897642135620,9.83459281921387,0.18379905819893,0.43516829609871,0.76793920993805,-0.86855232715607,0.87991797924042
107,1474957360,37.61454772949219,-86.86076354980469,7.13274908065796,9.80647373199463,0.16329631209373,0.43262198567390,0.38169965147972,-0.85187846422195,0.90026730298996
108,1474974027,37.47365188598633,-86.85639190673828,7.27216053009033,9.80216598510742,0.19273412227631,0.43967902660370,0.41553401947021,-0.44569936394691,0.81716674566269
109,1474990694,37.32382583618164,-86.84999084472656,7.41865539550781,9.81443405151367,0.18189509212971,0.46378540992737,0.33728721737862,-0.34445238113403,0.77504664659500
110,1475007361,37.21406555175781,-86.84706878662109,7.52133035659790,9.78880500793457,0.16372701525688,0.48352324962616,0.09838479012251,-0.61210519075394,0.79741948843002
111,1475024028,37.15130996704102,-86.84706878662109,7.57640027999878,9.78258037567139,0.12355953454971,0.48909702897072,0.09446602314711,-0.83183634281158,0.77007776498795
112,1475040695,37.16777420043945,-86.84960937500000,7.55383348464966,9.77092170715332,0.12918524444103,0.48794156312943,0.18521185219288,-1.11316645145416,0.66194105148315
113,1475057362,37.21065521240234,-86.85433959960938,7.50948572158813,9.80567359924316,0.16410426795483,0.43991920351982,0.45449092984200,-1.25854396820068,0.68072789907455
114,1475074029,37.23424530029297,-86.85795593261719,7.48101234436035,9.80639076232910,0.15859374403954,0.48143389821053,0.25125417113304,-1.17773592472076,0.68620902299881
115,1475090696,37.29072570800781,-86.86875152587891,7.41776037216187,9.79500293731689,0.13904920220375,0.52242577075958,0.14578108489513,-1.59166276454926,0.85919725894928
116,1475107363,37.42619705200195,-86.88642883300781,7.28045558929443,9.80135345458984,0.13381360471249,0.48620247840881,0.48828691244125,-2.05525279045105,0.91414934396744
117,1475124030,37.54508972167969,-86.89877319335938,7.16693019866943,9.83549594879150,0.13673070073128,0.42045420408249,0.85912042856216,-1.76389551162720,0.79013258218765
118,1475140697,37.66365051269531,-86.90458679199219,7.05017423629761,9.81294059753418,0.14190521836281,0.48308768868446,0.64521592855453,-1.45920670032501,0.54376399517059
119,1475157364,37.89581680297852,-86.91390228271484,6.81967115402222,9.80098915100098,0.16693979501724,0.47348383069038,0.64337170124054,-1.84332036972046,0.37963780760765
120,1475174031,38.02639770507812,-86.92546844482422,6.68560552597046,9.81331825256348,0.18579596281052,0.46205762028694,0.33891361951828,-1.75884962081909,0.71422928571701
121,1475190698,38.09614562988281,-86.93528747558594,6.61066675186157,9.82854366302490,0.17125278711319,0.43793624639511,0.26033386588097,-1.55495965480804,0.80076181888580
122,1475207365,38.15474700927734,-86.94168090820312,6.54411649703979,9.79986667633057,0.17473471164703,0.47405508160591,0.07985398918390,-1.38321375846863,0.70089793205261
123,1475224032,38.27951049804688,-86.95258331298828,6.40829467773438,9.77749252319336,0.16581453382969,0.47510737180710,-0.09866010397673,-1.72281241416931,0.68827074766159
124,1475240699,38.42202758789062,-86.96230316162109,6.25082397460938,9.80473232269287,0.17325182259083,0.45360288023949,-0.35554265975952,-1.71178627014160,0.59456682205200
125,1475257366,38.59132385253906,-86.96804046630859,6.06414079666138,9.82011795043945,0.15828980505466,0.47241050004959,-0.48952269554138,-1.59284090995789,0.38469633460045
126,1475274033,38.72931671142578,-86.97637939453125,5.90511846542358,9.82141876220703,0.16704592108727,0.46061056852341,-0.69847112894058,-1.65732085704803,0.55372732877731
127,1475290700,38.89721679687500,-86.99007415771484,5.71307659149170,9.77568340301514,0.14978297054768,0.47982984781265,-0.86282789707184,-1.96053707599640,0.66968888044357
128,1475307367,39.15875244140625,-87.00722503662109,5.42997503280640,9.75310897827148,0.14735932648182,0.45108985900879,-0.67123204469681,-2.30642342567444,0.59173661470413
129,1475324034,39.53452301025391,-87.02317047119141,5.03613328933716,9.78631305694580,0.15680776536465,0.40895548462868,-0.50942373275757,-2.46687412261963,0.28689423203468
130,1475340701,39.95772933959961,-87.03495788574219,4.59753084182739,9.81636047363281,0.15843009948730,0.43585610389709,-0.33231195807457,-2.35239839553833,0.02743760310113
131,1475357368,40.47058486938477,-87.04972076416016,4.07046127319336,9.77090644836426,0.17586293816566,0.44317254424095,-0.27533653378487,-2.68244385719299,-0.03811169788241
132,1475374035,41.00389862060547,-87.07109832763672,3.51797103881836,9.78347778320312,0.16971191763878,0.45398479700089,-0.56427347660065,-3.03240299224854,0.18571129441261
133,1475390702,41.54842376708984,-87.09444427490234,2.95572209358215,9.79640769958496,0.14325317740440,0.40207272768021,-0.45808312296867,-3.13142132759094,0.26800486445427
134,1475407369,42.01546478271484,-87.10944366455078,2.46874809265137,9.83068275451660,0.16424572467804,0.42812120914459,-0.59179425239563,-2.58506393432617,0.11578860878944
135,1475424036,42.41135025024414,-87.12091064453125,2.04693055152893,9.82871055603027,0.14067731797695,0.42499479651451,-0.98263126611710,-2.32380175590515,0.16153289377689
136,1475440703,42.82024765014648,-87.13577270507812,1.61372756958008,9.83409881591797,0.12986426055431,0.40239405632019,-0.87997549772263,-2.47010159492493,0.26362514495850
137,1475457370,43.11948013305664,-87.14473724365234,1.29403352737427,9.86028385162354,0.10795802623034,0.37023508548737,-0.69220888614655,-1.99770104885101,0.29976466298103
138,1475474037,43.41488265991211,-87.14638519287109,0.98460006713867,9.88219642639160,0.09584602713585,0.40352943539619,-0.26113426685333,-1.66164946556091,0.03665817528963
139,1475490704,43.70116424560547,-87.14686584472656,0.69485753774643,9.88431358337402,0.10886468738317,0.41095468401909,0.37637221813202,-1.55601000785828,0.01705165579915
140,1475507371,43.94069671630859,-87.14823913574219,0.45222437381744,9.86373710632324,0.11815276741982,0.34100338816643,0.40699222683907,-1.50666701793671,0.16550286114216
141,1475524038,43.97638702392578,-87.13932800292969,0.41669759154320,9.88017177581787,0.16161809861660,0.32121008634567,0.54035753011703,-0.65273964405060,0.19877375662327
142,1475540705,43.86901092529297,-87.12111663818359,0.52261298894882,9.83827114105225,0.16638304293156,0.35857915878296,0.45045691728592,0.06789286434650,0.09143091738224
143,1475557372,43.78283309936523,-87.10633087158203,0.60573393106461,9.78387355804443,0.14723961055279,0.39990937709808,0.38122582435608,-0.12628340721130,0.19020628929138
144,1475574039,43.74882888793945,-87.09505462646484,0.64690977334976,9.81976795196533,0.12249875068665,0.35557958483696,0.98913031816483,-0.36692750453949,0.24695122241974
145,1475590706,43.72876358032227,-87.07591247558594,0.68047136068344,9.82532310485840,0.09274833649397,0.37356740236282,1.35338151454926,-0.05224990844727,-0.08543115109205
146,1475607373,43.79516220092773,-87.05476379394531,0.63296675682068,9.77607154846191,0.11857759207487,0.39364799857140,1.71262538433075,-0.11881732195616,-0.36366194486618
147,1475624040,43.88763809204102,-87.03575897216797,0.56015455722809,9.81420993804932,0.14048777520657,0.34750401973724,1.73883998394012,-0.27144339680672,-0.33205586671829
148,1475640707,43.85968780517578,-87.01338195800781,0.60605943202972,9.81160545349121,0.16097642481327,0.40034916996956,1.60606348514557,0.11989945173264,-0.19958694279194
149,1475657374,43.80746841430664,-86.99273681640625,0.67046672105789,9.80169677734375,0.13612946867943,0.38814955949783,1.28949058055878,0.08249211311340,-0.07819557934999
150,1475674041,43.72645950317383,-86.97586059570312,0.76533633470535,9.82995128631592,0.15807080268860,0.40117830038071,1.41882193088531,-0.00672333408147,0.14574266970158
151,1475690708,43.55466842651367,-86.95714569091797,0.95801174640656,9.84805583953857,0.18035000562668,0.39995175600052,1.79330503940582,0.29044160246849,0.29331022500992
152,1475707375,43.47196578979492,-86.93995666503906,1.06108856201172,9.80187892913818,0.21089349687099,0.39002621173859,1.77947437763214,0.02806511707604,0.15813921391964
153,1475724042,43.46120452880859,-86.92190551757812,1.09229123592377,9.84164333343506,0.18705981969833,0.34367856383324,1.79759550094604,-0.08248570561409,-0.05146872252226
154,1475740709,43.33916091918945,-86.89498901367188,1.23586797714233,9.84235763549805,0.16414169967175,0.37762323021889,1.82228600978851,0.53952509164810,-0.13883362710476
155,1475757376,43.21149063110352,-86.87419128417969,1.38515305519104,9.80158519744873,0.18978689610958,0.43337771296501,1.82307970523834,0.29338705539703,0.12844128906727
156,1475774043,43.12837982177734,-86.86306762695312,1.48503959178925,9.78927230834961,0.22093775868416,0.39700281620026,1.56267583370209,-0.22416235506535,0.39924439787865
157,1475790710,42.92345809936523,-86.84830474853516,1.70565223693848,9.82531642913818,0.23500287532806,0.37534454464912,1.53001928329468,0.19683998823166,0.55835044384003
158,1475807377,42.80078506469727,-86.83219909667969,1.84176242351532,9.77135944366455,0.18956142663956,0.41983115673065,1.39828050136566,0.07333555817604,0.30087879300117
159,1475824044,42.74841308593750,-86.82140350341797,1.91028487682343,9.80377292633057,0.18280535936356,0.39859515428543,1.54527199268341,-0.31136080622673,0.35303905606270
160,1475840711,42.69004440307617,-86.81095123291016,1.98189508914948,9.78524303436279,0.18106426298618,0.41348305344582,1.31963670253754,-0.32982754707336,0.38228875398636
161,1475857378,42.69723510742188,-86.80481719970703,1.98673808574677,9.80199050903320,0.19317781925201,0.39502674341202,1.25928044319153,-0.65864342451096,0.38327488303185
162,1475874045,42.60011291503906,-86.79576110839844,2.09471940994263,9.80340480804443,0.21704863011837,0.42163467407227,1.21340799331665,-0.30555948615074,0.53116250038147
163,1475890712,42.62779235839844,-86.79423522949219,2.07962989807129,9.75686645507812,0.20225562155247,0.42860561609268,1.32568120956421,-0.90401297807693,0.52195477485657
164,1475907379,42.76948547363281,-86.79711151123047,1.95519161224365,9.77896022796631,0.20883086323738,0.32870620489120,1.61840891838074,-1.35854899883270,0.44441238045692
165,1475924046,42.85892486572266,-86.79167175292969,1.88926959037781,9.83082675933838,0.22942635416985,0.31074550747871,1.94158995151520,-0.85867863893509,0.24390333890915
166,1475940713,42.90895080566406,-86.78326416015625,1.85849130153656,9.81213569641113,0.20655050873756,0.38767102360725,1.71349585056305,-0.64340382814407,0.20658563077450
167,1475957380,43.02254867553711,-86.77645111083984,1.76198542118073,9.77865123748779,0.23214896023273,0.37026292085648,1.53798520565033,-0.86898773908615,0.10897564142942
168,1475974047,43.16146087646484,-86.77536010742188,1.63927054405212,9.78167915344238,0.22774071991444,0.38024675846100,1.51606023311615,-1.18118083477020,0.28102892637253
169,1475990714,43.28413009643555,-86.77602386474609,1.52667558193207,9.77042961120605,0.24813251197338,0.37137845158577,1.18371021747589,-1.23590254783630,0.38246804475784
170,1476007381,43.41801452636719,-86.77845764160156,1.39070832729340,9.75784778594971,0.25511163473129,0.38351806998253,0.43639555573463,-1.36509299278259,0.39517194032669
171,1476024048,43.50590133666992,-86.78247070312500,1.29679846763611,9.77395629882812,0.23963685333729,0.37713205814362,0.17427521944046,-1.34816288948059,0.57275766134262
172,1476040715,43.56670761108398,-86.79014587402344,1.21709811687469,9.78281307220459,0.22810436785221,0.39466944336891,-0.60157817602158,-1.46060252189636,0.74641168117523
173,1476057382,43.68319702148438,-86.80396270751953,1.07959961891174,9.80402660369873,0.20087336003780,0.37897193431854,-0.70308142900467,-1.85990476608276,0.86387163400650
174,1476074049,43.76869964599609,-86.81506347656250,0.98004007339478,9.84522724151611,0.19867110252380,0.39647182822227,-0.29934838414192,-1.66075289249420,0.85293489694595
175,1476090716,43.82839584350586,-86.82578277587891,0.90301054716110,9.79313182830811,0.22468329966068,0.40543243288994,-0.42828273773193,-1.58158421516418,0.88883101940155
176,1476107383,43.88350677490234,-86.83857727050781,0.82931423187256,9.78734207153320,0.21677219867706,0.33238258957863,-0.54742020368576,-1.66789877414703,0.98569822311401
177,1476124050,43.94881439208984,-86.85508728027344,0.74025851488113,9.78153038024902,0.22759418189526,0.39516389369965,-0.86445426940918,-1.86236357688904,1.10390090942383
178,1476140717,43.95494461059570,-86.87338256835938,0.70542013645172,9.79271125793457,0.24330106377602,0.34525212645531,-1.19393599033356,-1.82113993167877,1.31200408935547
179,1476157384,43.93393325805664,-86.88900756835938,0.70096039772034,9.82251071929932,0.20640107989311,0.35333457589149,-0.99714070558548,-1.63104236125946,1.26851379871368
180,1476174051,43.97260284423828,-86.90357971191406,0.63836669921875,9.80817985534668,0.15833714604378,0.35059300065041,-0.88125622272491,-1.71013450622559,1.08457624912262
181,1476190718,44.07304763793945,-86.91428375244141,0.52586817741394,9.81908416748047,0.15582144260406,0.31889086961746,-0.16420300304890,-1.66532492637634,0.81947189569473
182,1476207385,44.04943084716797,-86.91307830810547,0.54566699266434,9.84438610076904,0.15559767186642,0.34368449449539,0.35458859801292,-0.84506547451019,0.62493067979813
183,1476224052,44.01729965209961,-86.91142272949219,0.57502126693726,9.81767559051514,0.17551305890083,0.40021124482155,0.37455371022224,-0.81324160099030,0.63303703069687
184,1476240719,44.02645874023438,-86.91911315917969,0.55885094404221,9.80083656311035,0.20217137038708,0.39364409446716,0.11823461949825,-1.31950211524963,0.91694092750549
185,1476257386,43.91380310058594,-86.93139648437500,0.66234743595123,9.83652782440186,0.20445427298546,0.40354037284851,0.00624309480190,-1.22802639007568,1.36483013629913
186,1476274053,43.81416320800781,-86.94860076904297,0.75584733486176,9.78367042541504,0.17272301018238,0.43912494182587,0.14224652945995,-1.49466753005981,1.57062852382660
187,1476290720,43.86245346069336,-86.96604156494141,0.71020561456680,9.80466365814209,0.16558614373207,0.37534350156784,0.72473061084747,-1.79661571979523,1.24566733837128
188,1476307387,43.83965682983398,-86.97534942626953,0.72914743423462,9.79409408569336,0.18132823705673,0.41547015309334,0.33249768614769,-1.30364799499512,1.05802869796753
189,1476324054,43.85009002685547,-86.98545837402344,0.71681696176529,9.78821849822998,0.18928037583828,0.37989714741707,0.44779318571091,-1.40690553188324,1.02024996280670
190,1476340721,43.80311584472656,-86.99352264404297,0.76398718357086,9.82925605773926,0.19168683886528,0.39161014556885,0.55147349834442,-1.19184851646423,1.07116794586182
191,1476357388,43.73934936523438,-86.99984741210938,0.83228343725204,9.82782554626465,0.18693736195564,0.42935517430305,0.79809814691544,-1.07634818553925,1.04993510246277
192,1476374055,43.72698593139648,-87.00925445556641,0.85072463750839,9.80860996246338,0.18967463076115,0.42446503043175,0.89427369832993,-1.31982219219208,1.06689035892487
193,1476390722,43.70677185058594,-87.01652526855469,0.87416565418243,9.81989765167236,0.20716182887554,0.37816011905670,0.74484932422638,-1.21399068832397,0.98754239082336
194,1476407389,43.70179748535156,-87.02330017089844,0.87547981739044,9.80142593383789,0.20593298971653,0.44027477502823,0.34488141536713,-1.22753989696503,0.90610688924789
195,1476424056,43.75252532958984,-87.03522491455078,0.81964600086212,9.80274200439453,0.20410062372684,0.43032699823380,0.25833606719971,-1.57894599437714,0.99641716480255
196,1476440723,43.80305480957031,-87.04892730712891,0.76146906614304,9.78667163848877,0.19537442922592,0.40887531638145,0.09556738287210,-1.65715444087982,1.06158864498138
197,1476457390,43.81148147583008,-87.05902862548828,0.75168299674988,9.82205677032471,0.18937382102013,0.34597346186638,0.48617389798164,-1.40685451030731,1.03201901912689
198,1476474057,43.75601577758789,-87.06068420410156,0.80751579999924,9.81787586212158,0.19217392802238,0.34953156113625,0.58274656534195,-0.89463883638382,0.82093185186386
199,1476490724,43.72913360595703,-87.05935668945312,0.83150905370712,9.81556606292725,0.16926008462906,0.40524598956108,0.37442561984062,-0.83817547559738,0.62865722179413
200,1476507391,43.69558715820312,-87.05762481689453,0.86461406946182,9.83210086822510,0.17133857309818,0.40151292085648,0.53782182931900,-0.79704153537750,0.63052695989609
201,1476524058,43.73093795776367,-87.05543518066406,0.83071851730347,9.83084297180176,0.18966917693615,0.38575547933578,0.66083961725235,-0.92440068721771,0.46652892231941
202,1476540725,43.78702545166016,-87.05403137207031,0.77451342344284,9.81465911865234,0.18951503932476,0.38536700606346,0.53841102123260,-1.00578510761261,0.44803655147552
203,1476557392,43.87388992309570,-87.05463409423828,0.68925923109055,9.78861522674561,0.17453166842461,0.39294087886810,0.65060740709305,-1.14573299884796,0.45808959007263
204,1476574059,43.95281982421875,-87.05576324462891,0.61687529087067,9.80489540100098,0.17461471259594,0.39769634604454,0.95720404386520,-1.14677011966705,0.51475757360458
205,1476590726,43.98472976684570,-87.05696105957031,0.58768928050995,9.78812789916992,0.19210217893124,0.39718949794769,0.70806950330734,-1.06899714469910,0.62455928325653
206,1476607393,44.03728485107422,-87.05949401855469,0.53610205650330,9.78544998168945,0.19688865542412,0.37726369500160,0.62262547016144,-1.17242145538330,0.63015568256378
207,1476624060,44.12275695800781,-87.06108856201172,0.45362457633018,9.77904224395752,0.17770771682262,0.40787777304649,0.74728250503540,-1.17919588088989,0.50374418497086
208,1476640727,44.26617813110352,-87.06362152099609,0.31252101063728,9.80724620819092,0.17894896864891,0.42527943849564,0.66602623462677,-1.34928965568542,0.41557243466377
209,1476657394,44.40452957153320,-87.07183074951172,0.17779704928398,9.84248828887939,0.15993450582027,0.41396898031235,0.75966632366180,-1.58619439601898,0.67671948671341
210,1476674061,44.50504302978516,-87.07872772216797,0.08946688473225,9.85352039337158,0.16743586957455,0.35723584890366,1.29123210906982,-1.43546366691589,0.73398947715759
211,1476690728,44.46982574462891,-87.07537841796875,0.13758456707001,9.87369441986084,0.18868517875671,0.34203389286995,1.33186674118042,-0.69877845048904,0.59308123588562
212,1476707395,44.46957397460938,-87.07189941406250,0.14477837085724,9.80860233306885,0.20928093791008,0.39669212698936,0.98859250545502,-0.77027636766434,0.49019509553909
213,1476724062,44.43225097656250,-87.07417297363281,0.17901940643787,9.77446174621582,0.21810190379620,0.41327631473541,0.36830425262451,-0.97472977638245,0.80583316087723
214,1476740729,44.40171051025391,-87.08074188232422,0.20716165006161,9.75999259948730,0.20050570368767,0.38388404250145,0.41089814901352,-1.15992236137390,0.96093088388443
215,1476757396,44.42518997192383,-87.08329010009766,0.18509106338024,9.77943134307861,0.18035851418972,0.40224587917328,0.62925922870636,-1.10445797443390,0.69142121076584
216,1476774063,44.61143493652344,-87.08616638183594,0.00218758638948,9.77321529388428,0.14671450853348,0.41783869266510,0.75593954324722,-1.45745217800140,0.35131016373634
217,1476790730,44.93606948852539,-87.09559631347656,-0.31954687833786,9.76269435882568,0.12242820113897,0.41699248552322,0.77336901426315,-2.03220105171204,0.33311238884926
218,1476807397,45.23512649536133,-87.10626220703125,-0.60297429561615,9.84492397308350,0.14909224212170,0.35041493177414,1.52953267097473,-2.00596094131470,0.48019325733185
219,1476824064,45.38392257690430,-87.10998535156250,-0.73955595493317,9.87384891510010,0.16820913553238,0.38170495629311,1.29324281215668,-1.39829969406128,0.50132369995117
220,1476840731,45.56390762329102,-87.11391448974609,-0.90463829040527,9.89976692199707,0.16812857985497,0.36789926886559,1.46350336074829,-1.46486711502075,0.44737064838409
221,1476857398,45.65785598754883,-87.11859893798828,-0.98028671741486,9.92699146270752,0.20509141683578,0.36077249050140,1.65635406970978,-1.29980611801147,0.66693544387817
222,1476874065,45.67839431762695,-87.12138366699219,-0.98639065027237,9.90692615509033,0.23007363080978,0.32506754994392,1.39930474758148,-1.08405733108521,0.74408084154129
223,1476890732,45.60174560546875,-87.12207031250000,-0.90209084749222,9.81010437011719,0.22750353813171,0.36922752857208,1.00503599643707,-0.78999811410904,0.83421206474304
224,1476907399,45.58563613891602,-87.12663269042969,-0.88627696037292,9.72320461273193,0.20343576371670,0.36488595604897,0.57615125179291,-1.10027027130127,0.85915875434875
225,1476924066,45.47783660888672,-87.13235473632812,-0.77610939741135,9.72137737274170,0.17791181802750,0.32667401432991,0.69549369812012,-0.94991099834442,1.10737144947052
226,1476940733,45.28363418579102,-87.13297271728516,-0.58085900545120,9.74213218688965,0.16273781657219,0.35914322733879,0.57283443212509,-0.54771476984024,1.05678629875183
227,1476957400,45.20921325683594,-87.13823699951172,-0.50139677524567,9.75917720794678,0.16615225374699,0.35879743099213,0.84274101257324,-0.99892085790634,1.02103114128113
228,1476974067,45.29351806640625,-87.14597320556641,-0.58531421422958,9.75862503051758,0.15680068731308,0.39274400472641,0.60105961561203,-1.45006310939789,0.78618830442429
229,1476990734,45.40155029296875,-87.15407562255859,-0.69131177663803,9.81069374084473,0.14473083615303,0.34509721398354,0.71070754528046,-1.51184070110321,0.75645178556442
230,1477007401,45.37744522094727,-87.15621185302734,-0.66675007343292,9.83974838256836,0.16586606204510,0.32592406868935,0.57805943489075,-0.97544687986374,0.76384109258652
231,1477024068,45.27059555053711,-87.15807342529297,-0.56836289167404,9.83700275421143,0.19671994447708,0.33564686775208,0.02289135009050,-0.82506191730499,0.92303687334061
232,1477040735,45.27616119384766,-87.16275787353516,-0.58851855993271,9.80546283721924,0.16699033975601,0.31859126687050,-0.32593438029289,-1.17776155471802,0.77865809202194
233,1477057402,45.29980850219727,-87.16545104980469,-0.61621099710464,9.82772445678711,0.16899904608727,0.30452033877373,0.30157032608986,-1.11732840538025,0.68592733144760
234,1477074069,45.31417465209961,-87.16441345214844,-0.63365769386292,9.79334926605225,0.16933153569698,0.35517784953117,0.35936537384987,-0.94153559207916,0.55403476953506
235,1477090736,45.32020187377930,-87.16696929931641,-0.64506977796555,9.78169822692871,0.16112482547760,0.33806017041206,0.24332706630230,-1.08204698562622,0.72164422273636
236,1477107403,45.34178543090820,-87.17084503173828,-0.68226343393326,9.75735092163086,0.18363775312901,0.34993687272072,-0.34327420592308,-1.17990028858185,0.71479284763336
237,1477124070,45.40451431274414,-87.17978668212891,-0.75941616296768,9.72345066070557,0.19418418407440,0.36520385742188,-0.31964650750160,-1.48812353610992,0.85536819696426
238,1477140737,45.53565216064453,-87.19474029541016,-0.90066623687744,9.76947593688965,0.18266637623310,0.37117022275925,-0.01257583498955,-1.85672843456268,0.96730834245682
239,1477157404,45.67564392089844,-87.20880889892578,-1.05546987056732,9.81740570068359,0.19713434576988,0.34087204933167,-0.36240693926811,-1.86881792545319,0.92461210489273
240,1477174071,45.77909469604492,-87.22032928466797,-1.18109071254730,9.83518695831299,0.17400020360947,0.34123420715332,-0.74708396196365,-1.67202258110046,0.85298609733582
241,1477190738,45.92052841186523,-87.22893524169922,-1.34411454200745,9.80979061126709,0.16739679872990,0.32419988512993,-0.73316347599030,-1.64950883388519,0.67820495367050
242,1477207405,46.06161499023438,-87.23558044433594,-1.50104928016663,9.82738971710205,0.15503793954849,0.36560204625130,-0.35454380512238,-1.55827677249908,0.61541557312012
243,1477224072,46.23953247070312,-87.24310302734375,-1.69527339935303,9.84616470336914,0.14606997370720,0.38746660947800,-0.38654682040215,-1.65136587619781,0.55863213539124
244,1477240739,46.42803955078125,-87.25234222412109,-1.89876484870911,9.83185672760010,0.13228975236416,0.36003103852272,-0.34289002418518,-1.76016867160797,0.63771134614944
245,1477257406,46.54091644287109,-87.25997924804688,-2.02433204650879,9.83681774139404,0.14627602696419,0.31145054101944,-0.20518335700035,-1.51392829418182,0.70550829172134
246,1477274073,46.69277572631836,-87.26720428466797,-2.18667483329773,9.82570934295654,0.16916108131409,0.33606466650963,-0.07112646847963,-1.57268393039703,0.61784881353378
247,1477290740,46.77214050292969,-87.27243804931641,-2.27983617782593,9.80295848846436,0.19623732566833,0.33792319893837,-0.27064940333366,-1.35906112194061,0.68334043025970
248,1477307407,46.75096893310547,-87.27365875244141,-2.27390027046204,9.74661731719971,0.15856108069420,0.32159945368767,-0.33875355124474,-0.98451370000839,0.69971966743469
249,1477324074,46.78863143920898,-87.27703094482422,-2.32192921638489,9.77139091491699,0.12653903663158,0.37213134765625,-0.03200306370854,-1.17479038238525,0.67692434787750
250,1477340741,46.98102569580078,-87.28567504882812,-2.52483844757080,9.77384757995605,0.13656897842884,0.36930614709854,-0.09229536354542,-1.72287654876709,0.61627352237701
251,1477357408,47.22409057617188,-87.29246520996094,-2.77461934089661,9.81022262573242,0.13024660944939,0.33938568830490,0.16604073345661,-1.74519813060760,0.45406830310822
252,1477374075,47.35820007324219,-87.29687500000000,-2.91690731048584,9.82310390472412,0.14028355479240,0.35643717646599,0.09103393554688,-1.41373133659363,0.54619729518890
253,1477390742,47.50958251953125,-87.30035400390625,-3.07388806343079,9.82420825958252,0.12490672618151,0.37998837232590,0.22981636226177,-1.41703557968140,0.49109151959419
254,1477407409,47.72238922119141,-87.30513763427734,-3.29139351844788,9.82522964477539,0.14170876145363,0.37718281149864,0.29395052790642,-1.59159874916077,0.42862209677696
255,1477424076,48.00522613525391,-87.31576538085938,-3.57260465621948,9.80570793151855,0.13379992544651,0.37433841824532,0.68081760406494,-1.94967734813690,0.56508666276932
256,1477440743,48.23542785644531,-87.32395172119141,-3.79878568649292,9.80571174621582,0.11973240226507,0.32995137572289,0.81661605834961,-1.74904000759125,0.57893019914627
257,1477457410,48.38919830322266,-87.33113098144531,-3.94523811340332,9.82765007019043,0.13548234105110,0.34031376242638,0.96814078092575,-1.53732526302338,0.67856353521347
258,1477474077,48.59320449829102,-87.33824920654297,-4.14145994186401,9.83382606506348,0.13435193896294,0.33306860923767,1.03784584999084,-1.62840414047241,0.57789295911789
259,1477490744,48.74929428100586,-87.34436035156250,-4.28765773773193,9.81671142578125,0.15759472548962,0.32722842693329,1.17446398735046,-1.49482107162476,0.64210397005081
260,1477507411,48.78507232666016,-87.34812164306641,-4.31348466873169,9.79721164703369,0.16807559132576,0.29774758219719,1.16800951957703,-1.14374792575836,0.74894744157791
261,1477524078,48.83790588378906,-87.35041046142578,-4.35677576065063,9.78985023498535,0.16219608485699,0.32393285632133,1.14009177684784,-1.12292480468750,0.65196490287781
262,1477540745,48.89636993408203,-87.35195922851562,-4.40637969970703,9.78977489471436,0.15397150814533,0.32871285080910,1.08868706226349,-1.10398423671722,0.60333913564682
263,1477557412,48.98847198486328,-87.35573577880859,-4.49213886260986,9.79101753234863,0.14822971820831,0.35068628191948,0.93430638313293,-1.27776634693146,0.65005677938461
264,1477574079,49.12514114379883,-87.36136627197266,-4.62370634078979,9.82746696472168,0.15400211513042,0.32037803530693,0.88050699234009,-1.44543993473053,0.65457737445831
265,1477590746,49.14330673217773,-87.36508178710938,-4.63538312911987,9.83504486083984,0.16960345208645,0.28570303320885,0.97024106979370,-1.10397124290466,0.76505774259567
266,1477607413,49.17140579223633,-87.36314392089844,-4.65457439422607,9.80496501922607,0.15182277560234,0.30619129538536,1.11085486412048,-0.91423255205154,0.51608949899673
267,1477624080,49.22511291503906,-87.35899353027344,-4.69497537612915,9.81225776672363,0.14022982120514,0.28797239065170,1.34156095981598,-0.86225140094757,0.36352741718292
268,1477640747,49.30854797363281,-87.35469818115234,-4.76079607009888,9.82177162170410,0.16086187958717,0.28695324063301,1.59410238265991,-0.90348792076111,0.30020004510880
269,1477657414,49.34216690063477,-87.34951782226562,-4.78182554244995,9.83747577667236,0.15769678354263,0.29112121462822,1.29635465145111,-0.79542791843414,0.36596062779427
270,1477674081,49.40404891967773,-87.34649658203125,-4.83296585083008,9.80450916290283,0.17437234520912,0.31863790750504,1.20376479625702,-0.93263512849808,0.39883455634117
271,1477690748,49.40883636474609,-87.34738159179688,-4.83032798767090,9.78479480743408,0.18065255880356,0.33948984742165,1.01693320274353,-0.96096289157867,0.66062206029892
272,1477707415,49.33563232421875,-87.34893035888672,-4.74892807006836,9.79312992095947,0.15789872407913,0.32756790518761,1.07352423667908,-0.84530884027481,0.86374342441559
273,1477724082,49.22676086425781,-87.34458160400391,-4.63501453399658,9.81775379180908,0.16840520501137,0.29983347654343,0.85862100124359,-0.52611052989960,0.62859332561493
274,1477740749,49.22284698486328,-87.33898162841797,-4.62721776962280,9.77997493743896,0.16524629294872,0.32353627681732,0.74342781305313,-0.70890825986862,0.38515734672546
275,1477757416,49.27827835083008,-87.33222961425781,-4.67890262603760,9.81631088256836,0.15565307438374,0.33517670631409,0.79620277881622,-0.78392797708511,0.22434805333614
276,1477774083,49.30779266357422,-87.32987976074219,-4.70292234420776,9.85871887207031,0.14384473860264,0.34722825884819,0.90760517120361,-0.91575658321381,0.49575302004814
277,1477790750,49.31862640380859,-87.32848358154297,-4.70285177230835,9.85144329071045,0.15073859691620,0.34223756194115,1.17711496353149,-0.87946331501007,0.55061537027359
278,1477807417,49.27598190307617,-87.32761383056641,-4.65097522735596,9.82565307617188,0.17455124855042,0.27414610981941,1.12813055515289,-0.80111402273178,0.68622177839279
279,1477824084,49.17001724243164,-87.32497406005859,-4.53878307342529,9.81597709655762,0.20660294592381,0.30551868677139,0.92669957876205,-0.60990244150162,0.72179788351059
280,1477840751,49.04911041259766,-87.32095336914062,-4.41310453414917,9.81971359252930,0.20237119495869,0.25908112525940,0.85746842622757,-0.51765829324722,0.67622011899948
281,1477857418,48.72320938110352,-87.31118011474609,-4.08812761306763,9.78300094604492,0.19168555736542,0.32114118337631,0.48461148142815,0.13666294515133,0.77645534276962
282,1477874085,48.50892639160156,-87.30630493164062,-3.87312412261963,9.72758483886719,0.16633427143097,0.32079479098320,0.59254342317581,-0.29236897826195,0.80480867624283
283,1477890752,48.50164413452148,-87.30529022216797,-3.86846208572388,9.74966621398926,0.16033737361431,0.31707018613815,0.39450600743294,-0.89684140682220,0.59513020515442
284,1477907419,48.52509689331055,-87.29976654052734,-3.89050388336182,9.78665351867676,0.14871719479561,0.31826943159103,0.64837896823883,-0.77297842502594,0.34266591072083
285,1477924086,48.50188827514648,-87.29246520996094,-3.86433506011963,9.81336784362793,0.13754330575466,0.34248885512352,0.72713810205460,-0.59808212518692,0.34887698292732
286,1477940753,48.50861358642578,-87.28891754150391,-3.86642885208130,9.81777381896973,0.17480213940144,0.34829768538475,0.84341984987259,-0.79979503154755,0.45621976256371
287,1477957420,48.55096054077148,-87.29000091552734,-3.90354704856873,9.84327983856201,0.19125267863274,0.33597114682198,0.86269342899323,-1.07118725776672,0.61426299810410
288,1477974087,48.56024932861328,-87.29079437255859,-3.90754437446594,9.81029224395752,0.19458679854870,0.36785218119621,0.85867214202881,-0.98651146888733,0.65890586376190
289,1477990754,48.62752914428711,-87.29325103759766,-3.97183322906494,9.79512596130371,0.19085809588432,0.33472791314125,0.73573124408722,-1.18481791019440,0.62770968675613
290,1478007421,48.71194839477539,-87.29224395751953,-4.05940437316895,9.82276058197021,0.18642841279507,0.32980591058731,0.39001098275185,-1.07814097404480,0.40706902742386
291,1478024088,48.82756805419922,-87.29202270507812,-4.17777681350708,9.81321430206299,0.19398453831673,0.32140237092972,0.39523598551750,-1.17568683624268,0.38458108901978
292,1478040755,48.87482452392578,-87.29094696044922,-4.22657680511475,9.81360721588135,0.20096802711487,0.31317362189293,0.45484957098961,-1.02023065090179,0.50750929117203
293,1478057422,48.82018280029297,-87.28971862792969,-4.17599534988403,9.78074741363525,0.18994183838367,0.31225219368935,0.30123734474182,-0.78172516822815,0.65967422723770
294,1478074089,48.84458923339844,-87.28971862792969,-4.20186614990234,9.79721450805664,0.17394249141216,0.31944075226784,0.48485481739044,-1.00076496601105,0.58410394191742
295,1478090756,48.88140869140625,-87.28834533691406,-4.24043226242065,9.77455139160156,0.17700369656086,0.33218312263489,0.45747482776642,-0.97209155559540,0.49645730853081
296,1478107423,48.94483947753906,-87.28935241699219,-4.31107616424561,9.79196834564209,0.16177260875702,0.34643241763115,0.16250617802143,-1.13109517097473,0.54248338937759
297,1478124090,48.92838287353516,-87.29051208496094,-4.29574108123779,9.85148715972900,0.17088836431503,0.27282825112343,0.50663834810257,-0.94831019639969,0.70038563013077
298,1478140757,48.69499969482422,-87.28185272216797,-4.05765771865845,9.85534191131592,0.17866286635399,0.32461184263229,0.78681582212448,-0.10610061138868,0.69384169578552
299,1478157424,48.39857864379883,-87.27193450927734,-3.75964093208313,9.81068229675293,0.19979390501976,0.32663246989250,0.61469835042953,0.09432516992092,0.73270887136459
300,1478174091,48.14390563964844,-87.26519775390625,-3.50970435142517,9.81983947753906,0.20286317169666,0.30756020545959,0.25971922278404,-0.13682305812836,0.79540884494781
301,1478190758,47.88940811157227,-87.25712585449219,-3.26313424110413,9.83203792572021,0.19749961793423,0.32628241181374,0.06652258336544,-0.10460225492716,0.75221288204193
302,1478207425,47.64160919189453,-87.24579620361328,-3.02527689933777,9.81188964843750,0.16460923850536,0.33227613568306,-0.01636651344597,0.03143318369985,0.57279598712921
303,1478224092,47.47156524658203,-87.23091125488281,-2.85930657386780,9.79735946655273,0.16242060065269,0.35443434119225,0.29818946123123,0.00799756590277,0.29897066950798
304,1478240759,47.33633422851562,-87.21962738037109,-2.72946572303772,9.79723834991455,0.20597894489765,0.36951139569283,0.20256443321705,-0.21308484673500,0.38922977447510
305,1478257426,47.18448257446289,-87.21105194091797,-2.58963465690613,9.78421020507812,0.18462528288364,0.31845054030418,-0.18017251789570,-0.28330206871033,0.51210665702820
306,1478274093,47.02437210083008,-87.19697570800781,-2.44596529006958,9.79608631134033,0.13547745347023,0.35381206870079,-0.43668374419212,-0.05688581243157,0.29007023572922
307,1478290760,46.96372604370117,-87.17922210693359,-2.39190769195557,9.78566932678223,0.12262857705355,0.35276079177856,0.18350857496262,-0.10683055967093,-0.03187500312924
308,1478307427,46.96623992919922,-87.16089630126953,-2.39757442474365,9.82851600646973,0.15270783007145,0.35670900344849,0.38020130991936,-0.19406743347645,-0.19846001267433
309,1478324094,47.08787536621094,-87.14892578125000,-2.51882386207581,9.83481121063232,0.15390335023403,0.38069742918015,0.59619325399399,-0.71962720155716,-0.13919220864773
310,1478340761,47.21869659423828,-87.14145660400391,-2.64525389671326,9.82357788085938,0.17715457081795,0.31020697951317,0.80651175975800,-0.92906218767166,0.05782707035542
311,1478357428,47.17117309570312,-87.13024139404297,-2.58779263496399,9.87122344970703,0.15308509767056,0.29414239525795,1.14270412921906,-0.35072749853134,0.24024070799351
312,1478374095,47.05231475830078,-87.11357879638672,-2.46203041076660,9.83404445648193,0.13397119939327,0.32104307413101,0.95632052421570,0.01461844798177,0.15309350192547
313,1478390762,46.84067916870117,-87.08738708496094,-2.24488878250122,9.81102561950684,0.16321988403797,0.31207630038261,0.91162633895874,0.62211322784424,-0.08101297169924
314,1478407429,46.65937423706055,-87.05822753906250,-2.06138873100281,9.76951599121094,0.19774387776852,0.33642366528511,0.69133150577545,0.66507846117020,-0.26118549704552
315,1478424096,46.57417297363281,-87.03443145751953,-1.97133862972260,9.77924919128418,0.19176676869392,0.35970124602318,0.83777219057083,0.23518219590187,-0.21253417432308
316,1478440763,46.57896423339844,-87.01096343994141,-1.97425556182861,9.78094482421875,0.15183860063553,0.36522334814072,0.66153115034103,0.02158510126173,-0.40547463297844
317,1478457430,46.59304428100586,-86.98306274414062,-1.98730504512787,9.81664276123047,0.11261941492558,0.35617125034332,0.59904903173447,0.18020454049110,-0.61998093128204
318,1478474097,46.61708068847656,-86.95213317871094,-2.00259089469910,9.82544517517090,0.15034654736519,0.35064294934273,1.07556045055389,0.29099225997925,-0.74772429466248
319,1478490764,46.64506530761719,-86.92362213134766,-2.02171540260315,9.83379459381104,0.20184077322483,0.37098121643066,1.09615302085876,0.19573864340782,-0.66700583696365
320,1478507431,46.64697647094727,-86.89631652832031,-2.02960014343262,9.84669017791748,0.17663244903088,0.34019744396210,0.20269250869751,0.16473446786404,-0.58076792955399
321,1478524098,46.53683471679688,-86.86019134521484,-1.92032885551453,9.83128643035889,0.12238593399525,0.37979215383530,0.46942311525345,0.81365782022476,-0.71442788839340
322,1478540765,46.51152801513672,-86.81678771972656,-1.88282275199890,9.81647491455078,0.12873330712318,0.36834749579430,1.23900783061981,0.92535477876663,-1.16451978683472
323,1478557432,46.49197387695312,-86.76759338378906,-1.85929858684540,9.84755229949951,0.17558170855045,0.35901141166687,0.79408961534500,1.15177094936371,-1.46633970737457
324,1478574099,46.33601760864258,-86.71747589111328,-1.69324100017548,9.83223915100098,0.21904043853283,0.39585986733437,1.15333342552185,1.56043469905853,-1.18316590785980
325,1478590766,46.10545730590820,-86.67104339599609,-1.44172906875610,9.80825138092041,0.25940075516701,0.38284537196159,1.76988255977631,1.60122287273407,-0.77135211229324
326,1478607433,45.81473159790039,-86.63175201416016,-1.14263057708740,9.76255798339844,0.29536175727844,0.38188117742538,1.04788613319397,1.44868648052216,-0.33712720870972
327,1478624100,45.53908920288086,-86.60166168212891,-0.86788624525070,9.77053737640381,0.25158616900444,0.36871916055679,0.45504161715508,1.02019858360291,0.00602538697422
328,1478640767,45.23570251464844,-86.57463836669922,-0.55858170986176,9.78197097778320,0.22151404619217,0.37958335876465,0.87975150346756,0.99051374197006,0.23732087016106
329,1478657434,44.97320175170898,-86.54232025146484,-0.28672713041306,9.79064464569092,0.22058238089085,0.42477571964264,1.04355728626251,1.11715531349182,-0.05805118009448
330,1478674101,44.78348159790039,-86.51401519775391,-0.09119620174170,9.77929401397705,0.22677907347679,0.42963346838951,0.85475337505341,0.75200808048248,-0.06025387346745
331,1478690768,44.53885650634766,-86.49217224121094,0.15640513598919,9.80374526977539,0.22867353260517,0.42378440499306,0.72963535785675,0.63280653953552,0.34399774670601
332,1478707435,44.16454696655273,-86.47041320800781,0.53374856710434,9.80976963043213,0.19628581404686,0.38305810093880,0.65996891260147,0.95593643188477,0.70990079641342
333,1478724102,43.66532135009766,-86.44587707519531,1.04192793369293,9.79313468933105,0.24702557921410,0.41356375813484,0.97153443098068,1.42184412479401,0.95621806383133
334,1478740769,43.16894149780273,-86.42500305175781,1.52817153930664,9.77765750885010,0.24526301026344,0.41998702287674,-0.13059915602207,1.21726262569427,1.07492029666901
335,1478757436,42.77029037475586,-86.41433715820312,1.90351700782776,9.82254981994629,0.18036605417728,0.38013610243797,-0.92790973186493,0.48106417059898,1.21687853336334
336,1478774103,42.31303024291992,-86.39674377441406,2.34350848197937,9.81305027008057,0.16938222944736,0.35308015346527,-0.53018289804459,0.95953500270844,1.12542831897736
337,1478790770,41.92749404907227,-86.36978149414062,2.69740796089172,9.81217575073242,0.13102935254574,0.44086864590645,-1.38783681392670,1.14778816699982,0.54108750820160
338,1478807437,41.73818588256836,-86.34344482421875,2.86632466316223,9.82929801940918,0.11006405949593,0.41699343919754,-0.68119525909424,0.67287760972977,0.04505913704634
339,1478824104,41.68653869628906,-86.31575775146484,2.91443347930908,9.85012340545654,0.13665761053562,0.37533012032509,0.33402165770531,0.41698119044304,-0.33641001582146
340,1478840771,41.61621475219727,-86.27942657470703,2.99096989631653,9.84402179718018,0.14837737381458,0.37125736474991,0.92573910951614,0.89021414518356,-0.60542011260986
341,1478857438,41.47605514526367,-86.23703765869141,3.14498758316040,9.82134628295898,0.13810488581657,0.44626662135124,1.36513769626617,1.35778677463531,-0.60622692108154
342,1478874105,41.34891510009766,-86.20078277587891,3.27806878089905,9.78928089141846,0.16364482045174,0.52689647674561,0.89919143915176,1.04284036159515,-0.42212286591530
343,1478890772,41.29239654541016,-86.17597961425781,3.33651876449585,9.78590869903564,0.22319440543652,0.55449473857880,0.65587079524994,0.32462170720100,-0.17672762274742
344,1478907439,41.28507995605469,-86.16079711914062,3.35200023651123,9.78507709503174,0.24018925428391,0.45485737919807,1.04914093017578,-0.21490333974361,0.07112006098032
345,1478924106,41.27405548095703,-86.14360046386719,3.35558867454529,9.77485466003418,0.19155596196651,0.48736912012100,0.10668330639601,-0.16052760183811,-0.04021193832159
346,1478940773,41.34321594238281,-86.13315582275391,3.26426172256470,9.77806949615479,0.14203971624374,0.48706758022308,-0.75659924745560,-0.71097016334534,-0.06661863625050
347,1478957440,41.44527435302734,-86.12202453613281,3.14013266563416,9.78385353088379,0.17898315191269,0.46332898736000,-0.74978619813919,-0.76944392919540,-0.19573226571083
348,1478974107,41.59670257568359,-86.10831451416016,2.96426606178284,9.76049327850342,0.14183634519577,0.46686303615570,-0.88449621200562,-0.80252271890640,-0.45051458477974
349,1478990774,41.86256408691406,-86.10369110107422,2.67331838607788,9.73212623596191,0.08792550861835,0.46295425295830,-0.90781646966934,-1.51741147041321,-0.44654458761215
350,1479007441,42.19491577148438,-86.10328674316406,2.31980991363525,9.74039840698242,0.06233260035515,0.42849943041801,-0.66298472881317,-1.88464641571045,-0.46346178650856
351,1479024108,42.53901672363281,-86.09761047363281,1.95755231380463,9.80559730529785,0.10921180248260,0.42034193873405,-0.48263284564018,-1.68331778049469,-0.69571775197983
352,1479040775,42.91970062255859,-86.08323669433594,1.55930614471436,9.79465389251709,0.10553367435932,0.39915513992310,-0.44431629776955,-1.41759884357452,-1.14997172355652
353,1479057442,43.33175659179688,-86.07096099853516,1.13027739524841,9.79961013793945,0.08465483039618,0.37264770269394,-0.39236092567444,-1.59686195850372,-1.16998803615570
354,1479074109,43.74676132202148,-86.06328582763672,0.70612686872482,9.82996082305908,0.03581670299172,0.36680844426155,0.06374359130859,-1.81286668777466,-0.95217758417130
355,1479090776,44.14388275146484,-86.04884338378906,0.30754935741425,9.85835361480713,0.03470665216446,0.38931626081467,0.51719081401825,-1.46353518962860,-1.15289151668549
356,1479107443,44.61932754516602,-86.02734375000000,-0.16899256408215,9.82888603210449,0.02746381051838,0.40516486763954,0.56315284967422,-1.39836370944977,-1.68856859207153
357,1479124110,45.25719451904297,-86.00164794921875,-0.80063390731812,9.79354095458984,0.04834240674973,0.38707521557808,1.03141701221466,-1.69404971599579,-2.34141063690186
358,1479140777,45.91700363159180,-85.96910858154297,-1.45373690128326,9.83021831512451,0.03723845258355,0.40269964933395,1.06439328193665,-1.52554368972778,-2.69466066360474
359,1479157444,46.58169937133789,-85.92965698242188,-2.10674500465393,9.83025264739990,0.06257425248623,0.41678693890572,1.35184466838837,-1.30223917961121,-2.99562287330627
360,1479174111,47.28471374511719,-85.89015197753906,-2.79689931869507,9.84110260009766,0.06259755790234,0.43375161290169,1.43094956874847,-1.47659778594971,-3.12363553047180
361,1479190778,48.04468536376953,-85.85286712646484,-3.54513907432556,9.84409618377686,0.04566461965442,0.43212184309959,1.37886619567871,-1.82108879089355,-3.20563459396362
362,1479207445,48.80184936523438,-85.81119537353516,-4.29437065124512,9.85208797454834,0.00330890016630,0.44509121775627,1.15688097476959,-1.71801054477692,-3.41737508773804
363,1479224112,49.61146545410156,-85.76353454589844,-5.09526681900024,9.83638763427734,0.00580876460299,0.48809516429901,1.21247315406799,-1.73975539207458,-3.84879446029663
364,1479240779,50.57005310058594,-85.71092987060547,-6.04319763183594,9.80218887329102,0.00735715031624,0.52228909730911,1.35112774372101,-2.15653824806213,-4.50592756271362
365,1479257446,51.58758163452148,-85.65292358398438,-7.04559087753296,9.79406356811523,0.06134624779224,0.51811867952347,1.63724732398987,-2.27197480201721,-4.93107271194458
366,1479274113,52.59223175048828,-85.57854461669922,-8.02964591979980,9.81648063659668,0.04552458226681,0.58464568853378,1.97680771350861,-1.74788761138916,-5.67994928359985
367,1479290780,53.63801574707031,-85.48868560791016,-9.06805610656738,9.81447887420654,0.06806328147650,0.65352779626846,1.18017578125000,-1.58783400058746,-6.59267139434814
368,1479307447,54.74243164062500,-85.38493347167969,-10.17778778076172,9.84690380096436,0.09038096666336,0.65460407733917,0.45816642045975,-1.58417129516602,-7.53313159942627
369,1479324114,55.55844116210938,-85.24272155761719,-11.00527954101562,9.91497135162354,0.00575790693983,0.66878092288971,0.04213930293918,0.61412227153778,-8.70397949218750
370,1479340781,56.33772659301758,-85.08370971679688,-11.75060462951660,9.83523273468018,0.13984563946724,0.80750197172165,2.75845670700073,1.28290832042694,-9.39996623992920
371,1479357448,57.44094848632812,-84.93074798583984,-12.79331111907959,9.74693584442139,0.31195360422134,0.86874514818192,4.42662572860718,-0.48416987061501,-10.04097557067871
372,1479374115,58.74407577514648,-84.79933929443359,-14.00003528594971,9.72626876831055,0.40426200628281,0.85714715719223,6.39190196990967,-2.28264307975769,-9.52570056915283
373,1479390782,59.90035629272461,-84.69160461425781,-15.04599189758301,9.68159294128418,0.50351011753082,0.89126032590866,7.36631107330322,-2.58582067489624,-7.88330984115601
374,1479407449,61.12214279174805,-84.59706115722656,-16.14594841003418,9.67666721343994,0.54751658439636,0.79078900814056,8.05607414245605,-3.52021074295044,-7.34855556488037
375,1479424116,62.36173248291016,-84.50566864013672,-17.23222732543945,9.69595909118652,0.66045820713043,0.60902988910675,9.96472263336182,-3.80110621452332,-7.14835453033447
376,1479440783,63.37583160400391,-84.42177581787109,-18.11079597473145,9.83603954315186,0.60438615083694,0.33290755748749,8.83924674987793,-3.17781972885132,-6.18814611434937
377,1479457450,64.19955444335938,-84.32073211669922,-18.72570037841797,9.87712001800537,0.61720442771912,0.37586775422096,13.16790199279785,-1.51798892021179,-6.42537307739258
378,1479474117,65.24833679199219,-84.22192382812500,-19.49618339538574,9.80984592437744,0.82052826881409,0.43240270018578,17.38646697998047,-2.59211087226868,-6.71645259857178
379,1479490784,66.28036499023438,-84.14044189453125,-20.25753784179688,9.76065349578857,1.01306664943695,0.01561378221959,16.93666458129883,-3.16500282287598,-5.74972391128540
380,1479507451,66.68553161621094,-84.05165863037109,-20.40868759155273,9.64121913909912,1.09656405448914,0.01976707763970,15.74446582794189,0.31577283143997,-4.63883495330811
381,1479524118,66.88864898681641,-83.96909332275391,-20.38648223876953,9.65414237976074,1.10551977157593,-0.04290684685111,13.97566318511963,1.13094866275787,-3.89450311660767
382,1479540785,67.02259826660156,-83.89719390869141,-20.32364273071289,9.72011852264404,1.17878425121307,-0.09222690016031,12.24343395233154,1.10305619239807,-3.20380425453186
383,1479557452,67.22476196289062,-83.84738159179688,-20.37325668334961,9.67247962951660,1.28742253780365,-0.16582708060741,9.63181781768799,-0.08329251408577,-2.26201152801514
384,1479574119,67.68444824218750,-83.81462097167969,-20.72688102722168,9.58559226989746,1.33219993114471,-0.22940959036350,6.93914079666138,-2.30450296401978,-2.07402729988098
385,1479590786,68.44227600097656,-83.78359222412109,-21.44092750549316,9.64043235778809,1.34795343875885,-0.40104332566261,3.33803319931030,-4.54889297485352,-2.83577442169189
386,1479607453,69.12974548339844,-83.73171234130859,-22.13918113708496,9.84207057952881,1.33066105842590,-0.44047909975052,0.06047799810767,-4.06783533096313,-3.93991279602051
387,1479624120,69.73706054687500,-83.65618896484375,-22.78414154052734,9.88125705718994,1.26463627815247,-0.41723972558975,-1.56146574020386,-3.33471012115479,-5.11953115463257
388,1479640787,70.22983551025391,-83.55205535888672,-23.31194496154785,9.89937782287598,1.19154274463654,-0.29234448075294,-1.44033062458038,-2.12582898139954,-6.45269918441772
389,1479657454,70.67338562011719,-83.43110656738281,-23.75059890747070,9.84037876129150,1.17307877540588,-0.17684951424599,0.92708390951157,-1.32950437068939,-7.22252750396729
390,1479674121,71.05214691162109,-83.31478881835938,-24.09935379028320,9.69606876373291,1.17156314849854,-0.13895781338215,2.40168356895447,-0.93975561857224,-6.76968002319336
391,1479690788,71.30496215820312,-83.21204376220703,-24.31253242492676,9.52821826934814,1.13480579853058,-0.10877852886915,2.93223834037781,-0.37791544198990,-5.70452547073364
392,1479707455,71.47901916503906,-83.13198852539062,-24.44418525695801,9.42167186737061,1.08620643615723,-0.12150799483061,3.06544971466064,-0.30453500151634,-4.23303651809692
393,1479724122,71.57440948486328,-83.06854248046875,-24.48900032043457,9.33804607391357,1.09693479537964,-0.11227254569530,3.51969099044800,-0.04751155897975,-3.08912253379822
394,1479740789,71.69775390625000,-83.01584625244141,-24.57194137573242,9.32066631317139,1.11414849758148,-0.06536411494017,2.92637252807617,-0.52384376525879,-2.56623888015747
395,1479757456,71.94132232666016,-82.97429656982422,-24.77706146240234,9.36945629119873,1.21270847320557,0.01684149727225,2.87498116493225,-1.59074091911316,-2.22598719596863
396,1479774123,72.19227600097656,-82.94828796386719,-24.99048042297363,9.38928985595703,1.27255856990814,0.03613065555692,2.81302380561829,-1.95979452133179,-1.34214401245117
397,1479790790,72.53713226318359,-82.94865417480469,-25.31813621520996,9.45086860656738,1.28159940242767,-0.14901183545589,1.64773559570312,-3.25246739387512,-0.08659654110670
398,1479807457,72.63830566406250,-82.97547149658203,-25.43463706970215,9.46330451965332,1.17498219013214,-0.19084802269936,-0.40355366468430,-2.24501705169678,1.90327322483063
399,1479824124,72.65709686279297,-83.00888824462891,-25.45351982116699,9.50437831878662,1.23562455177307,-0.20526129007339,0.47467380762100,-1.67284250259399,2.48866462707520
400,1479840791,72.72077941894531,-83.03300476074219,-25.53096580505371,9.57690906524658,1.26741194725037,-0.18536682426929,-0.32296329736710,-1.91230809688568,1.83276152610779
401,1479857458,72.65200805664062,-83.04653167724609,-25.47230720520020,9.76160144805908,1.21918416023254,-0.26326221227646,-0.16096301376820,-0.77820354700089,1.52785527706146
402,1479874125,72.21772003173828,-83.06857299804688,-25.06605529785156,9.90386486053467,1.19361925125122,-0.06268782168627,-1.39459860324860,1.46738350391388,2.76645946502686
403,1479890792,71.68716430664062,-83.12419891357422,-24.58607864379883,9.92361736297607,1.09840345382690,0.05461629480124,-2.77718520164490,1.31163299083710,4.87409114837646
404,1479907459,71.04120635986328,-83.22141265869141,-23.99040794372559,9.87303447723389,1.08904230594635,0.11674638092518,-2.80925226211548,1.21799302101135,7.51006126403809
405,1479924126,70.25599670410156,-83.32585906982422,-23.26088905334473,9.73676204681396,1.00900125503540,0.15533739328384,-3.16949605941772,1.81941807270050,8.22807598114014
406,1479940793,69.42910766601562,-83.40661621093750,-22.44838714599609,9.88355636596680,0.94280713796616,0.11530933529139,-0.72168916463852,2.67205190658569,7.12068414688110
407,1479957460,68.30348968505859,-83.45920562744141,-21.28701591491699,9.91923618316650,0.94671922922134,0.24080361425877,2.15294647216797,5.34969472885132,6.44568777084351
408,1479974127,66.93328857421875,-83.50508880615234,-19.86135101318359,9.88664817810059,0.91856396198273,0.36079800128937,3.24435520172119,6.98870277404785,6.85908937454224
409,1479990794,65.32875061035156,-83.54402923583984,-18.19884300231934,10.06974124908447,0.82964104413986,0.44477486610413,3.30026817321777,8.39691638946533,7.30998849868774
410,1480007461,63.52709197998047,-83.58387756347656,-16.33327102661133,10.11764717102051,0.82099997997284,0.44485896825790,3.60563588142395,9.34196186065674,8.19275760650635
411,1480024128,61.39343643188477,-83.62332916259766,-14.14769172668457,9.94474220275879,1.02422571182251,0.41515123844147,2.76013517379761,10.91423892974854,9.47180652618408
412,1480040795,59.10998153686523,-83.66197967529297,-11.86459255218506,9.73577880859375,1.33566224575043,0.33171054720879,-0.39383396506310,11.07034778594971,10.16345310211182
413,1480057462,56.72785186767578,-83.70169830322266,-9.56123447418213,9.82098674774170,1.40166413784027,0.39478772878647,-5.09709835052490,10.67448043823242,10.71904754638672
414,1480074129,54.06912994384766,-83.73214721679688,-7.07247495651245,9.94784164428711,1.25029814243317,0.58534282445908,-10.62581348419189,11.47011852264404,11.39985084533691
415,1480090796,51.18518447875977,-83.75930023193359,-4.41809272766113,10.18735122680664,0.93310457468033,0.57152628898621,-14.24748420715332,11.85738658905029,12.44114017486572
416,1480107463,48.07166290283203,-83.77042388916016,-1.53271496295929,10.34866333007812,0.91727447509766,0.62508398294449,-14.23888206481934,12.94718647003174,13.30689144134521
417,1480124130,45.01444625854492,-83.75838470458984,1.28895866870880,10.25781345367432,1.05562400817871,0.62681901454926,-14.66361904144287,12.89827823638916,12.74268150329590
418,1480140797,42.13486862182617,-83.68118286132812,3.88827180862427,10.46669673919678,1.32926547527313,0.69551604986191,-17.27467346191406,14.17506313323975,9.78286075592041
419,1480157464,39.28224182128906,-83.53191375732422,6.45222759246826,10.87839508056641,1.62625634670258,1.01121699810028,-17.79186630249023,17.02653694152832,7.75890636444092
420,1480174131,36.39390563964844,-83.32071685791016,8.99078750610352,11.13460159301758,1.91686332225800,1.25777971744537,-21.51389884948730,19.76416969299316,6.61592721939087
421,1480190798,33.70349884033203,-83.14436340332031,11.24338150024414,11.32857513427734,2.03674602508545,1.17492413520813,-26.64855003356934,16.87550735473633,7.59266281127930
422,1480207465,31.50283813476562,-83.00658416748047,13.05062103271484,11.48307323455811,1.74003541469574,0.68818598985672,-23.82977485656738,13.08124351501465,7.18816709518433
423,1480224132,29.43488502502441,-82.76541137695312,14.76381111145020,12.28422069549561,1.35895562171936,1.04721915721893,-21.51501274108887,18.00003623962402,4.26787567138672
424,1480240799,27.25407791137695,-82.39937591552734,16.55133438110352,13.19811916351318,1.30081593990326,1.87266850471497,-23.92743110656738,24.97363471984863,2.39413809776306
425,1480257466,24.60632705688477,-81.97023773193359,18.72831916809082,13.19317913055420,1.92705380916595,2.76157999038696,-28.88819313049316,30.00031280517578,5.34497547149658
426,1480274133,21.51733970642090,-81.47743988037109,21.14860153198242,12.42192554473877,2.13324260711670,3.14379739761353,-41.06404113769531,34.46194458007812,8.28624916076660
427,1480290800,18.10993957519531,-80.79209899902344,23.66341018676758,11.27652168273926,2.06345844268799,3.73400282859802,-54.78457641601562,45.63620376586914,8.57635688781738
428,1480307467,14.95606899261475,-79.92581176757812,25.69194793701172,9.21895599365234,2.17018818855286,4.36791038513184,-68.66300964355469,54.69666671752930,5.39112663269043
429,1480324134,12.39039993286133,-78.88786315917969,26.91251182556152,6.35895633697510,2.42189168930054,3.43194317817688,-81.37390899658203,62.77450561523438,-0.99721628427505
430,1480340801,10.31153011322021,-77.49584960937500,27.53126335144043,3.96653175354004,2.10344910621643,2.22777152061462,-87.81481170654297,82.45355224609375,-8.34107685089111
431,1480357468,8.77881717681885,-75.96674346923828,27.61473655700684,1.54594326019287,1.09179925918579,-0.01897277310491,-86.51084136962891,89.74324798583984,-13.42936897277832
432,1480374135,8.09786415100098,-74.41838073730469,27.25458908081055,-1.13145172595978,-0.20672369003296,-2.19981074333191,-61.17702865600586,90.15975952148438,-18.44225502014160
433,1480390802,8.58150196075439,-73.04394531250000,26.56542396545410,-1.90299415588379,-1.22428643703461,-2.32902789115906,-10.10810470581055,78.98932647705078,-22.76833152770996
434,1480407469,8.37736988067627,-71.88058471679688,26.63579750061035,-0.48864856362343,0.26683828234673,-2.62171196937561,-7.65482950210571,68.29960632324219,-8.38193511962891
435,1480424136,6.54937887191772,-71.18096160888672,28.33225822448730,0.05044893920422,-0.88487696647644,-2.26313853263855,-12.56300449371338,44.88073348999023,27.17105484008789
436,1480440803,3.36724925041199,-70.68647766113281,31.25195503234863,2.04521918296814,-1.65610778331757,-2.61841750144958,-24.77871704101562,33.57711791992188,55.09099960327148
437,1480457470,-0.19694077968597,-70.14367675781250,34.37323760986328,2.58853483200073,-2.63449501991272,-2.02918958663940,-36.83050918579102,33.35958862304688,62.49165725708008
438,1480474137,-3.26808786392212,-69.56304168701172,36.99117279052734,2.20606398582458,-2.55326700210571,-1.53771138191223,-36.22638320922852,32.26162338256836,55.76944732666016
439,1480490804,-5.66578674316406,-68.80461883544922,38.92520523071289,1.51091539859772,-1.29979562759399,-0.53067547082901,-34.81481170654297,41.23645782470703,45.29928970336914
440,1480507471,-7.55692481994629,-67.94723510742188,40.35266494750977,0.10240164399147,-1.37254595756531,0.63152289390564,-33.44298171997070,46.56153106689453,37.84772491455078
441,1480524138,-8.95477104187012,-67.32806396484375,41.47523880004883,-1.66572487354279,-1.34055507183075,0.94292235374451,-21.20815467834473,32.18602752685547,31.25103950500488
442,1480540805,-9.89098453521729,-66.77738952636719,42.32447814941406,-2.08177232742310,-0.35447373986244,0.17905768752098,-8.94724273681641,28.44701004028320,25.53151130676270
443,1480557472,-10.44770908355713,-66.18490600585938,42.89643096923828,-1.95471096038818,0.73936897516251,0.40659138560295,-1.62624800205231,31.68137931823730,20.28048706054688
444,1480574139,-10.79347896575928,-65.63607788085938,43.32638168334961,-2.44106721878052,0.95083540678024,2.19091343879700,3.14451599121094,29.52826309204102,16.95482254028320
445,1480590806,-10.94865322113037,-65.47713470458984,43.99141693115234,-0.57594662904739,-0.15435543656349,1.13043344020844,27.39452362060547,5.34753704071045,18.56731605529785
446,1480607473,-10.70974540710449,-65.13339233398438,44.31570053100586,6.06300020217896,-4.11501216888428,6.15009832382202,32.36681747436523,17.82835960388184,12.40120315551758
447,1480624140,-10.38098144531250,-65.15242767333984,45.36343383789062,26.17203330993652,-10.32863235473633,15.65883350372314,77.15940093994141,-6.86809206008911,26.32433700561523
448,1480640807,-9.76916980743408,-63.25065994262695,45.61211395263672,40.97221374511719,-9.89203071594238,20.83069229125977,50.64360046386719,110.28865051269531,26.95236015319824
449,1480657474,-10.74976062774658,-63.03722381591797,46.49491500854492,27.68162345886230,-6.35124540328979,16.61264610290527,-11.06812667846680,7.41479015350342,26.41651344299316
450,1480674141,-11.32693004608154,-63.17962646484375,47.14408493041992,32.64439773559570,5.83408880233765,5.53504800796509,0.64009433984756,-12.68990802764893,16.25037765502930
451,1480690808,-9.98374938964844,-64.22953796386719,46.05535888671875,37.98624038696289,-0.63522350788116,7.93640661239624,22.58073043823242,-57.47899246215820,-39.46333312988281
452,1480707475,-8.25131702423096,-65.11330413818359,44.49098587036133,43.92296218872070,-4.58831787109375,11.90712356567383,19.64343833923340,-46.90222930908203,-47.43057632446289
453,1480724142,-7.25956821441650,-65.80850982666016,43.71519470214844,43.23195266723633,-3.78796744346619,11.97819709777832,17.67027282714844,-39.62351608276367,-24.18141746520996
454,1480740809,-6.68807840347290,-66.48765563964844,43.49128723144531,39.73447799682617,-4.87186336517334,7.42813158035278,22.44384956359863,-40.68204498291016,-9.77007961273193
455,1480757476,-6.64645671844482,-67.77173614501953,43.91217803955078,33.60440444946289,-3.01007747650146,6.42818784713745,26.11388778686523,-78.54284667968750,1.33124589920044
456,1480774143,-6.52371311187744,-69.68158721923828,44.20234680175781,28.41283416748047,-0.02887083776295,0.60183089971542,23.90364456176758,-115.43064880371094,-6.34607601165771
457,1480790810,-6.08873939514160,-72.25295257568359,44.01596069335938,22.72985839843750,-0.52972412109375,-2.82194662094116,15.81821441650391,-153.81369018554688,-20.04506492614746
458,1480807477,-4.97305870056152,-75.05245971679688,43.37850952148438,15.80323791503906,1.28148508071899,-2.54264283180237,30.49969482421875,-167.01118469238281,-26.36936569213867
459,1480824144,-3.26363086700439,-77.97737884521484,41.86719512939453,10.73425388336182,3.44061923027039,2.13090515136719,14.60177326202393,-174.36863708496094,-33.14780807495117
460,1480840811,-0.50859475135803,-78.31519317626953,38.69686508178711,8.22207832336426,2.76588988304138,15.58968925476074,-20.58159637451172,-19.82216262817383,-39.14308547973633
461,1480857478,1.30818235874176,-77.96327209472656,35.63419723510742,5.86587095260620,1.30488443374634,26.54154205322266,-70.26678466796875,19.97358131408691,-37.27219390869141
462,1480874145,3.97548770904541,-76.69586181640625,32.85391235351562,-11.06813812255859,-5.27943944931030,23.61681938171387,-2.16008687019348,73.36476135253906,-39.41043472290039
463,1480890812,12.07713317871094,-79.38859558105469,25.16972541809082,-18.01777458190918,-7.09287452697754,11.15258598327637,35.43923187255859,-173.89454650878906,-71.37718200683594
464,1480907479,21.52773857116699,-80.20541381835938,15.96817970275879,-3.92793464660645,-2.93140244483948,-2.18781137466431,24.17708015441895,-75.94753265380859,-78.75928497314453
465,1480924146,26.55517387390137,-80.85365295410156,11.45547771453857,-4.08586502075195,-0.49442824721336,-5.86593627929688,35.12459945678711,-54.57471847534180,-24.21410751342773
466,1480940813,25.53314590454102,-81.84751129150391,12.40006446838379,6.25191593170166,4.93793869018555,-3.48856544494629,-4.73314952850342,-50.77466201782227,34.46064376831055
467,1480957480,20.19388198852539,-82.44872283935547,17.59818077087402,10.05873680114746,4.49832344055176,-0.13061727583408,-10.83120059967041,-17.60245895385742,53.86654663085938
468,1480974147,17.83292198181152,-82.73669433593750,19.49201202392578,7.99260377883911,-1.78763604164124,0.27680242061615,-28.41379928588867,-12.49203681945801,20.10371398925781
469,1480990814,15.28255844116211,-82.12633514404297,22.06196212768555,3.07192230224609,-1.20103728771210,1.80922889709473,0.39981022477150,39.96179199218750,9.65190219879150
470,1481007481,11.75041103363037,-81.43382263183594,25.51470756530762,0.94619357585907,-0.94241094589233,2.66292476654053,-6.31657123565674,46.38256072998047,19.70502090454102
471,1481024148,8.83901691436768,-80.62071990966797,28.30290985107422,0.10315236449242,-1.81233596801758,3.23485946655273,-8.86151409149170,51.73176956176758,17.57158470153809
472,1481040815,8.41604995727539,-80.02289581298828,28.84265899658203,-0.13116760551929,-1.46416079998016,2.84899139404297,7.11093091964722,35.34786224365234,0.62548422813416
473,1481057482,9.29455757141113,-79.44467926025391,27.95719909667969,-1.02027368545532,-0.26763969659805,1.57342636585236,1.00199222564697,31.89074707031250,-14.07207202911377
474,1481074149,9.87355613708496,-78.69264984130859,27.25198173522949,-2.08521962165833,1.19534337520599,-0.31695505976677,-6.24025821685791,42.21932983398438,-14.79998016357422
475,1481090816,10.69880485534668,-78.27030944824219,26.57945632934570,-3.84770512580872,2.26571154594421,-0.80925029516220,10.54634666442871,22.56282043457031,-11.82800292968750
476,1481107483,11.56800460815430,-78.16152954101562,25.71098136901855,-2.68233537673950,2.43937301635742,-1.38487446308136,1.70886087417603,3.41272115707397,-11.07316970825195
477,1481124150,11.60265827178955,-77.98482513427734,25.51388740539551,-0.63821917772293,0.95135289430618,-0.80213820934296,-8.92755603790283,8.95532703399658,-3.89253115653992
478,1481140817,10.80817127227783,-77.68390655517578,26.01874542236328,0.17614930868149,0.00005599702126,-0.19054831564426,-17.49183464050293,18.01426506042480,3.38405370712280
479,1481157484,9.92833709716797,-77.42582702636719,26.64783668518066,-0.06828438490629,-0.34574916958809,-0.10532555729151,-15.36007976531982,15.76703262329102,5.84460496902466
480,1481174151,9.69342327117920,-77.23696899414062,26.71261787414551,0.54600048065186,-0.55261772871017,0.19539248943329,-9.73549747467041,10.37767791748047,-0.46081119775772
481,1481190818,10.40201282501221,-76.98413848876953,25.91292572021484,1.97498238086700,-1.21246111392975,0.28981772065163,-3.69148540496826,12.13164043426514,-12.55324459075928
482,1481207485,11.30472850799561,-76.57307434082031,24.97475051879883,2.81316089630127,-1.49592852592468,1.06259822845459,-0.06874465197325,20.86511230468750,-16.65679931640625
483,1481224152,11.99630546569824,-76.17606353759766,24.34690475463867,1.06748878955841,-0.78484654426575,1.39119970798492,5.45124626159668,20.60267639160156,-12.87260055541992
484,1481240819,12.29328536987305,-75.88663482666016,24.06174278259277,-0.64958989620209,-0.84782218933105,1.04904270172119,1.78558468818665,15.17656993865967,-7.06402730941772
485,1481257486,12.44013023376465,-75.85575103759766,24.05043983459473,-1.94716882705688,-1.18479847908020,1.23382103443146,8.72378253936768,0.84003907442093,0.06767516583204
486,1481274153,12.66036033630371,-76.03358459472656,23.99377632141113,-1.70677304267883,-1.39859628677368,1.24602723121643,10.48145008087158,-11.53892898559570,2.13846373558044
487,1481290820,13.35323715209961,-76.40760803222656,23.53453445434570,-2.07733416557312,-0.85681188106537,1.10312342643738,15.37609767913818,-24.28712081909180,-0.71891218423843
488,1481307487,14.31865596771240,-76.88732910156250,22.77830505371094,-1.59082257747650,-0.83318358659744,0.31103101372719,14.34331893920898,-31.39894676208496,-2.66589617729187
489,1481324154,15.29929924011230,-77.26214599609375,22.20827865600586,0.22948710620403,-1.45785677433014,0.25037986040115,26.06653594970703,-24.64494323730469,-1.02442288398743
490,1481340821,15.60370063781738,-77.30542755126953,22.21986961364746,4.50333642959595,-0.94458222389221,7.11159324645996,19.51107025146484,-3.40514898300171,1.45991969108582
491,1481357488,14.54762363433838,-77.67836761474609,24.12771224975586,16.03228569030762,3.02730178833008,5.72573471069336,48.68526458740234,-16.12553596496582,30.31339073181152
492,1481374155,8.54946422576904,-78.72256469726562,30.45413398742676,60.48686599731445,5.06832361221313,10.13076496124268,11.99782657623291,-46.72901153564453,89.08864593505859
493,1481390822,-3.00815987586975,-77.33049011230469,41.44389343261719,80.61901855468750,10.79898643493652,21.09893798828125,-47.90827178955078,88.70392608642578,132.98130798339844
494,1481407489,-3.46176314353943,-76.14117431640625,41.50534439086914,2.75186371803284,-11.26998710632324,0.98262888193130,-23.13643836975098,70.24339294433594,5.48993873596191
495,1481424156,-0.20759369432926,-76.75370025634766,38.38076019287109,20.14743041992188,5.03196048736572,-2.31406092643738,13.45502090454102,-36.27372360229492,-44.47650527954102
496,1481440823,0.54212695360184,-77.21731567382812,37.35218429565430,26.86772155761719,1.07702183723450,-2.83255767822266,-14.66611385345459,-28.80778884887695,-13.20582389831543
497,1481457490,0.43406960368156,-78.01551818847656,37.23949432373047,23.14750480651855,2.02028441429138,-2.73809766769409,-12.60290622711182,-48.84102249145508,-0.42914465069771
498,1481474157,-0.05674241855741,-78.28730010986328,37.48366546630859,20.84826850891113,-0.28008782863617,-1.16864430904388,-14.64348316192627,-17.23183250427246,3.67347598075867
499,1481490824,0.79236704111099,-78.31462097167969,36.42427825927734,16.34963798522949,-0.52901309728622,0.99723643064499,-10.84037971496582,-2.64944386482239,-12.26649570465088
500,1481507491,2.28142142295837,-78.43991851806641,34.66778182983398,12.70879936218262,0.54004085063934,1.35599994659424,-13.43410778045654,-9.00867271423340,-20.40996170043945
501,1481524158,4.08373165130615,-78.57806396484375,32.65013504028320,8.60191917419434,-0.41952079534531,1.26936590671539,-10.04688930511475,-10.53492736816406,-23.00573158264160
502,1481540825,5.31269454956055,-78.64276885986328,31.25916290283203,11.61370849609375,0.33597031235695,3.06958484649658,-7.62437105178833,-6.13974237442017,-15.49598121643066
503,1481557492,5.12771511077881,-78.54785156250000,31.32583045959473,10.06711673736572,-0.30278241634369,3.22403645515442,-6.71863508224487,4.82260990142822,0.88040465116501
504,1481574159,4.70745754241943,-78.51909637451172,31.85458946228027,7.48969459533691,-0.97863489389420,3.20768189430237,6.33566713333130,1.33938431739807,6.74530410766602
505,1481590826,5.74143314361572,-78.53170013427734,30.96666336059570,4.97489166259766,-0.77718812227249,3.07552266120911,10.27244853973389,-2.64858579635620,-9.87608528137207
506,1481607493,7.56021785736084,-78.74394226074219,29.37797927856445,4.29213094711304,-1.12836313247681,1.77890539169312,16.12899589538574,-15.75414562225342,-16.56569862365723
507,1481624160,8.69124794006348,-79.02345275878906,28.52321815490723,4.55057954788208,-0.49983674287796,1.53435814380646,18.01023292541504,-18.92996788024902,-6.80496501922607
508,1481640827,8.69485950469971,-79.30734252929688,28.70272254943848,5.39171266555786,0.48324140906334,1.68133318424225,11.26656436920166,-17.46739006042480,5.18713712692261
509,1481657494,8.35918331146240,-79.56293487548828,29.07039451599121,6.11761856079102,0.84334564208984,1.89822769165039,2.02396225929260,-15.49800300598145,6.88557767868042
510,1481674161,8.47568225860596,-79.75122070312500,28.92476272583008,6.57386255264282,0.82379937171936,2.19061613082886,-1.12888038158417,-12.33688831329346,0.71584337949753
511,1481690828,9.24695682525635,-79.86372375488281,28.11762046813965,6.30794715881348,0.44371774792671,2.27669811248779,-0.91199171543121,-8.92542743682861,-6.81032896041870
512,1481707495,10.09057426452637,-79.91337585449219,27.26078033447266,6.46092510223389,0.17862795293331,2.36788153648376,0.49016949534416,-5.38758134841919,-7.77830934524536
513,1481724162,10.78439998626709,-79.96220397949219,26.59406280517578,7.76094770431519,0.36177024245262,2.51357364654541,2.72053647041321,-5.08399391174316,-5.72479772567749
514,1481740829,11.36377811431885,-80.10254669189453,26.08615303039551,10.06791019439697,0.58729588985443,2.40732598304749,5.23138999938965,-10.21244239807129,-2.94069814682007
515,1481757496,11.42245864868164,-80.28861999511719,26.07831573486328,12.33661365509033,0.75359320640564,2.09942317008972,3.53828787803650,-11.90493011474609,2.74623990058899
516,1481774163,10.81056213378906,-80.48871612548828,26.69514274597168,13.05484771728516,0.13891255855560,1.99586868286133,0.25637689232826,-11.52891254425049,8.99511718750000
517,1481790830,9.83019161224365,-80.67624664306641,27.63621520996094,12.26798629760742,0.04167563095689,2.01017022132874,-2.63444757461548,-10.35367298126221,11.72280788421631
518,1481807497,8.96401977539062,-80.81324768066406,28.45763587951660,10.83102607727051,-0.01921583712101,1.99485158920288,-2.85189867019653,-7.75692462921143,9.77853012084961
519,1481824164,8.55226135253906,-80.89101409912109,28.88071060180664,10.09805011749268,0.03158019110560,2.07535028457642,0.83965480327606,-4.93281412124634,5.31707477569580
520,1481840831,8.66881465911865,-80.90385437011719,28.84060478210449,9.58650493621826,0.14627447724342,2.25658750534058,5.09432172775269,-1.75826096534729,0.35766217112541
521,1481857498,9.25925254821777,-80.93865966796875,28.40312576293945,9.41824913024902,0.05052455514669,2.10885405540466,9.98852825164795,-3.65407562255859,-3.14429330825806
522,1481874165,10.00108623504639,-80.94171142578125,27.93255996704102,9.25965690612793,-0.15531733632088,2.04930996894836,17.10874176025391,-1.85926604270935,-3.73334908485413
523,1481890832,10.51393985748291,-80.94909667968750,27.76389312744141,9.04948806762695,-0.29920479655266,1.93035840988159,21.25736427307129,-1.65736198425293,-0.87083309888840
524,1481907499,10.59791755676270,-80.99169158935547,28.04070091247559,9.03313064575195,-0.30318158864975,1.70796060562134,21.91494750976562,-2.98598480224609,3.64922022819519
525,1481924166,10.43548202514648,-81.06954193115234,28.56782150268555,9.32310581207275,-0.16460369527340,1.60649347305298,21.97719192504883,-4.63023376464844,6.31604576110840
526,1481940833,10.33813953399658,-81.18844604492188,29.02433586120605,9.57036590576172,0.12839469313622,1.55086195468903,21.69992256164551,-7.20368862152100,6.05816507339478
527,1481957500,10.27893066406250,-81.33302307128906,29.38722801208496,9.62510395050049,0.51180285215378,1.46142399311066,18.44828605651855,-8.88381671905518,5.42319631576538
528,1481974167,10.20902061462402,-81.50102996826172,29.68752670288086,9.75919914245605,0.75855797529221,1.35023868083954,14.09434509277344,-10.39696121215820,5.05786752700806
529,1481990834,10.18284130096436,-81.66973114013672,29.88038063049316,9.89468097686768,0.79488086700439,1.37734627723694,10.36167144775391,-10.60201358795166,4.07693719863892
530,1482007501,10.20536136627197,-81.82667541503906,29.98112678527832,10.02035713195801,0.82672172784805,1.28442955017090,7.80714607238770,-10.06381130218506,3.14007377624512
531,1482024168,10.19635009765625,-81.94667816162109,30.08146476745605,10.07672023773193,0.66645312309265,1.19959187507629,5.89306735992432,-7.88060665130615,2.73143482208252
532,1482040835,10.26525402069092,-82.03811645507812,30.08172416687012,10.04756832122803,0.51400220394135,1.24875462055206,4.62755584716797,-6.34275531768799,1.59835433959961
533,1482057502,10.39860630035400,-82.12094879150391,30.00666427612305,9.89752960205078,0.53339898586273,1.37320888042450,4.01596260070801,-5.94533586502075,0.90341758728027
534,1482074169,10.54050540924072,-82.21701812744141,29.90745925903320,9.70845317840576,0.43465381860733,1.35332822799683,3.09029483795166,-6.76300954818726,0.87263131141663
535,1482090836,10.75173854827881,-82.32984924316406,29.73319053649902,9.58636474609375,0.23124852776527,1.36504161357880,2.78759026527405,-7.85979509353638,0.49282041192055
536,1482107503,11.03433132171631,-82.44615173339844,29.49569129943848,9.63607501983643,0.09850458055735,1.31214690208435,3.30544114112854,-8.14754104614258,0.08755061775446
537,1482124170,11.45212459564209,-82.55212402343750,29.13860511779785,9.67930316925049,-0.07556859403849,1.39310002326965,4.29455280303955,-7.73570346832275,-0.87850302457809
538,1482140837,11.92965888977051,-82.66059112548828,28.73492431640625,9.81135845184326,-0.01691504567862,1.41041755676270,5.10702610015869,-7.94996547698975,-1.10891485214233
539,1482157504,12.31140804290771,-82.73271942138672,28.42166709899902,9.77139759063721,0.06435748934746,1.29345679283142,4.74262142181396,-5.67218971252441,-0.80367547273636
540,1482174171,12.50708866119385,-82.79100036621094,28.29239463806152,9.76076602935791,-0.01987194828689,1.38750267028809,4.52027702331543,-4.57246923446655,0.42101523280144
541,1482190838,12.46073818206787,-82.85364532470703,28.41616821289062,9.84026908874512,0.13182328641415,1.32257652282715,5.05971908569336,-4.41815328598022,2.34186553955078
542,1482207505,12.21943569183350,-82.92881774902344,28.73214340209961,9.88855838775635,0.25439673662186,1.35472631454468,4.80863761901855,-4.84922790527344,3.87791085243225
543,1482224172,11.91835117340088,-83.02804565429688,29.10540771484375,9.77417659759521,0.18796230852604,1.22149205207825,4.62990045547485,-6.20415353775024,4.54542970657349
544,1482240839,11.66210556030273,-83.12251281738281,29.44097137451172,9.65837383270264,0.14177966117859,1.08504498004913,5.08449983596802,-6.00155687332153,4.15751171112061
545,1482257506,11.49203586578369,-83.20545959472656,29.68967247009277,9.73355674743652,0.13895575702190,1.07190215587616,5.08662509918213,-5.46689033508301,3.36259579658508
546,1482274173,11.39827156066895,-83.28765106201172,29.85704803466797,9.80790805816650,-0.01688586920500,1.12964165210724,4.81957387924194,-5.54655838012695,2.75982666015625
547,1482290840,11.37486934661865,-83.37477874755859,29.94949150085449,9.85913944244385,0.08693039417267,1.08948850631714,4.58172273635864,-5.94144296646118,2.28679823875427
548,1482307507,11.44523525238037,-83.45059967041016,29.94245338439941,9.87957096099854,0.16114364564419,1.04245066642761,4.27688074111938,-5.40990304946899,1.47538805007935
549,1482324174,11.47802162170410,-83.50692749023438,29.96237754821777,9.92530250549316,0.31513771414757,0.99825012683868,3.63052988052368,-4.22868251800537,1.42847800254822
550,1482340841,11.44275856018066,-83.55749511718750,30.02174758911133,10.07058811187744,0.25050163269043,1.01052618026733,1.89478290081024,-3.84590101242065,1.62127780914307
551,1482357508,11.43520927429199,-83.61119842529297,30.03413581848145,9.96311569213867,0.07850765436888,0.99010497331619,0.75120133161545,-4.08927249908447,1.34425055980682
552,1482374175,11.47316169738770,-83.65745544433594,30.01074600219727,9.85168075561523,0.03088102489710,1.01246380805969,1.35283100605011,-3.69766759872437,1.02372050285339
553,1482390842,11.45697498321533,-83.69653320312500,30.04219818115234,9.94140529632568,0.10651862621307,1.07907199859619,1.37822568416595,-3.19983291625977,1.29389584064484
554,1482407509,11.28312301635742,-83.72745513916016,30.22700500488281,9.93654918670654,0.22755645215511,1.08447349071503,1.06252360343933,-2.52008461952209,2.17917323112488
555,1482424176,11.00033855438232,-83.75747680664062,30.51962852478027,9.90505313873291,0.25319167971611,1.04797112941742,0.95468145608902,-2.34586739540100,2.85046982765198
556,1482440843,10.65941047668457,-83.77899932861328,30.86974334716797,9.93822669982910,0.30125153064728,1.04426085948944,0.89952439069748,-1.78640890121460,3.10636568069458
557,1482457510,10.24111747741699,-83.79907226562500,31.26404380798340,9.92351055145264,0.19066931307316,1.01961934566498,-1.10849225521088,-1.66837298870087,3.35998320579529
558,1482474177,9.76854991912842,-83.81033325195312,31.70633697509766,9.82966518402100,0.12116590887308,1.04152369499207,-1.50432372093201,-1.11075901985168,3.56059503555298
559,1482490844,9.41952610015869,-83.81562805175781,32.02303314208984,9.75881195068359,0.08488316088915,1.08776104450226,-1.58157122135162,-0.91455262899399,2.69562768936157
560,1482507511,9.23539638519287,-83.81690216064453,32.17282104492188,9.83462619781494,0.08392278850079,1.07881343364716,-1.64505231380463,-0.86001044511795,1.59174609184265
561,1482524178,9.02446556091309,-83.80736541748047,32.34226226806641,9.87309741973877,0.06971850991249,1.05899286270142,-2.07590937614441,-0.20485037565231,1.61591172218323
562,1482540845,8.79047679901123,-83.79919433593750,32.53195953369141,9.79122829437256,0.11778452992439,1.13826930522919,-2.25988531112671,-0.27484989166260,1.76250576972961
563,1482557512,8.59048080444336,-83.81918334960938,32.68917465209961,9.78211688995361,0.10339587926865,1.09134852886200,-2.15324687957764,-1.97803032398224,1.81188714504242
564,1482574179,8.39665317535400,-83.84782409667969,32.84133911132812,9.80957031250000,0.00861129164696,1.05381786823273,-2.08261990547180,-2.49958181381226,1.84842383861542
565,1482590846,8.16993618011475,-83.87980651855469,33.03641510009766,9.87011432647705,-0.02035004831851,1.04777801036835,-1.48975002765656,-2.66676878929138,2.14033174514771
566,1482607513,7.91864299774170,-83.91092681884766,33.25729370117188,9.85162448883057,0.01800718531013,1.04808986186981,-1.42685806751251,-2.59262013435364,2.28121447563171
567,1482624180,7.69841718673706,-83.93828582763672,33.43906402587891,9.80660343170166,0.08730369806290,0.98025429248810,-1.90005254745483,-2.41088509559631,1.99061274528503
568,1482640847,7.42645549774170,-83.96857452392578,33.65570449829102,9.81654167175293,0.15108680725098,1.01168155670166,-2.92216563224792,-2.56667423248291,2.22107553482056
569,1482657514,7.10670089721680,-84.00505065917969,33.90182113647461,9.85905742645264,0.06935445964336,1.07285845279694,-4.03072166442871,-2.91599345207214,2.43591523170471
570,1482674181,6.79790925979614,-84.04053497314453,34.13283538818359,9.83102321624756,0.06144598126411,1.03237795829773,-4.27784633636475,-2.89114880561829,2.31590676307678
571,1482690848,6.53922176361084,-84.07511138916016,34.30050659179688,9.78453350067139,0.04234299436212,0.92229884862900,-5.04554843902588,-2.87923884391785,1.89922654628754
572,1482707515,6.31511306762695,-84.10057067871094,34.41324996948242,9.86193370819092,-0.04902858659625,0.89353674650192,-6.24483871459961,-2.38155865669250,1.48884725570679
573,1482724182,6.19421339035034,-84.11071014404297,34.43920898437500,9.90068626403809,-0.14612351357937,0.90268301963806,-5.23240613937378,-1.53256165981293,0.85187214612961
574,1482740849,6.20445919036865,-84.12634277343750,34.35924148559570,9.82131767272949,-0.13829925656319,0.97612386941910,-3.68907356262207,-1.93030095100403,0.23784591257572
575,1482757516,6.30798244476318,-84.15464019775391,34.19698333740234,9.76358890533447,-0.07909830659628,0.98190057277679,-2.99379205703735,-2.73181223869324,-0.17670202255249
576,1482774183,6.37088108062744,-84.18843841552734,34.07569885253906,9.75931549072266,-0.04804433882236,0.93484264612198,-2.99860668182373,-3.05213737487793,0.11630087345839
577,1482790850,6.40667438507080,-84.23044586181641,33.98884582519531,9.86992359161377,-0.03449539467692,0.91668808460236,-2.55819678306580,-3.49499392509460,0.38315957784653
578,1482807517,6.42756271362305,-84.26574707031250,33.92230606079102,9.86493206024170,-0.04482897743583,0.91354209184647,-2.24149560928345,-3.08826446533203,0.46459522843361
579,1482824184,6.45132160186768,-84.29425811767578,33.85272598266602,9.80526161193848,-0.02006310410798,0.92703676223755,-2.26518702507019,-2.69941210746765,0.40514802932739
580,1482840851,6.43871736526489,-84.32604980468750,33.81080627441406,9.81935405731201,-0.04678115621209,0.91212356090546,-2.78602170944214,-2.86172008514404,0.59094274044037
581,1482857518,6.49029731750488,-84.35756683349609,33.70767211914062,9.82046699523926,-0.08072168380022,0.89084839820862,-2.60227632522583,-2.89819264411926,0.23256975412369
582,1482874185,6.60596799850464,-84.39706420898438,33.55156707763672,9.81116390228271,-0.08660262078047,0.95281344652176,-1.91525375843048,-3.39839577674866,-0.01614880934358
583,1482890852,6.77099037170410,-84.44737243652344,33.34608078002930,9.84879398345947,-0.09354741871357,0.93009150028229,-1.89623618125916,-4.08160161972046,-0.21249577403069
584,1482907519,6.95520734786987,-84.48612213134766,33.12092590332031,9.95308017730713,-0.12749733030796,0.87142103910446,-1.92368030548096,-3.40353107452393,-0.38912096619606
585,1482924186,7.11814641952515,-84.50542449951172,32.92142486572266,9.93883323669434,-0.08289305865765,0.87520867586136,-1.66937160491943,-2.22626852989197,-0.37342035770416
586,1482940853,7.24112176895142,-84.51641845703125,32.75863265991211,9.91499996185303,-0.04710866883397,0.89330816268921,-1.88469791412354,-1.72328639030457,-0.21883492171764
587,1482957520,7.35764980316162,-84.52557373046875,32.59962081909180,9.81743431091309,-0.03579668700695,0.90686732530594,-2.03678584098816,-1.59877038002014,-0.20848737657070
588,1482974187,7.44206237792969,-84.53678894042969,32.46653366088867,9.76937675476074,0.04311494901776,0.89733487367630,-2.40811896324158,-1.70142614841461,-0.04292688518763
589,1482990854,7.50269842147827,-84.55662536621094,32.34880447387695,9.77851772308350,0.04091520980000,0.91707843542099,-2.92873549461365,-2.21351361274719,0.11514830589294
590,1483007521,7.53234148025513,-84.57429504394531,32.26422119140625,9.76774692535400,-0.02553080581129,0.86828017234802,-2.80575585365295,-2.05911993980408,0.28759858012199
591,1483024188,7.56536769866943,-84.58506774902344,32.17961120605469,9.77216625213623,-0.07996058464050,0.87626051902771,-2.60933232307434,-1.64789557456970,0.23490047454834
592,1483040855,7.61826229095459,-84.59901428222656,32.07901000976562,9.80379867553711,-0.09577342867851,0.89157986640930,-2.36213111877441,-1.84191167354584,0.17116326093674
593,1483057522,7.70772171020508,-84.61598968505859,31.95046043395996,9.91132926940918,-0.11042752861977,0.90135896205902,-1.84860944747925,-2.04089689254761,0.04103794693947
594,1483074189,7.84078311920166,-84.63286590576172,31.79118347167969,9.86766815185547,-0.12992766499519,0.88011497259140,-1.05877780914307,-2.06247544288635,-0.12536135315895
595,1483090856,7.99241590499878,-84.64778900146484,31.62225341796875,9.81486988067627,-0.10783056914806,0.90512102842331,-0.52590548992157,-1.96175324916840,-0.18867592513561
596,1483107523,8.09639263153076,-84.66314697265625,31.50899124145508,9.81236648559570,-0.07570792734623,0.89807075262070,-0.05217306688428,-1.93556439876556,0.12668679654598
597,1483124190,8.15000247955322,-84.67681884765625,31.45343399047852,9.82590770721436,-0.05294758453965,0.90583169460297,0.36001849174500,-1.80382549762726,0.43396234512329
598,1483140857,8.16982650756836,-84.69012451171875,31.43320083618164,9.76173591613770,-0.00835338048637,0.89828509092331,0.45172470808029,-1.74719560146332,0.62614721059799
599,1483157524,8.17954540252686,-84.70831298828125,31.42404174804688,9.75750160217285,-0.04341349750757,0.86509251594543,0.51113349199295,-2.02324986457825,0.72870051860809
600,1483174191,8.17884635925293,-84.72154998779297,31.42685127258301,9.84666824340820,-0.04153249412775,0.90824770927429,0.58877837657928,-1.73417186737061,0.75307101011276
601,1483190858,8.18593502044678,-84.73266601562500,31.43064308166504,9.86782932281494,-0.04929850623012,0.94336736202240,1.11446619033813,-1.59747672080994,0.73918884992599
602,1483207525,8.16339206695557,-84.74581146240234,31.47052383422852,9.87125110626221,0.00426273094490,0.83273905515671,1.50381779670715,-1.68467545509338,0.95323431491852
603,1483224192,8.07186126708984,-84.75244903564453,31.57558250427246,9.84071731567383,0.02245723828673,0.82665193080902,1.25598919391632,-1.25133407115936,1.25053358078003
604,1483240859,8.06276798248291,-84.76224517822266,31.60680007934570,9.80434417724609,-0.02667595446110,0.84081292152405,1.78729915618896,-1.50232577323914,0.87652426958084
605,1483257526,8.09034156799316,-84.76621246337891,31.60157394409180,9.80161094665527,-0.04314856976271,0.89589750766754,1.81064498424530,-1.18730223178864,0.63092404603958
606,1483274193,8.14051151275635,-84.77370452880859,31.57399368286133,9.76283168792725,-0.01849745027721,0.93571484088898,1.83893430233002,-1.39967000484467,0.53727120161057
607,1483290860,8.15705966949463,-84.79116821289062,31.57496452331543,9.73231410980225,0.05622131377459,0.95992541313171,1.52411580085754,-1.97462368011475,0.77769756317139
608,1483307527,8.17645263671875,-84.81329345703125,31.56922721862793,9.75236797332764,0.05662940442562,0.92710900306702,1.29823732376099,-2.25522375106812,0.78164201974869
609,1483324194,8.23125362396240,-84.83920288085938,31.52632713317871,9.76876640319824,0.06469901651144,0.93663299083710,1.18983161449432,-2.51895785331726,0.61729812622070
610,1483340861,8.37360572814941,-84.86794281005859,31.39294624328613,9.84476280212402,0.02486063912511,0.89016199111938,1.03577125072479,-2.75602912902832,0.16403013467789
611,1483357528,8.58813190460205,-84.90023040771484,31.19312858581543,9.85874652862549,0.00635139457881,0.93827712535858,1.40566968917847,-3.00985050201416,-0.14738826453686
612,1483374195,8.78487205505371,-84.93608856201172,31.01214027404785,9.79856586456299,-0.02148379199207,0.92121607065201,1.45873916149139,-3.21778726577759,0.00040340001578
613,1483390862,8.98389244079590,-84.97079467773438,30.82942199707031,9.82360839843750,-0.01076360419393,0.90376216173172,1.48670840263367,-3.15627837181091,-0.00498166959733
614,1483407529,9.19523811340332,-85.00072479248047,30.63999366760254,9.86722278594971,-0.00374506786466,0.89360684156418,1.83465671539307,-2.86082315444946,-0.07313705235720
615,1483424196,9.39844226837158,-85.02366638183594,30.45940399169922,9.85728645324707,0.02195137925446,0.87125766277313,1.86777412891388,-2.45605301856995,-0.08087211102247
616,1483440863,9.55848312377930,-85.03919982910156,30.32175827026367,9.83469009399414,0.03066293336451,0.88538968563080,1.84298121929169,-1.97522580623627,0.07243911921978
617,1483457530,9.64896106719971,-85.05216979980469,30.25088691711426,9.87729167938232,0.02466549724340,0.85947322845459,1.65896677970886,-1.76867222785950,0.39235454797745
618,1483474197,9.64915275573730,-85.05719757080078,30.27095794677734,9.87965869903564,0.03525089100003,0.83950841426849,1.67847073078156,-1.22552943229675,0.77777451276779
619,1483490864,9.63683319091797,-85.05593109130859,30.30351066589355,9.86912441253662,0.03845275565982,0.82862102985382,1.67164468765259,-0.83270722627640,0.77635288238525
620,1483507531,9.65691566467285,-85.05410766601562,30.30675888061523,9.81115531921387,0.03657922521234,0.85300433635712,1.86359941959381,-0.83665168285370,0.62367570400238
621,1483524198,9.70604705810547,-85.05284118652344,30.28576278686523,9.80341720581055,0.01196704246104,0.86056226491928,2.16068100929260,-0.88139706850052,0.50369292497635
622,1483540865,9.76623439788818,-85.04701995849609,30.25320243835449,9.82456779479980,0.01251269783825,0.85354465246201,2.13520908355713,-0.62021154165268,0.39882177114487
623,1483557532,9.84230613708496,-85.03793334960938,30.20602035522461,9.88579845428467,0.03874099627137,0.86663228273392,2.21699070930481,-0.44616043567657,0.29076179862022
624,1483574199,9.91136169433594,-85.03134918212891,30.17156791687012,9.85359382629395,0.03172924369574,0.85325831174850,2.55529594421387,-0.57464653253555,0.37936890125275
625,1483590866,9.94087314605713,-85.02291107177734,30.17636680603027,9.80257511138916,0.02753823809326,0.85034483671188,2.52051329612732,-0.44434189796448,0.56251251697540
626,1483607533,9.97005844116211,-85.01485443115234,30.18102264404297,9.83654308319092,0.03058107756078,0.80538851022720,2.49899911880493,-0.46262940764427,0.56477928161621
627,1483624200,9.99223518371582,-85.00765991210938,30.19796752929688,9.82900333404541,0.04015689715743,0.83666700124741,2.80439233779907,-0.51185697317123,0.63827490806580
628,1483640867,9.99622917175293,-85.00833129882812,30.23421478271484,9.79084205627441,0.06480024755001,0.86553269624710,2.87978339195251,-0.94336694478989,0.81711566448212
629,1483657534,9.95554447174072,-85.01261138916016,30.30705642700195,9.76061820983887,0.10971397906542,0.86865848302841,2.38112950325012,-1.12806022167206,1.04299402236938
630,1483674201,9.91661167144775,-85.02228546142578,30.36751747131348,9.81159305572510,0.08013056218624,0.82207721471786,1.75544965267181,-1.45441722869873,1.03507947921753
631,1483690868,9.93685245513916,-85.02944946289062,30.36958885192871,9.83698272705078,0.06615860760212,0.82521128654480,1.81346237659454,-1.36116147041321,0.70943981409073
632,1483707535,9.99641132354736,-85.03012847900391,30.33326911926270,9.83445072174072,0.05488075688481,0.88742178678513,1.87080931663513,-1.01669621467590,0.44629490375519
633,1483724202,10.11192417144775,-85.03208923339844,30.24291610717773,9.82543277740479,0.07991026341915,0.84570914506912,2.00216412544250,-1.13259363174438,0.18211270868778
634,1483740869,10.14286041259766,-85.02862548828125,30.22800636291504,9.89067840576172,0.09702819585800,0.73567092418671,1.42630064487457,-0.76149111986160,0.51305437088013
635,1483757536,10.09031581878662,-85.02051544189453,30.29024696350098,9.86622333526611,0.10627786070108,0.78847652673721,1.03469538688660,-0.41057157516479,0.85892826318741
636,1483774203,10.00677967071533,-85.00821685791016,30.37724685668945,9.79505348205566,0.08538116514683,0.82757025957108,0.65890586376190,-0.13514541089535,0.94247686862946
637,1483790870,9.91950416564941,-84.99790191650391,30.46664619445801,9.77518177032471,0.05106849595904,0.82110029459000,0.58598655462265,-0.23635397851467,0.97633683681488
638,1483807537,9.82807254791260,-84.99226379394531,30.55797958374023,9.78680801391602,0.06323659420013,0.83911168575287,0.43881598114967,-0.53525418043137,1.03830695152283
639,1483824204,9.74667263031006,-84.99018859863281,30.64089584350586,9.79207897186279,0.05091271549463,0.83653098344803,0.53932017087936,-0.74059116840363,1.03069972991943
640,1483840871,9.72629356384277,-84.98148345947266,30.66453742980957,9.80785274505615,0.06833898276091,0.86843353509903,0.66233795881271,-0.40323346853256,0.65848326683044
641,1483857538,9.73956584930420,-84.98050689697266,30.65232276916504,9.77717113494873,0.03838318958879,0.86141723394394,0.52779448032379,-0.90113151073456,0.55249792337418
642,1483874205,9.75303649902344,-84.98784637451172,30.64331245422363,9.79218006134033,0.00592737039551,0.86566561460495,0.74112278223038,-1.38212537765503,0.65309190750122
643,1483890872,9.76097965240479,-84.99860382080078,30.64530754089355,9.80841159820557,0.02572200074792,0.83846610784531,1.05743932723999,-1.57944524288177,0.74447786808014
644,1483907539,9.75761127471924,-85.00884246826172,30.66121864318848,9.80781745910645,0.01723075471818,0.84560251235962,1.22461378574371,-1.52403247356415,0.80949580669403
645,1483924206,9.74413871765137,-85.01571655273438,30.69061279296875,9.79796218872070,0.02082651294768,0.88252413272858,1.41860425472260,-1.32041156291962,0.84585297107697
646,1483940873,9.75176048278809,-85.02948760986328,30.69772529602051,9.78281211853027,0.03749375045300,0.86647534370422,1.35504627227783,-1.75043594837189,0.80183756351471
647,1483957540,9.77639007568359,-85.04848480224609,30.69032478332520,9.80447483062744,0.06447019428015,0.88643670082092,1.49282979965210,-2.07803535461426,0.78100174665451
648,1483974207,9.79604911804199,-85.07085418701172,30.68963241577148,9.84237861633301,0.07632058858871,0.86093974113464,1.60739541053772,-2.26034665107727,0.84927237033844
649,1483990874,9.76804447174072,-85.08605957031250,30.73459434509277,9.87184238433838,0.08988023549318,0.83462727069855,1.47207069396973,-1.80217337608337,1.00763559341431
650,1484007541,9.69167232513428,-85.09248352050781,30.82472229003906,9.86414623260498,0.07858325541019,0.84443658590317,1.26888525485992,-1.24518704414368,1.14661014080048
651,1484024208,9.62238216400146,-85.09344482421875,30.90954017639160,9.84076690673828,0.06646341830492,0.84196430444717,1.37992894649506,-0.92374753952026,1.06342005729675
652,1484040875,9.56572341918945,-85.09168243408203,30.98202896118164,9.82605361938477,0.09440265595913,0.80345714092255,1.39525818824768,-0.77890783548355,0.97428786754608
653,1484057542,9.50809192657471,-85.08824920654297,31.05283355712891,9.84084415435791,0.06110128760338,0.85985124111176,1.24936842918396,-0.67764800786972,0.95040410757065
654,1484074209,9.44161415100098,-85.08195495605469,31.13004493713379,9.84634113311768,0.02800278179348,0.84147232770920,1.10127580165863,-0.50075393915176,0.95413070917130
655,1484090876,9.37602996826172,-85.07574462890625,31.20679664611816,9.83080959320068,0.03690507262945,0.85673618316650,1.12056195735931,-0.51169049739838,0.95441246032715
656,1484107543,9.33233737945557,-85.07081604003906,31.26304626464844,9.80950641632080,0.03125558421016,0.86549186706543,1.21303665637970,-0.60544580221176,0.86388432979584
657,1484124210,9.31574153900146,-85.06910705566406,31.29558563232422,9.80775165557861,0.05163562670350,0.86878210306168,1.42462325096130,-0.80144703388214,0.77299773693085
658,1484140877,9.28938484191895,-85.07698059082031,31.33249855041504,9.79578495025635,0.05824891105294,0.86295723915100,1.08079826831818,-1.38939929008484,0.89105939865112
659,1484157544,9.26532077789307,-85.08522796630859,31.37051200866699,9.82014846801758,0.04748813435435,0.87708437442780,1.30045294761658,-1.39123070240021,0.89637410640717
660,1484174211,9.24392318725586,-85.09072875976562,31.40927124023438,9.82917213439941,0.06587798148394,0.86260539293289,1.50128197669983,-1.23887348175049,0.87605041265488
661,1484190878,9.23474407196045,-85.09172821044922,31.43845939636230,9.82112216949463,0.07275728136301,0.87752771377563,1.66107952594757,-0.97932714223862,0.78307622671127
662,1484207545,9.23299980163574,-85.09416198730469,31.45280265808105,9.79332542419434,0.06742506474257,0.83099806308746,1.22406291961670,-1.07052111625671,0.72178512811661
663,1484224212,9.25979423522949,-85.09304046630859,31.43831253051758,9.82600879669189,0.06273534893990,0.83080780506134,1.20946371555328,-0.88231903314590,0.54025506973267
664,1484240879,9.32144069671631,-85.08953094482422,31.38775634765625,9.86234283447266,0.04793418943882,0.91687411069870,1.14193582534790,-0.78201967477798,0.33696708083153
665,1484257546,9.37686252593994,-85.09239959716797,31.35147666931152,9.86135673522949,0.08303292095661,0.86129087209702,1.62887156009674,-1.13389980792999,0.46888530254364
666,1484274213,9.37562274932861,-85.08589935302734,31.36447525024414,9.88362598419189,0.07191443443298,0.78592371940613,1.16361701488495,-0.55153113603592,0.62834995985031
667,1484290880,9.36107444763184,-85.07857513427734,31.38635253906250,9.80916786193848,0.05202967673540,0.78799283504486,0.90313577651978,-0.49077770113945,0.66495043039322
668,1484307547,9.34223270416260,-85.07518768310547,31.40710258483887,9.78348445892334,0.06099934130907,0.79959911108017,0.58575606346130,-0.71760386228561,0.69815742969513
669,1484324214,9.31811046600342,-85.07200622558594,31.42994880676270,9.80303192138672,0.07966458797455,0.83187973499298,0.38136669993401,-0.73836290836334,0.71157842874527
670,1484340881,9.27960586547852,-85.06842803955078,31.46089363098145,9.78663730621338,0.08074045926332,0.82605129480362,0.00651202816516,-0.70833194255829,0.74912655353546
671,1484357548,9.24430561065674,-85.06664276123047,31.48171234130859,9.80951976776123,0.06973805278540,0.83426427841187,-0.40529537200928,-0.81216585636139,0.71353781223297
672,1484374215,9.24366188049316,-85.06231689453125,31.46684265136719,9.83425617218018,0.04534440487623,0.83089566230774,-0.45602127909660,-0.69731849431992,0.50861054658890
673,1484390882,9.24950122833252,-85.06279754638672,31.44370841979980,9.79760360717773,0.01693771034479,0.82386469841003,-0.56508022546768,-0.99218475818634,0.51286232471466
674,1484407549,9.28102970123291,-85.06783294677734,31.40274047851562,9.75856304168701,0.02139682695270,0.84048366546631,-0.09088665992022,-1.27087652683258,0.46579900383949
675,1484424216,9.33237361907959,-85.07642364501953,31.34501266479492,9.80497837066650,0.00948425475508,0.82925105094910,0.09559299051762,-1.49081265926361,0.41441985964775
676,1484440883,9.37690830230713,-85.08139801025391,31.29398345947266,9.80818843841553,0.02045024186373,0.85990530252457,0.08233842253685,-1.28520691394806,0.41664817929268
677,1484457550,9.44095993041992,-85.08761596679688,31.22767257690430,9.82075595855713,0.00808611791581,0.84988468885422,0.34557297825813,-1.36821770668030,0.35106688737869
678,1484474217,9.48594284057617,-85.09592437744141,31.18254280090332,9.82774639129639,0.04046540707350,0.83816242218018,0.47211244702339,-1.47317850589752,0.48038539290428
679,1484490884,9.50350952148438,-85.10679626464844,31.15998268127441,9.81288909912109,0.06069064512849,0.80646389722824,0.17244392633438,-1.60221529006958,0.61947518587112
680,1484507551,9.52934265136719,-85.12087249755859,31.12824249267578,9.79843425750732,0.04819194972515,0.83321595191956,0.12152584642172,-1.79783213138580,0.60520887374878
681,1484524218,9.54897975921631,-85.13530731201172,31.10279273986816,9.82354354858398,0.05706470459700,0.83436447381973,0.12320348620415,-1.81973099708557,0.64207834005356
682,1484540885,9.57033729553223,-85.14505767822266,31.07267951965332,9.81473350524902,0.06758685410023,0.82185268402100,-0.05166081711650,-1.54377973079681,0.57219415903091
683,1484557552,9.55449008941650,-85.15354156494141,31.07567787170410,9.84673213958740,0.02403634786606,0.83788907527924,-0.30342084169388,-1.43432378768921,0.72529399394989
684,1484574219,9.60057353973389,-85.15964508056641,31.01912307739258,9.80617427825928,0.01496651582420,0.84382385015488,-0.15193454921246,-1.35584664344788,0.40500721335411
685,1484590886,9.65825939178467,-85.16648864746094,30.95520973205566,9.84049701690674,0.02449339069426,0.84113711118698,0.10751570016146,-1.40137326717377,0.37731990218163
686,1484607553,9.70059299468994,-85.17269897460938,30.90936851501465,9.81000614166260,0.01658776775002,0.81422680616379,0.26728773117065,-1.34608817100525,0.46077892184258
687,1484624220,9.74143028259277,-85.17996978759766,30.87093162536621,9.83590030670166,0.04486174508929,0.80619680881500,0.61891168355942,-1.40935146808624,0.50919961929321
688,1484640887,9.77573490142822,-85.18440246582031,30.83891487121582,9.83032226562500,0.06234038248658,0.81943619251251,0.61130470037460,-1.23037004470825,0.51302874088287
689,1484657554,9.78780078887939,-85.18566131591797,30.82311820983887,9.81123256683350,0.08846591413021,0.82629251480103,0.24597795307636,-1.02537870407104,0.55991280078888
