sep=,
DeviceTag:,Xsens_DOT_4
FirmwareVersion:,3.0.0
AppVersion:,2023.6.0
StartTime: ,2025-04-09_10:57:08_000 CEST
© Movella Technologies B. V. 2005-2025

PacketCounter,SampleTimeFine,Euler_X,Euler_Y,Euler_Z,Acc_X,Acc_Y,Acc_Z,Gyr_X,Gyr_Y,Gyr_Z
0,2082719515,-30.68419837951660,-87.23827362060547,93.21354675292969,0.00000000000000,0.00000000000000,0.00000000000000,0.00000000000000,0.00000000000000,0.00000000000000
1,2082736182,-31.24624443054199,-87.36589050292969,93.77497100830078,9.77164936065674,-0.63722711801529,0.48788312077522,-0.02047095261514,-7.44087982177734,-3.87990784645081
2,2082752849,-31.71069717407227,-87.47710418701172,94.22787475585938,9.75462722778320,-0.43371969461441,0.54012811183929,-0.51835638284683,-6.41397905349731,-3.75340795516968
3,2082769516,-32.23244094848633,-87.58394622802734,94.69852447509766,9.67816734313965,-0.27276363968849,0.61987799406052,-3.17769765853882,-6.16518878936768,-3.68550825119019
4,2082786183,-32.88241958618164,-87.68692016601562,95.28015136718750,9.73131656646729,-0.32736110687256,0.56385529041290,-3.49943161010742,-6.05203199386597,-3.38371348381042
5,2082802850,-33.77661895751953,-87.78937530517578,96.15485382080078,9.77603149414062,-0.52464956045151,0.51952910423279,-2.41606521606445,-6.29309797286987,-2.95662117004395
6,2082819517,-34.78618621826172,-87.87938690185547,97.18141937255859,9.73696613311768,-0.52868574857712,0.51884710788727,0.68630516529083,-5.84903812408447,-2.41401648521423
7,2082836184,-35.89221954345703,-87.96587371826172,98.30608367919922,9.72718715667725,-0.47214475274086,0.55034327507019,0.13774511218071,-5.70581197738647,-2.30708312988281
8,2082852851,-36.98071289062500,-88.05017089843750,99.38554382324219,9.64916419982910,-0.31868082284927,0.62006676197052,-0.38657894730568,-5.47039270401001,-2.44430327415466
9,2082869518,-38.26016616821289,-88.12445068359375,100.61302947998047,9.76434516906738,-0.31585848331451,0.57227772474289,-3.32685303688049,-5.13179302215576,-2.05650162696838
10,2082886185,-39.51173400878906,-88.18522644042969,101.84341430664062,9.79696655273438,-0.56330180168152,0.42239204049110,-1.15365350246429,-4.40477561950684,-1.68013536930084
11,2082902852,-40.50224304199219,-88.23010253906250,102.89138031005859,9.82721900939941,-0.50907248258591,0.34255957603455,3.48906493186951,-3.45959067344666,-1.52872633934021
12,2082919519,-41.45796966552734,-88.26629638671875,103.87829589843750,9.76777267456055,-0.47528389096260,0.33208626508713,1.48013222217560,-2.93359518051147,-1.35768437385559
13,2082936186,-42.16985702514648,-88.29246520996094,104.60577392578125,9.81256675720215,-0.55002397298813,0.32112860679626,0.61931502819061,-2.15421366691589,-1.38517951965332
14,2082952853,-42.68662643432617,-88.30938720703125,105.09973144531250,9.77947139739990,-0.57463544607162,0.29204073548317,-1.40563154220581,-1.44073343276978,-1.34418654441833
15,2082969520,-43.17093276977539,-88.32263946533203,105.57494354248047,9.68071937561035,-0.53767645359039,0.31971204280853,-0.36437261104584,-1.28453445434570,-1.26061213016510
16,2082986187,-43.53995895385742,-88.33517456054688,105.95334625244141,9.65462684631348,-0.44259420037270,0.41650545597076,0.31982579827309,-1.11910223960876,-1.37876367568970
17,2083002854,-43.67399978637695,-88.33493041992188,106.10646820068359,9.78405380249023,-0.34148815274239,0.38817828893661,1.63452529907227,-0.29848396778107,-1.13294553756714
18,2083019521,-43.77386474609375,-88.32778167724609,106.18327331542969,9.80480289459229,-0.43147405982018,0.36342880129814,-1.33258402347565,0.08824855834246,-0.97033071517944
19,2083036188,-43.67042160034180,-88.31020355224609,106.08190917968750,9.78995132446289,-0.55323946475983,0.39829882979393,-0.16321051120758,0.75725227594376,-0.79023498296738
20,2083052855,-43.54603576660156,-88.29257202148438,105.93994140625000,9.72773456573486,-0.47693535685539,0.42280223965645,-0.86366671323776,0.81967043876648,-0.81901091337204
21,2083069522,-43.61341476440430,-88.28320312500000,105.98306274414062,9.65037918090820,-0.55211657285690,0.49603381752968,-1.62777018547058,0.23034781217575,-0.92783915996552
22,2083086189,-43.84476852416992,-88.27774047851562,106.20903015136719,9.76435661315918,-0.58815479278564,0.58596670627594,-0.08187098056078,-0.18655009567738,-0.83941775560379
23,2083102856,-44.32154083251953,-88.28001403808594,106.71701049804688,9.75480651855469,-0.57803362607956,0.55470353364944,1.84969782829285,-0.84943884611130,-0.76189458370209
24,2083119523,-44.93758392333984,-88.28582763671875,107.39323425292969,9.69425773620605,-0.39523661136627,0.52635419368744,3.81010746955872,-1.24707627296448,-0.71221882104874
25,2083136190,-45.81960296630859,-88.29888916015625,108.32646179199219,9.66395759582520,-0.46102806925774,0.44613644480705,2.91989898681641,-1.84989655017853,-0.68058711290359
26,2083152857,-46.57805252075195,-88.30119323730469,109.17560577392578,9.80689239501953,-0.39389243721962,0.39675351977348,4.66407251358032,-1.32976639270782,-0.41482964158058
27,2083169524,-47.08899307250977,-88.29601287841797,109.69223022460938,9.82588386535645,-0.25448292493820,0.32166197896004,0.30083394050598,-0.58701103925705,-0.47933527827263
28,2083186191,-47.36075592041016,-88.28320312500000,109.91378021240234,9.66886043548584,-0.51623594760895,0.20036102831364,-3.03112864494324,0.10850820690393,-0.51708841323853
29,2083202858,-47.44250488281250,-88.25852966308594,109.95783996582031,9.59808921813965,-0.59034454822540,0.25694152712822,-2.18165779113770,0.78346687555313,-0.25959113240242
30,2083219525,-47.09097290039062,-88.21721649169922,109.62724304199219,9.69949340820312,-0.47289714217186,0.32289692759514,1.60637724399567,1.98429250717163,0.00450783502311
31,2083236192,-46.24984359741211,-88.15538787841797,108.84815216064453,9.74042606353760,-0.40956529974937,0.22157745063305,3.71843910217285,3.50402235984802,0.26575741171837
32,2083252859,-45.15836334228516,-88.06922912597656,107.79009246826172,9.76562213897705,-0.31678339838982,0.18597121536732,2.37336277961731,4.94757986068726,0.77985554933548
33,2083269526,-43.84363555908203,-87.96221923828125,106.48227691650391,9.78852653503418,-0.49297702312469,0.25012600421906,0.68328285217285,6.32049751281738,1.08527421951294
34,2083286193,-42.24600601196289,-87.82714080810547,104.89834594726562,9.80327415466309,-0.42493695020676,0.30400770902634,1.37889838218689,8.12363243103027,1.49329745769501
35,2083302860,-40.70700073242188,-87.67493438720703,103.30892944335938,9.87896251678467,-0.34320321679115,0.38590583205223,-2.29189538955688,9.13351726531982,1.77271950244904
36,2083319527,-39.12961959838867,-87.51289367675781,101.68698883056641,9.83926200866699,-0.56289923191071,0.47744581103325,-2.47196555137634,9.91617679595947,1.63530743122101
37,2083336194,-37.82107925415039,-87.34391784667969,100.33367919921875,9.75265693664551,-0.57369154691696,0.63117110729218,-3.31176829338074,10.05576705932617,1.97047543525696
38,2083352861,-36.72699356079102,-87.17645263671875,99.18387603759766,9.75323581695557,-0.67686653137207,0.69893884658813,-3.30049824714661,9.83163070678711,2.01783323287964
39,2083369528,-35.80390930175781,-87.01863098144531,98.24675750732422,9.82714271545410,-0.64316415786743,0.73087823390961,-1.36739194393158,9.18967247009277,1.86369574069977
40,2083386195,-35.06790161132812,-86.87550354003906,97.46471405029297,9.78908729553223,-0.72845631837845,0.75651657581329,-2.66459870338440,8.30221843719482,1.53616046905518
41,2083402862,-34.54958343505859,-86.75321197509766,96.89328002929688,9.68619251251221,-0.72559732198715,0.86538857221603,-3.10757017135620,6.96636104583740,1.22424888610840
42,2083419529,-34.24474716186523,-86.65930175781250,96.54699707031250,9.57814693450928,-0.82238078117371,0.85699695348740,-2.27152013778687,5.18664884567261,0.82471626996994
43,2083436196,-34.16833496093750,-86.60304260253906,96.46595764160156,9.62951755523682,-0.80047464370728,0.93211454153061,-0.20233394205570,2.84102487564087,0.30619984865189
44,2083452863,-34.30495834350586,-86.58143615722656,96.64960479736328,9.61721897125244,-0.75912618637085,0.97584587335587,2.03528785705566,0.62847167253494,-0.11233090609312
45,2083469530,-34.65537261962891,-86.58918762207031,97.05457305908203,9.65687274932861,-0.72765213251114,0.97971254587173,3.19964122772217,-1.30382096767426,-0.41100060939789
46,2083486197,-35.13008499145508,-86.61724853515625,97.60953521728516,9.72227668762207,-0.74880892038345,0.83054578304291,4.32526826858521,-2.59217810630798,-0.69573700428009
47,2083502864,-35.70668411254883,-86.65953826904297,98.27629089355469,9.75614929199219,-0.77966070175171,0.68726718425751,5.50322198867798,-3.53062772750854,-0.87858605384827
48,2083519531,-36.29015350341797,-86.70562744140625,98.95384216308594,9.76515579223633,-0.53879839181900,0.70210093259811,5.81653070449829,-3.71327257156372,-1.02685832977295
49,2083536198,-36.89741134643555,-86.74634552001953,99.63804626464844,9.78003883361816,-0.56156927347183,0.62286967039108,4.62955951690674,-3.47139811515808,-0.90418601036072
50,2083552865,-37.53010940551758,-86.78466796875000,100.35755157470703,9.66379070281982,-0.53155761957169,0.52772808074951,4.20061111450195,-3.36280083656311,-0.81011062860489
51,2083569532,-38.14704513549805,-86.81383514404297,101.08141326904297,9.63794708251953,-0.54601639509201,0.55519241094589,6.37255716323853,-2.96088671684265,-0.47216388583183
52,2083586199,-38.63270568847656,-86.82769775390625,101.67723083496094,9.72859477996826,-0.33533295989037,0.53231000900269,6.42346048355103,-1.98169958591461,-0.29808700084686
53,2083602866,-38.93429183959961,-86.81629180908203,101.99015808105469,9.95120811462402,-0.43864113092422,0.45590886473656,1.21637260913849,-0.23474676907063,-0.06739340722561
54,2083619533,-38.98845291137695,-86.78101348876953,102.06272888183594,9.80463695526123,-0.66482967138290,0.32927691936493,0.59864556789398,1.40346062183380,0.14870731532574
55,2083636200,-38.89596176147461,-86.72463989257812,101.97987365722656,9.67897605895996,-0.46581828594208,0.39426213502884,0.05011124908924,2.70699357986450,0.51667225360870
56,2083652867,-38.70920944213867,-86.65531921386719,101.76770019531250,9.64928340911865,-0.60146653652191,0.44579797983170,-0.73954111337662,3.56699728965759,0.70727545022964
57,2083669534,-38.38547515869141,-86.56891632080078,101.43125915527344,9.79757022857666,-0.73021656274796,0.50126332044601,-1.25287735462189,4.70359325408936,0.90314227342606
58,2083686201,-38.03688812255859,-86.47385406494141,101.05995178222656,9.71043872833252,-0.66474521160126,0.60053491592407,-1.33249437808990,5.20329713821411,1.09320116043091
59,2083702868,-37.83494567871094,-86.37625885009766,100.83589172363281,9.62011623382568,-0.42461195588112,0.66038167476654,-1.52841877937317,5.03800582885742,1.56811201572418
60,2083719535,-37.71922683715820,-86.27249145507812,100.69144439697266,9.76943206787109,-0.62677150964737,0.71234810352325,-0.87461614608765,5.12065839767456,2.05731463432312
61,2083736202,-37.53339767456055,-86.15717315673828,100.51039123535156,9.90446090698242,-0.74897938966751,0.71641647815704,1.21424698829651,5.74947595596313,2.32334113121033
62,2083752869,-37.31679916381836,-86.03884124755859,100.25081634521484,9.93191146850586,-0.66900563240051,0.74605745077133,-2.15494394302368,6.15459156036377,2.12749361991882
63,2083769536,-37.16662597656250,-85.93080902099609,100.01592254638672,9.80042266845703,-0.75529682636261,0.81634873151779,-5.78192090988159,5.67445611953735,1.72995889186859
64,2083786203,-37.14533615112305,-85.84140777587891,99.89089965820312,9.73546981811523,-0.89147830009460,0.94753980636597,-6.21192073822021,4.51263952255249,1.46703195571899
65,2083802870,-37.17416000366211,-85.77432250976562,99.86383056640625,9.69016551971436,-0.94429409503937,1.02553856372833,-3.33288526535034,3.17237663269043,0.98145318031311
66,2083819537,-37.32640075683594,-85.73308563232422,99.98387145996094,9.67461299896240,-0.85546123981476,1.03640043735504,-1.44676530361176,1.53220295906067,0.60977441072464
67,2083836204,-37.64471817016602,-85.71833801269531,100.30369567871094,9.64088249206543,-0.83462256193161,0.97720241546631,-0.22634582221508,-0.25115171074867,0.31863477826118
68,2083852871,-38.00333404541016,-85.72428131103516,100.70236968994141,9.65371036529541,-0.93972265720367,0.91056591272354,2.36341142654419,-1.45752263069153,-0.13238562643528
69,2083869538,-38.43307876586914,-85.74324798583984,101.18865203857422,9.78372192382812,-0.92859655618668,0.86251503229141,2.74860143661499,-2.31045126914978,-0.37057098746300
70,2083886205,-38.83401107788086,-85.77047729492188,101.64807891845703,9.80496788024902,-0.85071200132370,0.79165536165237,1.89058852195740,-2.56516933441162,-0.84554564952850
71,2083902872,-39.21612167358398,-85.80381011962891,102.02420043945312,9.71495628356934,-0.84359097480774,0.74643439054489,-0.21297600865364,-2.67415165901184,-1.27386689186096
72,2083919539,-39.55823516845703,-85.84197235107422,102.40827178955078,9.71498394012451,-0.81249904632568,0.72614634037018,0.66573804616928,-2.84177374839783,-1.59084951877594
73,2083936206,-39.86468505859375,-85.88658142089844,102.69647216796875,9.76141834259033,-0.73040634393692,0.73471450805664,-0.06754709780216,-2.97963428497314,-2.01454782485962
74,2083952873,-40.22293853759766,-85.93726348876953,103.05895233154297,9.68276119232178,-0.70762968063354,0.76343297958374,0.36394369602203,-3.40650892257690,-2.08183240890503
75,2083969540,-40.63164901733398,-85.98731231689453,103.48267364501953,9.72651481628418,-0.59468495845795,0.77240741252899,0.99004608392715,-3.52882790565491,-1.89651799201965
76,2083986207,-41.02656173706055,-86.03251647949219,103.93075561523438,9.79804039001465,-0.83466517925262,0.66964697837830,2.80631995201111,-3.34187531471252,-1.69974231719971
77,2084002874,-41.36914443969727,-86.07494354248047,104.34126281738281,9.80027198791504,-0.74153447151184,0.67165243625641,4.02894210815430,-3.11357641220093,-1.72484278678894
78,2084019541,-41.69862747192383,-86.11390686035156,104.71218109130859,9.72748947143555,-0.67003971338272,0.67291384935379,2.10591506958008,-2.81348514556885,-1.75146710872650
79,2084036208,-42.02891540527344,-86.14339447021484,105.07001495361328,9.69568824768066,-0.59211361408234,0.67990052700043,1.29428672790527,-2.34878063201904,-1.44093871116638
80,2084052875,-42.37352752685547,-86.16467285156250,105.42357635498047,9.82229804992676,-0.66978073120117,0.63970828056335,1.54781389236450,-2.03083753585815,-1.07835233211517
81,2084069542,-42.67581558227539,-86.18217468261719,105.79868316650391,9.86659145355225,-0.80499428510666,0.64371377229691,4.12751293182373,-1.85062670707703,-0.92657160758972
82,2084086209,-42.90197753906250,-86.19059753417969,106.09143066406250,9.67799282073975,-0.67028295993805,0.60902792215347,5.07788467407227,-1.31007051467896,-0.77358680963516
83,2084102876,-43.18822860717773,-86.18936920166016,106.41774749755859,9.65303707122803,-0.52035683393478,0.62422114610672,2.30543756484985,-0.91607034206390,-0.33165246248245
84,2084119543,-43.39778518676758,-86.17868804931641,106.67034912109375,9.81474208831787,-0.72598338127136,0.57801562547684,3.67128562927246,-0.35374337434769,-0.09670715034008
85,2084136210,-43.48085403442383,-86.15956878662109,106.84287261962891,9.73238182067871,-0.81323194503784,0.56246471405029,5.32025814056396,0.26694840192795,-0.05249963700771
86,2084152877,-43.50342941284180,-86.13568115234375,106.92546844482422,9.60184669494629,-0.68704968690872,0.63245207071304,3.77261018753052,0.72869420051575,-0.09035521000624
87,2084169544,-43.49810791015625,-86.10730743408203,106.98389434814453,9.69375038146973,-0.80354869365692,0.64090478420258,3.71727418899536,0.98876571655273,-0.00154316541739
88,2084186211,-43.32877349853516,-86.07484436035156,106.93256378173828,9.79254150390625,-1.00790023803711,0.62044638395309,7.45701122283936,1.46133279800415,-0.13429380953312
89,2084202878,-42.98714828491211,-86.03868865966797,106.74242401123047,9.72298240661621,-0.65559756755829,0.65720194578171,8.61850833892822,2.06789302825928,-0.44949662685394
90,2084219545,-42.71158599853516,-86.00482940673828,106.56069183349609,9.70431423187256,-0.73484802246094,0.64824497699738,5.28033971786499,1.93938100337982,-0.53597778081894
91,2084236212,-42.42756652832031,-85.96434783935547,106.39961242675781,9.65658473968506,-0.73072123527527,0.63431835174561,8.39448738098145,2.11421346664429,-0.14973829686642
92,2084252879,-42.02702331542969,-85.91735839843750,106.18455505371094,9.68047618865967,-0.81747430562973,0.55897092819214,12.07478046417236,2.58009672164917,-0.07325876504183
93,2084269546,-41.27191543579102,-85.83171844482422,105.69744873046875,9.69543743133545,-0.78275340795517,0.67494416236877,15.52907180786133,5.17790651321411,0.45393431186676
94,2084286213,-40.49300765991211,-85.73588562011719,105.13298797607422,9.65714645385742,-1.04100918769836,0.62837886810303,13.49243354797363,5.87518644332886,0.56551599502563
95,2084302880,-39.70512008666992,-85.66271209716797,104.70475006103516,9.58567237854004,-0.96054679155350,0.75728088617325,20.94726562500000,4.55009078979492,-0.03271387144923
96,2084319547,-39.13022232055664,-85.60221862792969,104.47461700439453,9.73602771759033,-0.75975298881531,0.79148513078690,20.18126106262207,3.41296124458313,0.11752403527498
97,2084336214,-38.51916503906250,-85.53437042236328,104.21030426025391,9.85455131530762,-0.77160626649857,0.71662068367004,19.30050277709961,3.93026113510132,0.16406238079071
98,2084352881,-37.89420318603516,-85.46582031250000,103.90283966064453,9.78643226623535,-0.79145115613937,0.71988379955292,18.13779830932617,4.09279918670654,0.01123118307441
99,2084369548,-37.33095932006836,-85.40752410888672,103.64659118652344,9.64968490600586,-0.72492396831512,0.77666336297989,17.87749862670898,3.46617698669434,-0.20438957214355
100,2084386215,-36.83393859863281,-85.33834838867188,103.39507293701172,9.75264358520508,-0.72652912139893,0.91050893068314,14.93856811523438,3.95346426963806,0.20622080564499
101,2084402882,-35.72148513793945,-85.18692016601562,102.62458801269531,9.91791248321533,-1.07165014743805,0.82513201236725,21.48654937744141,9.44844055175781,0.99990898370743
102,2084419549,-34.28598785400391,-84.98834991455078,101.65522003173828,9.79173183441162,-0.80593442916870,0.75267666578293,30.88730812072754,12.37630844116211,1.57914423942566
103,2084436216,-33.35036087036133,-84.80084228515625,101.00190734863281,9.68912124633789,-0.22216689586639,0.86127668619156,17.37514495849609,11.18106079101562,2.04137349128723
104,2084452883,-32.79851913452148,-84.63721466064453,100.55876922607422,9.91964530944824,-0.87011218070984,0.84894043207169,6.67310953140259,9.46728992462158,1.97430443763733
105,2084469550,-32.38680267333984,-84.49512481689453,100.22055053710938,9.87291526794434,-0.93586021661758,0.93483453989029,4.58946514129639,8.11618137359619,1.64310657978058
106,2084486217,-32.03827285766602,-84.36222839355469,99.92500305175781,9.76378536224365,-0.69622421264648,1.08822298049927,3.02779316902161,7.58987712860107,1.44617033004761
107,2084502884,-31.62189865112305,-84.18170166015625,99.56197357177734,10.02792453765869,-0.96841585636139,1.33944177627563,1.93963778018951,10.32552051544189,2.41516327857971
108,2084519551,-30.83530616760254,-83.88788604736328,98.91239166259766,9.93280410766602,-1.13754653930664,0.94662952423096,8.73613262176514,17.05658149719238,4.35964584350586
109,2084536218,-30.21804428100586,-83.61952209472656,98.47962188720703,9.62605285644531,-0.47918877005577,1.14980375766754,11.30074882507324,15.19917201995850,4.41376543045044
110,2084552885,-30.03964996337891,-83.41301727294922,98.31909179687500,9.60663318634033,-0.16999480128288,1.41231775283813,1.29490184783936,11.15414524078369,3.96315765380859
111,2084569552,-30.40424346923828,-83.28002929687500,98.41958618164062,9.78641033172607,-0.69837546348572,1.38181042671204,-15.97110366821289,6.46420478820801,3.29621720314026
112,2084586219,-30.68746948242188,-83.19222259521484,98.60279083251953,9.59785747528076,-1.61706340312958,1.26472914218903,-6.36026811599731,3.80899333953857,2.44602584838867
113,2084602886,-30.97656059265137,-83.12046051025391,98.85330200195312,9.57834815979004,-0.33434844017029,1.35442519187927,-3.42648601531982,2.76353311538696,2.32974362373352
114,2084619553,-31.42470741271973,-83.05488586425781,99.01615905761719,9.86668491363525,-0.83690994977951,1.25224697589874,-17.28664970397949,2.68400835990906,1.72062444686890
115,2084636220,-31.50490951538086,-82.92532348632812,98.88743591308594,9.72007369995117,-1.18457388877869,1.00823736190796,-12.73545932769775,7.05242443084717,1.90207755565643
116,2084652887,-31.60043144226074,-82.80442810058594,98.82456970214844,9.70221233367920,-1.25689971446991,1.03841400146484,-9.46973037719727,6.34239912033081,2.07246541976929
117,2084669554,-32.04119110107422,-82.70381164550781,98.97891235351562,9.71438598632812,-1.18262028694153,1.29949295520782,-16.87949562072754,4.41239404678345,2.90023136138916
118,2084686221,-32.41219329833984,-82.60903930664062,99.18502807617188,9.60628986358643,-1.44842123985291,1.22596955299377,-9.61695003509521,3.86849236488342,3.09350252151489
119,2084702888,-32.71514892578125,-82.54897308349609,99.35639953613281,9.85150814056396,-1.39410161972046,1.11811184883118,-6.80380296707153,2.16278791427612,1.86484801769257
120,2084719555,-32.92202377319336,-82.51381683349609,99.44569396972656,9.92639923095703,-1.16627693176270,1.30021345615387,-6.62283754348755,1.29337751865387,0.46055486798286
121,2084736222,-33.23723602294922,-82.50189971923828,99.60451507568359,9.70519447326660,-1.46410596370697,1.25125360488892,-9.25720691680908,-0.16205799579620,0.13438986241817
122,2084752889,-33.69265747070312,-82.51837921142578,100.01494598388672,9.65855884552002,-2.01150822639465,1.00168740749359,-3.51834630966187,-2.61626672744751,0.74953007698059
123,2084769556,-33.79736709594727,-82.57112121582031,100.13420867919922,9.97049236297607,-0.60627537965775,1.64606440067291,0.70746135711670,-3.19557523727417,-2.31393504142761
124,2084786223,-33.95375061035156,-82.65762329101562,100.06819152832031,9.57254695892334,-0.84985959529877,1.66720008850098,-12.85755062103271,-4.11699390411377,-4.58743572235107
125,2084802890,-34.50532913208008,-82.75222015380859,100.35359191894531,9.78095245361328,-1.99381518363953,1.49021685123444,-17.46422767639160,-5.87604045867920,-2.85017848014832
126,2084819557,-34.38946151733398,-82.81735992431641,100.45243072509766,9.73152732849121,-1.70248758792877,1.15010571479797,12.64246368408203,-3.68445968627930,-2.93385362625122
127,2084836224,-34.06446456909180,-82.88738250732422,100.34555816650391,9.66868686676025,-0.54621726274490,1.43085741996765,12.37903785705566,-3.02767300605774,-4.42343854904175
128,2084852891,-33.91094207763672,-82.92485046386719,100.13256835937500,9.73927783966064,-0.50303137302399,1.71601092815399,-3.35789561271667,-1.05267572402954,-3.88103508949280
129,2084869558,-33.75102996826172,-82.89289855957031,99.92723846435547,9.63038539886475,-1.02560770511627,1.01039266586304,-3.96171498298645,2.46723294258118,-1.65903067588806
130,2084886225,-33.57429122924805,-82.88887023925781,99.80754852294922,9.64745807647705,-0.61260479688644,0.94072186946869,2.92255020141602,0.66721087694168,-1.98837161064148
131,2084902892,-33.46551132202148,-82.90477752685547,99.74347686767578,9.71903800964355,-0.49026274681091,1.12431156635284,1.10185837745667,-0.48179411888123,-2.41018724441528
132,2084919559,-33.35705566406250,-82.90748596191406,99.69098663330078,9.86790943145752,-1.38185262680054,0.90889406204224,3.13747859001160,0.03572971001267,-1.75877916812897
133,2084936226,-33.09731292724609,-82.87498474121094,99.44971466064453,9.96239948272705,-1.46394264698029,0.75984019041061,0.56079000234604,2.59539866447449,-1.82430934906006
134,2084952893,-32.71060943603516,-82.84429168701172,98.94447326660156,9.86254215240479,-0.85456728935242,0.82027357816696,-7.39481639862061,3.57343363761902,-3.54381847381592
135,2084969560,-32.41040039062500,-82.83026885986328,98.33751678466797,9.80964279174805,-1.23899936676025,1.00215566158295,-17.93952178955078,3.08884429931641,-4.68339681625366
136,2084986227,-32.02548980712891,-82.81839752197266,97.68719482421875,9.74387454986572,-1.27314162254333,1.19805908203125,-15.44765663146973,3.13404965400696,-5.05881404876709
137,2085002894,-31.54832267761230,-82.82375335693359,97.00333404541016,9.61705398559570,-0.78403091430664,1.40396559238434,-12.16353702545166,2.38757896423340,-5.86645793914795
138,2085019561,-31.25182533264160,-82.85227203369141,96.46978759765625,9.55180740356445,-0.85151267051697,1.48479366302490,-13.81163978576660,0.56080329418182,-5.60983228683472
139,2085036228,-31.08155822753906,-82.90522003173828,96.11606597900391,9.72763156890869,-1.35589385032654,1.45164132118225,-9.50567722320557,-1.49312508106232,-5.08117151260376
140,2085052895,-30.83712959289551,-82.97583007812500,95.84100341796875,9.68853759765625,-1.23011839389801,1.44267117977142,-1.97729408740997,-2.62213230133057,-5.27416086196899
141,2085069562,-30.70817565917969,-83.06803131103516,95.61296081542969,9.59013557434082,-0.83208966255188,1.30212736129761,-5.41883468627930,-3.97398376464844,-5.53950929641724
142,2085086229,-30.93877220153809,-83.20072937011719,95.54424285888672,9.68644237518311,-0.81211245059967,1.14635229110718,-17.92428398132324,-6.62162828445435,-5.82044887542725
143,2085102896,-31.27442932128906,-83.36227416992188,95.60101318359375,9.74263763427734,-1.07151675224304,1.11009180545807,-18.25601005554199,-8.44386005401611,-6.12887763977051
144,2085119563,-31.63080024719238,-83.53331756591797,95.69105529785156,9.75792026519775,-0.92717623710632,1.10925483703613,-15.55350399017334,-9.14189434051514,-6.10353231430054
145,2085136230,-31.96352958679199,-83.70150756835938,95.76737976074219,9.81071853637695,-0.80964004993439,1.03237640857697,-15.60087585449219,-8.86059093475342,-6.21446323394775
146,2085152897,-32.14179611206055,-83.84760284423828,95.69617462158203,9.89627361297607,-0.99170303344727,1.09970140457153,-14.59138298034668,-7.23709964752197,-6.33381557464600
147,2085169564,-31.98394966125488,-83.95778656005859,95.41524505615234,9.84286403656006,-0.91809642314911,1.03042936325073,-7.83658599853516,-4.65509033203125,-6.40041732788086
148,2085186231,-31.67906379699707,-84.05406188964844,94.94296264648438,9.75295162200928,-0.67498719692230,1.04225265979767,-9.06656169891357,-3.42299175262451,-6.81689405441284
149,2085202898,-31.28203392028809,-84.13452148437500,94.39112854003906,9.67368507385254,-0.71526086330414,1.12580132484436,-8.77647113800049,-2.38896799087524,-6.72863197326660
150,2085219565,-30.88429260253906,-84.19403839111328,93.93247222900391,9.65695285797119,-0.67708230018616,1.05922627449036,-3.31053805351257,-1.65850579738617,-5.55400609970093
151,2085236232,-30.55986404418945,-84.25421142578125,93.66356658935547,9.68740177154541,-0.85908269882202,0.97136586904526,2.52401661872864,-2.25679278373718,-4.64043855667114
152,2085252899,-30.21084594726562,-84.31700897216797,93.41667938232422,9.77078723907471,-0.75842767953873,1.00727176666260,5.99558877944946,-2.52649497985840,-4.52227497100830
153,2085269566,-29.88710784912109,-84.38665008544922,93.13793945312500,9.72411346435547,-0.77156817913055,1.07622313499451,2.55306100845337,-2.81911921501160,-4.86632919311523
154,2085286233,-29.54661369323730,-84.45525360107422,92.82707977294922,9.77584743499756,-0.81185334920883,1.04316508769989,1.91340982913971,-2.71440243721008,-4.94129896163940
155,2085302900,-29.17271232604980,-84.52761840820312,92.51004791259766,9.68569087982178,-0.70905756950378,0.94757664203644,3.04690003395081,-2.89270496368408,-5.08017063140869
156,2085319567,-28.82009315490723,-84.60464477539062,92.22227478027344,9.74421215057373,-0.66715270280838,0.92956048250198,3.90489935874939,-3.28135180473328,-5.00319147109985
157,2085336234,-28.48098564147949,-84.67980194091797,91.95149230957031,9.77569580078125,-0.70871669054031,0.95139586925507,4.24070787429810,-3.25809574127197,-4.80914926528931
158,2085352901,-28.12740325927734,-84.74591827392578,91.64208221435547,9.78355503082275,-0.63879060745239,0.91604012250900,3.83390140533447,-2.76101732254028,-4.62380313873291
159,2085369568,-27.80675697326660,-84.80431365966797,91.34182739257812,9.78114128112793,-0.62323361635208,0.86586016416550,0.52914559841156,-2.32108068466187,-4.47734975814819
160,2085386235,-27.49757575988770,-84.85304260253906,91.04569244384766,9.80749130249023,-0.68045681715012,0.81846886873245,0.50459587574005,-1.85590291023254,-4.12471437454224
161,2085402902,-27.16823005676270,-84.89470672607422,90.77432250976562,9.78696632385254,-0.63639968633652,0.82873922586441,0.69658863544464,-1.46379792690277,-3.98694324493408
162,2085419569,-26.84143257141113,-84.92472076416016,90.45280456542969,9.73018264770508,-0.50162470340729,0.89778137207031,0.72206056118011,-0.87346363067627,-3.64308071136475
163,2085436236,-26.53618812561035,-84.94445037841797,90.14835357666016,9.74495506286621,-0.48203185200691,0.85471874475479,0.04300371930003,-0.37387496232986,-3.31081867218018
164,2085452903,-26.25125503540039,-84.95534515380859,89.86294555664062,9.77388668060303,-0.62145417928696,0.85074245929718,0.37183237075806,0.04045525938272,-2.93916606903076
165,2085469570,-25.94543266296387,-84.96118164062500,89.58728027343750,9.74077796936035,-0.68551671504974,0.88451129198074,2.09291601181030,0.28236719965935,-2.76724100112915
166,2085486237,-25.68593215942383,-84.96569824218750,89.34654235839844,9.73129272460938,-0.63704317808151,0.93285119533539,1.14002132415771,0.27995961904526,-2.58487844467163
167,2085502904,-25.42793273925781,-84.97211456298828,89.10174560546875,9.70732879638672,-0.73835694789886,0.92851471900940,0.11086456477642,0.19623169302940,-2.71477317810059
168,2085519571,-25.14414405822754,-84.98307800292969,88.83506774902344,9.74937057495117,-0.74725347757339,0.93286168575287,0.79268735647202,-0.01452880259603,-2.89360094070435
169,2085536238,-24.85843467712402,-85.00025177001953,88.55706024169922,9.77086067199707,-0.67308312654495,0.95309478044510,0.99066078662872,-0.36811211705208,-3.04330682754517
170,2085552905,-24.61311340332031,-85.02436828613281,88.29030609130859,9.77542304992676,-0.59490299224854,0.99355316162109,-0.08812688291073,-0.80218333005905,-3.10367631912231
171,2085569572,-24.37779998779297,-85.05363464355469,88.05699157714844,9.78731632232666,-0.71701157093048,0.94569730758667,-1.04543995857239,-1.08679175376892,-3.24970746040344
172,2085586239,-24.20639228820801,-85.09383392333984,87.86267089843750,9.74694061279297,-0.70884948968887,0.96022707223892,-1.38388645648956,-1.79787719249725,-3.22337794303894
173,2085602906,-24.04929542541504,-85.15071105957031,87.66924285888672,9.69030094146729,-0.64580941200256,1.00631856918335,-2.82183456420898,-2.73053836822510,-3.67653083801270
174,2085619573,-23.91348457336426,-85.22135925292969,87.49739837646484,9.71782493591309,-0.64985007047653,1.00091993808746,-2.17794418334961,-3.52759242057800,-3.82957959175110
175,2085636240,-23.80434799194336,-85.29930114746094,87.36462402343750,9.70988368988037,-0.56087815761566,0.93759453296661,-1.53210699558258,-4.01364469528198,-3.81457018852234
176,2085652907,-23.71205329895020,-85.37441253662109,87.26482391357422,9.80936431884766,-0.56273686885834,0.87997341156006,-0.60697621107101,-3.96011424064636,-3.59905219078064
177,2085669574,-23.62228775024414,-85.44104003906250,87.21391296386719,9.78068923950195,-0.51754271984100,0.88950294256210,1.45317482948303,-3.55210351943970,-3.20744609832764
178,2085686241,-23.50599479675293,-85.47320556640625,87.12982940673828,9.84455013275146,-0.60956615209579,0.77714914083481,2.00087714195251,-1.63759291172028,-2.45156478881836
179,2085702908,-23.35899543762207,-85.48481750488281,87.04209136962891,9.74301719665527,-0.50985217094421,0.64853304624557,3.14470195770264,-0.48587933182716,-2.00654387474060
180,2085719575,-23.23634147644043,-85.49880981445312,86.94050598144531,9.78922653198242,-0.50020748376846,0.77839761972427,1.16060113906860,-0.60198169946671,-2.09853196144104
181,2085736242,-23.15882492065430,-85.50516510009766,86.84355926513672,9.81193828582764,-0.51088148355484,0.82657605409622,-0.60447883605957,-0.22415590286255,-1.85373806953430
182,2085752909,-23.09992408752441,-85.50238037109375,86.77113342285156,9.76298141479492,-0.38486260175705,0.72008389234543,-1.33998608589172,0.27326190471649,-1.60491108894348
183,2085769576,-23.09107780456543,-85.49842071533203,86.72059631347656,9.76909923553467,-0.62476259469986,0.69180679321289,-2.11678695678711,0.27143698930740,-1.41625404357910
184,2085786243,-23.08148574829102,-85.49298095703125,86.70767974853516,9.74597835540771,-0.55899536609650,0.83296817541122,-0.23351739346981,0.28670856356621,-1.25290286540985
185,2085802910,-23.01254653930664,-85.44990539550781,86.60308074951172,9.94636535644531,-0.58079969882965,1.25140357017517,-2.30626344680786,2.54443001747131,-0.77877336740494
186,2085819577,-22.57308197021484,-85.20458221435547,86.05485534667969,9.93610858917236,-0.68226033449173,1.03766703605652,-7.01203966140747,14.55075359344482,1.83932626247406
187,2085836244,-22.16457176208496,-85.00370025634766,85.56466674804688,9.57447624206543,-0.57443636655807,0.65658468008041,-4.86197757720947,12.04246902465820,0.92160940170288
188,2085852911,-21.93805694580078,-84.88132476806641,85.32713317871094,9.69483470916748,-0.66736674308777,0.83530831336975,-1.35486054420471,7.23748970031738,0.19463731348515
189,2085869578,-21.54902458190918,-84.61853790283203,84.79219055175781,10.57737350463867,-0.53329074382782,2.03590011596680,-8.84158515930176,15.68504428863525,1.75545811653137
190,2085886245,-20.35934257507324,-84.13558959960938,83.93765258789062,9.14047431945801,-1.04756808280945,0.30487444996834,21.15595245361328,28.73118400573730,4.38679599761963
191,2085902912,-20.01177978515625,-83.90439605712891,83.81467437744141,9.48596668243408,-0.41285416483879,0.78995913267136,13.20945835113525,13.24641704559326,2.70912265777588
192,2085919579,-19.94013023376465,-83.81116485595703,83.93016815185547,9.65700340270996,-0.65314847230911,1.06475245952606,11.50726604461670,4.95363950729370,1.32114219665527
193,2085936246,-20.02114105224609,-83.79894256591797,84.11782073974609,9.71953773498535,-0.63297742605209,1.26938128471375,6.91854286193848,0.22189569473267,0.13814212381840
194,2085952913,-20.17327308654785,-83.83569335937500,84.31760406494141,9.76301574707031,-0.57839673757553,1.19582474231720,2.62153625488281,-2.53752040863037,-0.87474411725998
195,2085969580,-20.41373062133789,-83.90281677246094,84.54414367675781,9.91159152984619,-0.65659832954407,1.33966147899628,-0.52113533020020,-4.31130361557007,-1.30163109302521
196,2085986247,-20.53565406799316,-83.89806365966797,84.77149963378906,9.71556186676025,-0.82174640893936,1.08400654792786,6.42846727371216,-0.28916099667549,0.15901644527912
197,2086002914,-20.67782211303711,-83.90069580078125,85.02927398681641,9.65590858459473,-0.34389275312424,1.01038587093353,6.97667074203491,-0.75783514976501,0.18655015528202
198,2086019581,-20.95472908020020,-83.92494964599609,85.35375976562500,9.71165943145752,-0.63041734695435,1.16005575656891,2.50763678550720,-2.10962200164795,0.08258814364672
199,2086036248,-21.19988250732422,-83.93072509765625,85.71877288818359,9.73600578308105,-0.82992386817932,1.16461110115051,7.53429746627808,-1.20113968849182,0.77661556005478
200,2086052915,-21.44653320312500,-83.93524932861328,86.18804168701172,9.67391014099121,-0.67370188236237,1.00862443447113,12.74007129669189,-1.34769606590271,1.32243561744690
201,2086069582,-21.75968551635742,-83.95921325683594,86.65608215332031,9.75291252136230,-0.63937306404114,0.99621051549911,9.97739219665527,-2.48309445381165,1.00386452674866
202,2086086249,-22.10756301879883,-83.98529815673828,87.14547729492188,9.86259937286377,-0.64168518781662,1.16149461269379,7.15714979171753,-2.58298325538635,0.85865312814713
203,2086102916,-22.44033050537109,-83.99073791503906,87.58295440673828,9.80224609375000,-0.52906847000122,1.02011334896088,6.40047359466553,-1.39350390434265,1.13698625564575
204,2086119583,-22.77775573730469,-83.99064636230469,87.97061920166016,9.85920810699463,-0.54595232009888,0.90914314985275,3.07634115219116,-0.96767973899841,0.96422851085663
205,2086136250,-23.10570907592773,-83.99012756347656,88.33734893798828,9.86032676696777,-0.73009157180786,0.95240932703018,1.97092306613922,-0.89274990558624,0.80475115776062
206,2086152917,-23.41847610473633,-83.97872161865234,88.70703125000000,9.78254508972168,-0.73812162876129,1.05236530303955,2.51214480400085,-0.28362864255905,1.02712059020996
207,2086169584,-23.76272964477539,-83.95065307617188,89.06930541992188,9.77775478363037,-0.57648539543152,1.08217298984528,-0.06356431543827,0.64048391580582,1.36426043510437
208,2086186251,-24.11280059814453,-83.91433715820312,89.38000488281250,9.77814960479736,-0.61392861604691,0.96529036760330,-2.07850289344788,1.13953471183777,1.41376972198486
209,2086202918,-24.44781494140625,-83.88240051269531,89.66501617431641,9.74852943420410,-0.54081809520721,1.04645669460297,-2.85345339775085,0.96801912784576,1.16720914840698
210,2086219585,-24.89165306091309,-83.85700988769531,89.95318603515625,9.83517265319824,-0.18558473885059,1.19500529766083,-9.33924484252930,0.56943452358246,1.01188123226166
211,2086236252,-25.45757675170898,-83.84674072265625,90.22309875488281,9.83734130859375,-0.80053049325943,1.03856742382050,-18.31026458740234,-0.18195922672749,0.48518189787865
212,2086252919,-25.93731498718262,-83.82765960693359,90.49246978759766,9.76423454284668,-0.96710807085037,0.93956601619720,-13.65826797485352,0.29640313982964,0.66394555568695
213,2086269586,-26.33652687072754,-83.80268096923828,90.68064880371094,9.76423358917236,-0.79414176940918,0.82487362623215,-12.66933631896973,0.78029131889343,0.45034831762314
214,2086286253,-26.70735740661621,-83.77590942382812,90.87727355957031,9.77618408203125,-0.76743942499161,0.90927559137344,-10.76053333282471,0.85541319847107,0.52886402606964
215,2086302920,-27.03168487548828,-83.74499511718750,91.03827667236328,9.84545612335205,-0.73385250568390,1.19014024734497,-9.11941051483154,1.12095296382904,0.53767478466034
216,2086319587,-27.23596572875977,-83.65266418457031,91.14001464843750,9.73834609985352,-0.78181588649750,1.12816560268402,-6.58552026748657,4.61826562881470,1.77245056629181
217,2086336254,-27.41069030761719,-83.55831909179688,91.22789764404297,9.77825927734375,-0.84479832649231,1.10186660289764,-5.32586002349854,4.73605728149414,1.79875445365906
218,2086352921,-27.61871719360352,-83.48037719726562,91.36812591552734,9.75498390197754,-0.78668290376663,1.15300655364990,-4.88842201232910,3.71572446823120,1.61137211322784
219,2086369588,-27.91724395751953,-83.42884063720703,91.53508758544922,9.75730133056641,-0.90707302093506,1.18574321269989,-7.94233942031860,2.18147230148315,1.14368414878845
220,2086386255,-28.26458930969238,-83.39966583251953,91.74990844726562,9.74950408935547,-0.81101059913635,1.19046056270599,-7.77323198318481,0.81499624252319,0.84775483608246
221,2086402922,-28.63027954101562,-83.40542602539062,91.99967193603516,9.72799301147461,-0.93309408426285,0.96234005689621,-6.52840232849121,-1.17461764812469,0.09232098609209
222,2086419589,-29.00054550170898,-83.46835327148438,92.31437683105469,9.67461395263672,-0.92307251691818,0.89101839065552,-3.00518369674683,-4.38468408584595,-1.18593871593475
223,2086436256,-29.51398468017578,-83.59583282470703,92.78524017333984,9.67686080932617,-0.86605763435364,1.01417613029480,-2.44426536560059,-8.24401950836182,-2.22732567787170
224,2086452923,-30.22048950195312,-83.75559234619141,93.40955352783203,9.72546291351318,-0.99251097440720,1.14436697959900,-5.13416433334351,-10.37898254394531,-2.49122691154480
225,2086469590,-30.82981872558594,-83.89712524414062,94.03015136718750,9.72087478637695,-0.93690216541290,1.09490466117859,0.17428165674210,-9.33186817169189,-2.18039035797119
226,2086486257,-31.39920997619629,-84.01623535156250,94.59265136718750,9.82804489135742,-0.92876398563385,1.14398086071014,-1.14602124691010,-7.92792034149170,-1.99392986297607
227,2086502924,-31.73954391479492,-84.10159301757812,94.94024658203125,9.82568264007568,-0.92517119646072,1.06938910484314,2.59484863281250,-5.62021493911743,-1.93960535526276
228,2086519591,-32.00271606445312,-84.16065216064453,95.21139526367188,9.80950832366943,-0.73354637622833,1.18243479728699,0.20000956952572,-3.88681006431580,-1.77917969226837
229,2086536258,-32.25120544433594,-84.19958496093750,95.43853759765625,9.75399780273438,-0.95205610990524,0.99416315555573,-0.79931461811066,-2.75538206100464,-1.33057320117950
230,2086552925,-32.43745422363281,-84.22286987304688,95.67108154296875,9.73054790496826,-0.74477303028107,1.06809198856354,2.62995028495789,-1.93724846839905,-0.86643278598785
231,2086569592,-32.64296340942383,-84.23819732666016,95.88778686523438,9.74519062042236,-0.63294333219528,1.00896561145782,0.54457730054855,-1.49723529815674,-0.71165531873703
232,2086586259,-32.94556045532227,-84.25689697265625,96.15186309814453,9.59772682189941,-0.55179071426392,1.08497846126556,-2.62356638908386,-1.80109143257141,-0.59411859512329
233,2086602926,-33.31549835205078,-84.27669525146484,96.46101379394531,9.72947978973389,-0.70745998620987,1.06720507144928,-3.61365079879761,-2.03017139434814,-0.39190632104874
234,2086619593,-33.60943984985352,-84.29442596435547,96.74712371826172,9.84136486053467,-1.19850885868073,0.90046977996826,-0.52802497148514,-1.84008646011353,-0.45842245221138
235,2086636260,-33.75897216796875,-84.31094360351562,96.96100616455078,9.74817371368408,-1.00699830055237,0.94023203849792,4.51841354370117,-1.58707821369171,-0.73900324106216
236,2086652927,-33.91872406005859,-84.33268737792969,97.17448425292969,9.76455497741699,-0.99097305536270,0.95156162977219,3.02494335174561,-1.78838121891022,-0.98596084117889
237,2086669594,-34.01512908935547,-84.35878753662109,97.32723999023438,9.75591087341309,-1.10201478004456,0.95255142450333,2.89552879333496,-1.79094886779785,-1.46867704391479
238,2086686261,-33.98889541625977,-84.38277435302734,97.38211059570312,9.76050949096680,-0.86042863130569,0.92444145679474,4.73781251907349,-1.37526774406433,-1.85206127166748
239,2086702928,-33.91625595092773,-84.40809631347656,97.37211608886719,9.74133872985840,-0.67223274707794,0.86974471807480,3.52451205253601,-1.22424221038818,-2.22339344024658
240,2086719595,-33.86309051513672,-84.43064117431641,97.36052703857422,9.70582008361816,-0.63298738002777,0.87147086858749,3.91976785659790,-1.17628264427185,-2.00773477554321
241,2086736262,-33.80703353881836,-84.45034790039062,97.40186309814453,9.79772281646729,-0.71789610385895,0.85829395055771,5.15241765975952,-1.07844197750092,-1.81085026264191
242,2086752929,-33.76378250122070,-84.46437835693359,97.43373870849609,9.79100608825684,-0.81348729133606,0.88956582546234,5.46309900283813,-0.87035161256790,-1.54962599277496
243,2086769596,-33.69038391113281,-84.46055603027344,97.43350219726562,9.79234027862549,-0.70366805791855,0.86734330654144,4.08785057067871,0.19848561286926,-1.20306050777435
244,2086786263,-33.60781478881836,-84.44519042968750,97.35366821289062,9.79810142517090,-0.58735817670822,0.86380064487457,-0.20353770256042,1.03184592723846,-1.21568751335144
245,2086802930,-33.48685455322266,-84.42244720458984,97.21711730957031,9.78565692901611,-0.79287302494049,0.77091968059540,-1.16383469104767,1.57446384429932,-1.24325966835022
246,2086819597,-33.34946823120117,-84.39457702636719,97.10130310058594,9.69983482360840,-0.71012294292450,0.84910827875137,1.24315071105957,1.76462554931641,-0.95817756652832
247,2086836264,-33.28277206420898,-84.36647033691406,97.01663970947266,9.75384712219238,-0.75354760885239,0.92602819204330,-0.89620751142502,1.66546571254730,-0.78422886133194
248,2086852931,-33.16280746459961,-84.32749938964844,96.91242218017578,9.81934928894043,-0.92687976360321,0.93738532066345,1.01530015468597,2.27221751213074,-0.54596668481827
249,2086869598,-33.03816986083984,-84.28344726562500,96.78221130371094,9.79637050628662,-0.81096768379211,0.87667518854141,0.33191493153572,2.59049391746521,-0.46554276347160
250,2086886265,-32.93306732177734,-84.24946594238281,96.65637207031250,9.72343063354492,-0.87877422571182,0.94325399398804,-1.51694405078888,2.12578988075256,-0.85762208700180
251,2086902932,-32.84804153442383,-84.22573089599609,96.57319641113281,9.71367835998535,-0.80674326419830,0.99986237287521,-0.17010036110878,1.47490739822388,-0.98142105340958
252,2086919599,-32.82883834838867,-84.20844268798828,96.55750274658203,9.75052356719971,-0.64888346195221,1.07050037384033,-0.89412015676498,0.97642016410828,-0.91482806205750
253,2086936266,-32.86685180664062,-84.19525909423828,96.58167266845703,9.76224040985107,-0.82429873943329,0.97872257232666,-1.92002403736115,0.63514375686646,-0.84408575296402
254,2086952933,-32.90960311889648,-84.18783569335938,96.61446380615234,9.72880744934082,-0.87962502241135,0.91993850469589,-0.45561790466309,0.25103005766869,-0.88140338659286
255,2086969600,-32.98617172241211,-84.18840789794922,96.67974853515625,9.70375251770020,-0.88285100460052,0.94421911239624,-0.71292316913605,-0.25012722611427,-0.98987329006195
256,2086986267,-33.02468109130859,-84.18863677978516,96.74049377441406,9.73977661132812,-0.91316610574722,0.99096602201462,1.30617094039917,-0.22263197600842,-1.00458776950836
257,2087002934,-33.03557205200195,-84.18048095703125,96.75907897949219,9.81692695617676,-0.69260293245316,0.95888525247574,0.02714946307242,0.36541640758514,-0.97893667221069
258,2087019601,-33.08723831176758,-84.17503356933594,96.76332855224609,9.71864414215088,-0.69975966215134,0.93847328424454,-2.15768432617188,0.21359711885452,-1.04668223857880
259,2087036268,-33.20562362670898,-84.17657470703125,96.83631896972656,9.71559143066406,-0.82020324468613,0.91403967142105,-2.77258133888245,-0.32714462280273,-0.98521178960800
260,2087052935,-33.29985427856445,-84.18419647216797,96.95537567138672,9.72321701049805,-0.88095122575760,0.92986613512039,1.96072924137115,-0.81176251173019,-0.90395545959473
261,2087069602,-33.38491058349609,-84.19140625000000,97.08480072021484,9.78516769409180,-0.80071473121643,0.92219728231430,2.79105448722839,-0.80680650472641,-0.86679154634476
262,2087086269,-33.48485183715820,-84.19580078125000,97.17188262939453,9.76366233825684,-0.79924720525742,0.89918708801270,-0.60263478755951,-0.53033018112183,-0.99183261394501
263,2087102936,-33.54243469238281,-84.19289398193359,97.22261810302734,9.74306583404541,-0.87624341249466,0.86622482538223,-2.28674650192261,0.07368773221970,-1.10451555252075
264,2087119603,-33.57630157470703,-84.18836975097656,97.21527862548828,9.76598739624023,-0.83248698711395,0.87710112333298,-1.56086969375610,0.18940590322018,-1.11866664886475
265,2087136270,-33.58945846557617,-84.18499755859375,97.20044708251953,9.78584671020508,-0.79848337173462,0.92465883493423,-1.97790884971619,0.24069535732269,-1.28649401664734
266,2087152937,-33.59825134277344,-84.18230438232422,97.16620635986328,9.74849033355713,-0.83596181869507,0.91939228773117,-2.78551578521729,0.25143989920616,-1.41086935997009
267,2087169604,-33.61806106567383,-84.18412780761719,97.13970184326172,9.72947120666504,-0.84070861339569,0.95480120182037,-2.10793161392212,-0.02919207140803,-1.43404865264893
268,2087186271,-33.63422775268555,-84.18860626220703,97.12425994873047,9.75831890106201,-0.85634464025497,0.92758852243423,-1.87988877296448,-0.17934653162956,-1.53305459022522
269,2087202938,-33.65613555908203,-84.19528961181641,97.12621307373047,9.75657463073730,-0.94009524583817,0.93308591842651,-1.18268549442291,-0.34835183620453,-1.51641881465912
270,2087219605,-33.63984680175781,-84.20606994628906,97.10382080078125,9.75024032592773,-0.85227513313293,0.96971005201340,-0.26604551076889,-0.47113913297653,-1.76548969745636
271,2087236272,-33.62734222412109,-84.22107696533203,97.07209014892578,9.76740264892578,-0.87307637929916,0.95323318243027,-1.25327420234680,-0.63188457489014,-1.96603727340698
272,2087252939,-33.56365203857422,-84.24108886718750,97.02077484130859,9.75854587554932,-0.98545014858246,0.94299572706223,1.23824584484100,-0.85667431354523,-2.18694686889648
273,2087269606,-33.49892807006836,-84.26523590087891,96.99259185791016,9.76207065582275,-0.86448079347610,0.93327611684799,2.44210696220398,-1.12642729282379,-2.22416186332703
274,2087286273,-33.44343185424805,-84.29490661621094,96.98564147949219,9.74269294738770,-0.98408293724060,0.96043503284454,3.03802466392517,-1.46119809150696,-2.30336928367615
275,2087302940,-33.37881088256836,-84.33068084716797,97.00214385986328,9.69294643402100,-1.01154386997223,0.93804919719696,5.00276231765747,-1.85185599327087,-2.38906931877136
276,2087319607,-33.31074142456055,-84.38270568847656,97.03958129882812,9.71700191497803,-0.88030105829239,0.98588573932648,6.00593519210815,-2.70948433876038,-2.85753870010376
277,2087336274,-33.31546401977539,-84.45546722412109,97.11742401123047,9.58068752288818,-0.84598863124847,0.99348318576813,4.60717391967773,-3.90012931823730,-3.29141783714294
278,2087352941,-33.40559768676758,-84.54648590087891,97.30728149414062,9.61955642700195,-0.75142449140549,0.98412710428238,5.92118310928345,-5.15352630615234,-3.38599300384521
279,2087369608,-33.58531951904297,-84.66314697265625,97.61520385742188,9.68712234497070,-0.91916012763977,0.98839318752289,7.75144243240356,-6.79249715805054,-3.69163012504578
280,2087386275,-33.72098159790039,-84.77096557617188,97.96543121337891,9.84628677368164,-0.95389294624329,1.26828765869141,11.56804752349854,-6.37960910797119,-3.35082840919495
281,2087402942,-33.23491668701172,-84.74726867675781,97.74594879150391,9.73838520050049,-1.02932906150818,1.13789737224579,15.90918731689453,1.84996855258942,-1.53806304931641
282,2087419609,-33.18833541870117,-84.80280303955078,97.94153594970703,9.43629550933838,-0.65099310874939,0.91187441349030,14.91722202301025,-3.38958120346069,-2.19143104553223
283,2087436276,-33.42870330810547,-84.91870117187500,98.45135498046875,9.66619491577148,-0.84045225381851,0.86262696981430,16.01077079772949,-7.30170774459839,-2.81000447273254
284,2087452943,-33.50325393676758,-85.01741027832031,98.86876678466797,9.80870056152344,-0.68785375356674,0.73542624711990,20.88825416564941,-6.16619729995728,-2.68983101844788
285,2087469610,-33.52496337890625,-85.09519958496094,99.19527435302734,9.75237846374512,-0.47578117251396,0.61713802814484,17.76443862915039,-4.80341720581055,-2.49248361587524
286,2087486277,-33.66530227661133,-85.16276550292969,99.58173370361328,9.77791213989258,-0.24321125447750,0.57493239641190,14.74571609497070,-4.46508455276489,-1.88297665119171
287,2087502944,-33.72751617431641,-85.15419006347656,99.66771697998047,10.03897571563721,-0.46120330691338,0.56282943487167,2.33281755447388,0.12677006423473,-0.59299165010452
288,2087519611,-33.42073440551758,-85.06208038330078,99.42248535156250,10.00778198242188,-0.70162922143936,0.37330949306488,3.96530699729919,5.28109598159790,0.72103595733643
289,2087536278,-33.06653976440430,-84.93840789794922,99.11592864990234,9.74732685089111,-0.33440282940865,0.33774399757385,2.94879055023193,7.06284379959106,1.41365468502045
290,2087552945,-33.02470779418945,-84.83161163330078,99.00524139404297,9.80274581909180,-0.36267071962357,0.53156775236130,-4.47382926940918,5.69474220275879,1.66284096240997
291,2087569612,-32.99779891967773,-84.70036315917969,98.90569305419922,9.98067569732666,-0.78817361593246,0.80688852071762,-4.99089765548706,6.91032075881958,2.47172856330872
292,2087586279,-32.56110763549805,-84.49184417724609,98.44458007812500,9.91592216491699,-0.91504305601120,0.73631101846695,-0.70004034042358,11.87524604797363,3.31541252136230
293,2087602946,-31.94408798217773,-84.24422454833984,97.85070037841797,9.88245677947998,-0.73662412166595,0.90928864479065,2.09608078002930,14.37355136871338,3.68993449211121
294,2087619613,-31.24797248840332,-83.93343353271484,97.17343902587891,9.65760135650635,-0.60439175367355,0.78385752439499,0.95005297660828,18.06664085388184,4.84440469741821
295,2087636280,-30.84602928161621,-83.63951873779297,96.71370697021484,9.77570724487305,-0.61601066589355,0.91905057430267,-3.05369687080383,16.61390304565430,5.24599933624268
296,2087652947,-30.58114814758301,-83.38520812988281,96.44573211669922,9.70812416076660,-0.98647212982178,0.98695474863052,-0.77892756462097,14.05973052978516,4.84819316864014
297,2087669614,-30.33861541748047,-83.15427398681641,96.24729919433594,9.70888423919678,-1.03231704235077,1.10965752601624,3.30060815811157,12.59752464294434,4.56829690933228
298,2087686281,-30.20395469665527,-82.96154022216797,96.14390563964844,9.67220878601074,-0.75750762224197,1.29740917682648,2.16026568412781,10.33375453948975,3.89981651306152
299,2087702948,-30.28771209716797,-82.80565643310547,96.17686462402344,9.74506664276123,-0.83539724349976,1.29617881774902,-2.81634092330933,7.93453454971313,3.65114259719849
300,2087719615,-30.46655464172363,-82.68096160888672,96.28073120117188,9.73845577239990,-1.23199522495270,1.23077118396759,-4.38568258285522,6.03974437713623,3.18283963203430
301,2087736282,-30.53732109069824,-82.56346130371094,96.35805511474609,9.66854572296143,-1.14120721817017,1.25221157073975,-0.56629043817520,5.82185697555542,2.69024300575256
302,2087752949,-30.67474937438965,-82.47449493408203,96.46958923339844,9.64202213287354,-1.03354418277740,1.34215199947357,-1.72434282302856,4.15466213226318,2.15729355812073
303,2087769616,-30.90392494201660,-82.41651153564453,96.63285827636719,9.62413692474365,-0.94947105646133,1.42079806327820,-2.98934149742126,2.25376367568970,1.70791876316071
304,2087786283,-31.20716285705566,-82.38565063476562,96.88320159912109,9.74298477172852,-0.98825228214264,1.28425908088684,-3.46028232574463,0.57035642862320,1.34572982788086
305,2087802950,-31.47425270080566,-82.37465667724609,97.16110229492188,9.71208000183105,-1.22852444648743,1.16965508460999,0.00285581592470,-0.54824620485306,0.88522619009018
306,2087819617,-31.74027252197266,-82.38338470458984,97.48428344726562,9.57351303100586,-0.93586975336075,1.33819019794464,4.35715579986572,-1.87111663818359,0.74739140272141
307,2087836284,-32.24801635742188,-82.41397857666016,97.94436645507812,9.74986743927002,-0.81040608882904,1.28556442260742,-4.04888772964478,-3.42108225822449,0.73202383518219
308,2087852951,-32.74113464355469,-82.48535156250000,98.43671417236328,9.71002769470215,-1.31268417835236,1.04357099533081,0.32601127028465,-5.73976135253906,-0.24650302529335
309,2087869618,-33.28669357299805,-82.60227203369141,99.10437774658203,9.70533561706543,-1.34129786491394,0.99317020177841,6.49539613723755,-8.67179107666016,-0.79953271150589
310,2087886285,-33.92141342163086,-82.74783325195312,99.86171722412109,9.67688083648682,-1.01277816295624,1.21969342231750,6.77023363113403,-10.45868778228760,-1.31328535079956
311,2087902952,-34.62514495849609,-82.90685272216797,100.73983001708984,9.66288185119629,-1.35128164291382,1.13356971740723,9.69504261016846,-11.54979515075684,-1.24735867977142
312,2087919619,-35.22607421875000,-83.06109619140625,101.58917999267578,9.71583747863770,-1.04092848300934,1.17714679241180,15.17514705657959,-11.18939018249512,-1.40736198425293
313,2087936286,-35.87953567504883,-83.20199584960938,102.36914062500000,9.81364154815674,-1.09591853618622,1.17558681964874,9.11177349090576,-10.25756454467773,-1.46624457836151
314,2087952953,-36.31246948242188,-83.30915832519531,103.02828979492188,9.69563198089600,-0.94946318864822,1.16711497306824,13.25415802001953,-7.92065048217773,-1.31945836544037
315,2087969620,-36.73754119873047,-83.38867950439453,103.70259094238281,9.73423194885254,-0.71678352355957,1.14558005332947,12.59288883209229,-6.47096967697144,-0.54718369245529
316,2087986287,-37.09326171875000,-83.45485687255859,104.20359039306641,9.85230064392090,-0.96707713603973,1.07137846946716,8.72024345397949,-5.25788545608521,-0.89979368448257
317,2088002954,-37.33507919311523,-83.50777435302734,104.59635925292969,9.73783111572266,-1.19698345661163,0.90997296571732,7.54948568344116,-4.04967021942139,-1.19658100605011
318,2088019621,-37.45462799072266,-83.54779815673828,104.84677124023438,9.71775436401367,-0.93571853637695,0.91421705484390,7.12267684936523,-2.88176918029785,-1.45047962665558
319,2088036288,-37.68583297729492,-83.57917785644531,105.05406951904297,9.74555873870850,-0.75694411993027,1.05615711212158,-1.12311041355133,-2.36837410926819,-1.29956901073456
320,2088052955,-37.88785552978516,-83.60208129882812,105.15711212158203,9.77707290649414,-1.02126181125641,0.98449802398682,-5.87410116195679,-1.51863479614258,-1.58221840858459
321,2088069622,-37.97509002685547,-83.62055969238281,105.15893554687500,9.65290546417236,-1.07040476799011,0.96030360460281,-5.52289915084839,-0.84610915184021,-1.99376296997070
322,2088086289,-37.96433258056641,-83.64405822753906,105.13115692138672,9.65483951568604,-0.84773552417755,0.94033652544022,-0.93731594085693,-1.00483107566833,-2.30486750602722
323,2088102956,-37.99478530883789,-83.66296386718750,105.18009185791016,9.77099895477295,-0.80732500553131,0.95922762155533,0.13309638202190,-1.01754772663116,-1.81086266040802
324,2088119623,-38.06013488769531,-83.66928100585938,105.24501800537109,9.88967895507812,-1.10661768913269,0.93158304691315,-0.47219568490982,-0.53632992506027,-1.22861552238464
325,2088136290,-38.06881332397461,-83.66760253906250,105.25123596191406,9.79636192321777,-1.30025136470795,0.91828995943069,-0.15413081645966,0.05855062976480,-1.19842469692230
326,2088152957,-38.03770446777344,-83.66810607910156,105.21690368652344,9.75651645660400,-1.15302407741547,0.85467302799225,-0.83462184667587,0.16732777655125,-1.54604029655457
327,2088169624,-38.00830078125000,-83.67101287841797,105.18106842041016,9.77379417419434,-1.11814236640930,0.89337742328644,-1.08576714992523,0.06483855098486,-1.64668524265289
328,2088186291,-38.05939865112305,-83.66580963134766,105.15084838867188,9.82437324523926,-0.81686580181122,0.98407363891602,-4.75737333297729,0.36636406183243,-1.25002145767212
329,2088202958,-38.13191223144531,-83.66648864746094,105.12641906738281,9.78210258483887,-1.15679430961609,0.93491047620773,-5.97313117980957,0.08742894977331,-1.45941793918610
330,2088219625,-38.15761947631836,-83.67299652099609,105.12397766113281,9.58583354949951,-0.91718590259552,1.07418859004974,-1.45316863059998,-0.31164896488190,-1.53260636329651
331,2088236292,-38.29150772094727,-83.67820739746094,105.24130249023438,9.84379291534424,-1.39935910701752,1.05016124248505,-0.82535010576248,-0.73247838020325,-0.85581642389297
332,2088252959,-38.24608993530273,-83.67581176757812,105.25134277343750,9.84493637084961,-1.31348049640656,0.89395463466644,4.46090030670166,0.00239478750154,-1.05518567562103
333,2088269626,-38.22652053833008,-83.69752502441406,105.22398376464844,9.82047843933105,-1.19978249073029,0.89248454570770,-0.92809528112411,-0.86989057064056,-2.28203392028809
334,2088286293,-38.13768386840820,-83.73040008544922,105.09883880615234,9.88625240325928,-1.59596741199493,1.01819288730621,-3.01512074470520,-0.97665709257126,-3.23842525482178
335,2088302960,-37.74309921264648,-83.76024627685547,104.74266052246094,9.87408733367920,-1.39399898052216,1.05424380302429,2.40860533714294,0.03651089966297,-4.23543739318848
336,2088319627,-37.35145568847656,-83.79957580566406,104.35006713867188,9.61757850646973,-0.64468193054199,0.94181776046753,0.53243684768677,-0.32743918895721,-4.71923637390137
337,2088336294,-37.15357208251953,-83.85018157958984,104.14672088623047,9.52599334716797,-0.35087028145790,0.95328229665756,-0.25377702713013,-1.61612927913666,-4.18340492248535
338,2088352961,-37.20399093627930,-83.89450073242188,104.05906677246094,9.84044170379639,-0.44458091259003,0.90664052963257,-8.06512641906738,-1.78212571144104,-3.33484458923340
339,2088369628,-37.17834091186523,-83.92704010009766,103.78551483154297,9.85104656219482,-0.87884742021561,0.78718900680542,-14.97639369964600,-0.47667196393013,-3.88000082969666
340,2088386295,-37.02090454101562,-83.95960235595703,103.28654479980469,9.81657123565674,-0.96166241168976,0.75702470541000,-20.24810600280762,0.36258670687675,-4.98724174499512
341,2088402962,-36.87993621826172,-83.96655273437500,102.76063537597656,9.56941032409668,-0.73488068580627,0.94597291946411,-22.41251564025879,1.64455592632294,-4.16316604614258
342,2088419629,-36.39955902099609,-83.88131713867188,101.97913360595703,10.03729057312012,-1.16188180446625,0.78156650066376,-17.63210678100586,7.06760311126709,-2.22493338584900
343,2088436296,-35.63766098022461,-83.75728607177734,101.07032775878906,9.72703456878662,-0.27247852087021,0.74205631017685,-8.58274936676025,9.48323631286621,-1.69736099243164
344,2088452963,-35.38645553588867,-83.68357086181641,100.42910766601562,9.74875926971436,-0.42642399668694,0.81541252136230,-23.00044822692871,6.04317426681519,-2.15146446228027
345,2088469630,-35.16112899780273,-83.63684082031250,99.75349426269531,9.57981300354004,-1.02394831180573,0.89348077774048,-27.01105308532715,4.90740633010864,-3.36261725425720
346,2088486297,-34.87013626098633,-83.60364532470703,99.14328765869141,9.68385982513428,-1.29975640773773,0.87502872943878,-18.25632667541504,3.94301629066467,-3.43318819999695
347,2088502964,-34.53192901611328,-83.58081817626953,98.61643981933594,9.76842212677002,-1.20011138916016,0.94844228029251,-11.11684608459473,3.14986419677734,-3.42774295806885
348,2088519631,-34.22571945190430,-83.58021545410156,98.14433288574219,9.69886016845703,-1.07315421104431,1.04875779151917,-9.65433216094971,1.82843995094299,-3.88797688484192
349,2088536298,-33.93017578125000,-83.58882904052734,97.67150115966797,9.58242416381836,-0.78345006704330,1.18998265266418,-10.46781921386719,1.37038254737854,-4.21953439712524
350,2088552965,-33.60942840576172,-83.60819244384766,97.20746612548828,9.68261146545410,-0.94990265369415,0.98491072654724,-8.66835117340088,0.80649924278259,-4.54470539093018
351,2088569632,-33.26662063598633,-83.63893890380859,96.79479217529297,9.75664806365967,-1.00650024414062,1.09384346008301,-3.73011231422424,-0.02454337291420,-4.58955955505371
352,2088586299,-32.92482757568359,-83.66723632812500,96.42209625244141,9.77496719360352,-1.00335109233856,1.07152020931244,-1.68067336082458,-0.04486705362797,-4.29199123382568
353,2088602966,-32.59546661376953,-83.70019531250000,96.04396057128906,9.74681949615479,-1.05604374408722,1.02776777744293,-2.94674777984619,-0.27997881174088,-4.48724889755249
354,2088619633,-32.22617340087891,-83.73503112792969,95.64831542968750,9.70946025848389,-1.01835644245148,1.01048052310944,-1.21612310409546,-0.35227066278458,-4.59019947052002
355,2088636300,-31.79348182678223,-83.77244567871094,95.20279693603516,9.80656623840332,-0.86376810073853,1.02226150035858,-0.24567061662674,-0.36079972982407,-4.92790269851685
356,2088652967,-31.33051490783691,-83.81468200683594,94.71470642089844,9.78409385681152,-0.89589029550552,0.97414654493332,-1.44905781745911,-0.46714365482330,-5.33725738525391
357,2088669634,-30.80378150939941,-83.85528564453125,94.18314361572266,9.76681900024414,-0.92868894338608,0.93836420774460,0.09990233927965,-0.30174958705902,-5.47564315795898
358,2088686301,-30.21645927429199,-83.88516235351562,93.60306549072266,9.82599735260010,-0.89517599344254,1.05519914627075,0.53746974468231,0.37737753987312,-5.42480230331421
359,2088702968,-29.37079811096191,-83.82530975341797,92.74703216552734,9.83752822875977,-0.93077832460403,1.06745612621307,0.14060091972351,5.84087371826172,-4.25988531112671
360,2088719635,-28.62246704101562,-83.78215026855469,91.99594879150391,9.64646720886230,-0.79273205995560,0.95218330621719,0.13761705160141,4.64219999313354,-4.30714082717896
361,2088736302,-27.87255477905273,-83.76668548583984,91.32114410400391,9.70501232147217,-0.45930966734886,1.01839709281921,4.47976398468018,2.93319201469421,-4.76194572448730
362,2088752969,-27.26543617248535,-83.72471618652344,90.65879058837891,9.95189666748047,-0.44883310794830,1.49960267543793,-4.01066064834595,4.30179405212402,-4.07183694839478
363,2088769636,-26.11955642700195,-83.45629882812500,89.43050384521484,9.99801349639893,-0.98066598176956,1.00201296806335,-4.65949964523315,18.09967041015625,-1.45781886577606
364,2088786303,-24.97692298889160,-83.23561096191406,88.34218597412109,9.58357620239258,-0.15548829734325,0.82000815868378,3.70622515678406,15.21352291107178,-2.43844008445740
365,2088802970,-24.37375831604004,-83.13111114501953,87.60009765625000,9.61557006835938,-0.63520210981369,0.93278771638870,-8.08149528503418,7.91211271286011,-3.50655293464661
366,2088819637,-23.91891098022461,-83.11814880371094,87.03200531005859,9.60808753967285,-0.90207976102829,1.08707261085510,-6.44263982772827,2.40552020072937,-4.69403457641602
367,2088836304,-23.44247436523438,-83.14903259277344,86.51273345947266,9.63113307952881,-0.83182567358017,1.23039090633392,-2.56467008590698,-0.16315931081772,-5.48313522338867
368,2088852971,-22.96760559082031,-83.18390655517578,85.96203613281250,9.76509761810303,-0.64778727293015,1.30282819271088,-4.20306348800659,-0.34607246518135,-5.72749423980713
369,2088869638,-22.50964355468750,-83.23769378662109,85.44209289550781,9.79953575134277,-0.75633043050766,1.25476169586182,-3.93468070030212,-1.49919462203979,-5.99668264389038
370,2088886305,-22.07337570190430,-83.31994628906250,84.98670196533203,9.72454452514648,-0.78213649988174,1.12601602077484,-1.94612348079681,-3.28182578086853,-6.23790264129639
371,2088902972,-21.68578338623047,-83.44238281250000,84.54866790771484,9.69607448577881,-0.73858839273453,1.09210276603699,-2.66750574111938,-5.65872383117676,-6.82772636413574
372,2088919639,-21.27004432678223,-83.59561920166016,84.12910461425781,9.68126773834229,-0.86196798086166,1.12382006645203,-0.62322759628296,-7.44705438613892,-7.36358356475830
373,2088936306,-20.83953857421875,-83.77590942382812,83.71148681640625,9.72352409362793,-0.71945017576218,1.15720903873444,1.08113801479340,-9.06244754791260,-7.73741340637207
374,2088952973,-20.41673660278320,-83.97182464599609,83.28987884521484,9.77922821044922,-0.66746175289154,1.23417389392853,0.07177962362766,-9.99769687652588,-7.97793006896973
375,2088969640,-19.88383102416992,-84.07540130615234,82.70484924316406,9.99470233917236,-0.76911455392838,1.42014324665070,-2.55664134025574,-4.54490375518799,-6.83383464813232
376,2088986307,-19.20223808288574,-84.11796569824219,82.01001739501953,9.65727901458740,-0.60509210824966,1.22814905643463,-0.57230943441391,-0.93880158662796,-6.20132827758789
377,2089002974,-18.50393486022949,-84.16574859619141,81.33100128173828,9.63735866546631,-0.44086009263992,1.07282078266144,1.57241499423981,-1.35143506526947,-6.15103769302368
378,2089019641,-17.88754463195801,-84.26154327392578,80.73562622070312,9.65072345733643,-0.55219852924347,1.06123471260071,1.68710887432098,-4.29548788070679,-6.49172544479370
379,2089036308,-17.34229660034180,-84.41390991210938,80.22199249267578,9.70216369628906,-0.48298233747482,1.06181275844574,1.86565530300140,-7.74103784561157,-6.97981548309326
380,2089052975,-16.80787277221680,-84.61916351318359,79.70473480224609,9.68740940093994,-0.47221389412880,1.03559160232544,1.32306325435638,-10.84897613525391,-7.73339366912842
381,2089069642,-16.27617073059082,-84.85562896728516,79.16858673095703,9.80843639373779,-0.49342721700668,0.87724596261978,0.71757876873016,-12.71086978912354,-8.08705711364746
382,2089086309,-15.73055458068848,-85.12066650390625,78.60567474365234,9.82132244110107,-0.31059917807579,0.80395102500916,-1.12413609027863,-14.39254093170166,-8.53052902221680
383,2089102976,-15.04010200500488,-85.28000640869141,77.86592102050781,10.08819675445557,-0.61729115247726,0.98033213615417,-3.26662588119507,-8.17639064788818,-7.45856857299805
384,2089119643,-14.24927616119385,-85.39504241943359,77.03777313232422,9.70201301574707,-0.20346176624298,0.89304840564728,-1.30967390537262,-5.60364484786987,-6.89439725875854
385,2089136310,-13.51299285888672,-85.49402618408203,76.26623535156250,9.66662216186523,-0.44707635045052,0.71936839818954,-1.67052459716797,-4.83867502212524,-6.27670001983643
386,2089152977,-12.76855278015137,-85.62341308593750,75.51770782470703,9.67391490936279,-0.26532638072968,0.71240741014481,-0.50766307115555,-6.69917583465576,-6.48329973220825
387,2089169644,-11.99532604217529,-85.78304290771484,74.72921752929688,9.70871162414551,-0.17435888946056,0.67053151130676,-0.61686301231384,-8.53522586822510,-6.80845451354980
388,2089186311,-11.17443752288818,-85.96599578857422,73.83155059814453,9.86898803710938,-0.13754011690617,0.78719544410706,-4.25922107696533,-9.90532588958740,-7.29111337661743
389,2089202978,-10.30718708038330,-86.03894042968750,72.89332580566406,9.90636730194092,-0.40540632605553,0.60650467872620,-4.31997346878052,-3.50855016708374,-5.99378967285156
390,2089219645,-9.30264663696289,-86.12061309814453,71.83616638183594,9.74351787567139,-0.10041844099760,0.52671819925308,-3.56330966949463,-4.01856279373169,-6.45534229278564
391,2089236312,-8.33895969390869,-86.23438262939453,70.70675659179688,9.70951843261719,-0.20529863238335,0.57035201787949,-9.63333320617676,-5.98927164077759,-6.81465387344360
392,2089252979,-7.25491523742676,-86.39424133300781,69.45767974853516,9.76648330688477,-0.43154042959213,0.78024202585220,-11.11846256256104,-8.75939083099365,-7.47600078582764
393,2089269646,-5.93377685546875,-86.58637237548828,68.02116394042969,9.79885196685791,-0.57176870107651,0.80582880973816,-7.16052913665771,-10.71373176574707,-7.90783262252808
394,2089286313,-4.31357860565186,-86.81912231445312,66.30656433105469,9.74953460693359,-0.03359282016754,0.60740298032761,-5.46865558624268,-13.25867462158203,-8.47100353240967
395,2089302980,-2.36074399948120,-87.12152099609375,64.18505096435547,9.75488853454590,-0.28022155165672,0.53146004676819,-10.33271217346191,-17.51569175720215,-9.13676357269287
396,2089319647,0.27320981025696,-87.48471832275391,61.45082855224609,9.66393756866455,-0.34838777780533,0.58896631002426,-5.36070394515991,-21.37027168273926,-9.47062873840332
397,2089336314,3.71106839179993,-87.83608245849609,57.93618392944336,9.82076644897461,-0.49359676241875,0.94649046659470,-4.12061071395874,-21.01568794250488,-9.29442405700684
398,2089352981,8.12592315673828,-88.14080810546875,53.59975814819336,9.65078735351562,-0.46070247888565,0.64970493316650,4.50971174240112,-18.76237678527832,-8.72588157653809
399,2089369648,14.48662853240967,-88.45414733886719,47.31103515625000,9.67968177795410,0.05514598637819,0.62079417705536,4.64732933044434,-20.16667175292969,-9.00279617309570
400,2089386315,23.70852851867676,-88.76679229736328,38.06163787841797,9.80492115020752,-0.01020329073071,0.45782342553139,-1.21643257141113,-21.52831268310547,-8.64598655700684
401,2089402982,37.74846267700195,-89.04427337646484,23.97503280639648,9.88364219665527,-0.15451064705849,0.37132734060287,-2.20289492607117,-22.04711532592773,-8.15060997009277
402,2089419649,58.69531250000000,-89.23229980468750,3.01120066642761,9.89449214935303,-0.34822437167168,0.24637851119041,0.36422607302666,-22.16110420227051,-7.65064954757690
403,2089436316,85.99703216552734,-89.25822448730469,-24.17036437988281,9.80392837524414,-0.16902589797974,0.29527491331100,5.71794605255127,-23.41221809387207,-7.26497507095337
404,2089452983,111.79924774169922,-89.07570648193359,-49.86827087402344,9.77581405639648,0.10416895151138,0.41646453738213,3.94469904899597,-25.88032341003418,-6.92042207717896
405,2089469650,129.59593200683594,-88.72650909423828,-67.60541534423828,9.70389747619629,0.02404038049281,0.43238854408264,2.61943125724792,-28.53167724609375,-6.92663669586182
406,2089486317,140.82301330566406,-88.27059173583984,-78.81501007080078,9.77821159362793,0.17386908829212,0.44282823801041,1.26597630977631,-31.42676544189453,-6.85363149642944
407,2089502984,147.98229980468750,-87.75911712646484,-86.03680419921875,10.16948795318604,0.53515642881393,0.53828632831573,-3.52962994575500,-33.28798294067383,-6.32579278945923
408,2089519651,152.53625488281250,-87.20172882080078,-90.77141571044922,10.42725467681885,0.55839908123016,0.25424835085869,-10.64678287506104,-34.88891220092773,-6.67920303344727
409,2089536318,155.81767272949219,-86.58201599121094,-94.28041839599609,10.49399375915527,0.28185760974884,0.09585800766945,-12.85663127899170,-38.15875625610352,-7.01895093917847
410,2089552985,158.26400756835938,-85.90538024902344,-96.94564819335938,10.42616367340088,0.26369816064835,0.09469042718410,-12.51256275177002,-41.22043609619141,-7.34629201889038
411,2089569652,159.99296569824219,-85.21226501464844,-98.96030426025391,10.55030536651611,0.26542091369629,0.06242980808020,-16.74879264831543,-42.01572418212891,-7.26782321929932
412,2089586319,161.26596069335938,-84.47916412353516,-100.60292053222656,10.25926017761230,0.35785531997681,-0.08228869736195,-21.88227653503418,-44.28774642944336,-7.44867897033691
413,2089602986,162.06874084472656,-83.69693756103516,-101.91348266601562,10.29471111297607,0.30360645055771,-0.11416648328304,-29.98880577087402,-46.97460556030273,-8.32039833068848
414,2089619653,162.62554931640625,-82.89380645751953,-102.86717987060547,10.29632472991943,0.19544762372971,-0.47041502594948,-23.37698173522949,-47.83171463012695,-9.50454139709473
415,2089636320,163.08581542968750,-82.09033966064453,-103.69942474365234,10.49988460540771,0.17934122681618,-0.72063702344894,-21.84752273559570,-47.90022659301758,-9.24566364288330
416,2089652987,163.37275695800781,-81.30022430419922,-104.32493591308594,10.52271461486816,0.53240591287613,-0.84121394157410,-19.89232254028320,-46.87488937377930,-9.76418399810791
417,2089669654,163.36065673828125,-80.53068542480469,-104.65558624267578,10.90954780578613,0.37145921587944,-0.36929884552956,-20.30621719360352,-45.06490707397461,-11.49333572387695
418,2089686321,162.93963623046875,-80.19966125488281,-104.50952148437500,11.47981357574463,0.07382944226265,0.03879497572780,-16.62019920349121,-18.54169273376465,-8.44950962066650
419,2089702988,162.94285583496094,-80.18334197998047,-104.22643280029297,10.16144561767578,-0.79030889272690,-2.32773685455322,16.91131973266602,-0.06859087198973,-4.34701776504517
420,2089719655,164.32432556152344,-79.72853851318359,-104.77313995361328,8.71117019653320,-0.88637274503708,-3.16187858581543,50.57446670532227,-27.75454711914062,-3.48444986343384
421,2089736322,165.91540527343750,-79.05707550048828,-105.51905059814453,9.10628414154053,-1.27057588100433,-1.51477158069611,51.45835113525391,-41.00692367553711,-3.66689205169678
422,2089752989,167.71623229980469,-78.41422271728516,-106.53356933593750,8.60470390319824,-0.09366269409657,-1.71830177307129,48.33657836914062,-40.21771621704102,1.49603295326233
423,2089769656,168.56411743164062,-77.93379974365234,-107.41333770751953,8.72522926330566,0.63331860303879,1.20263600349426,-0.81088143587112,-30.39443778991699,3.37699389457703
424,2089786323,168.59861755371094,-77.74349212646484,-107.82747650146484,7.89251518249512,0.68276202678680,2.15773940086365,-22.23343086242676,-12.20779037475586,1.58065307140350
425,2089802990,168.14483642578125,-77.88719940185547,-107.93590545654297,8.11124420166016,0.19354955852032,2.31662034988403,-33.60879516601562,8.17325115203857,1.79043757915497
426,2089819657,167.32182312011719,-78.36557006835938,-107.70555877685547,8.13984870910645,0.14713810384274,2.34360480308533,-35.88217163085938,28.64120864868164,2.02370023727417
427,2089836324,166.13470458984375,-79.15003204345703,-106.98942565917969,8.34753513336182,0.16933760046959,2.13736033439636,-29.12144470214844,47.69679260253906,1.34988105297089
428,2089852991,164.46853637695312,-80.18289947509766,-105.59494781494141,8.72535800933838,0.32907792925835,1.96620535850525,-17.69189453125000,63.70075607299805,-0.10408521443605
429,2089869658,162.14047241210938,-81.41137695312500,-103.28347015380859,9.05920696258545,0.29674142599106,1.55563080310822,-2.81861448287964,76.89019012451172,-1.39929568767548
430,2089886325,158.73165893554688,-82.79518890380859,-99.61947631835938,9.61356544494629,0.13013362884521,1.17356753349304,13.17765426635742,88.19084930419922,-2.02538728713989
431,2089902992,153.17736816406250,-84.26934051513672,-93.54479217529297,9.96820163726807,0.18997603654861,1.03159761428833,28.88149261474609,97.23152160644531,-2.91397953033447
432,2089919659,142.87484741210938,-85.74546051025391,-82.58973693847656,10.28926849365234,0.52769601345062,0.84290361404419,36.71989822387695,104.84676361083984,-3.36947822570801
433,2089936326,121.12824249267578,-86.99847412109375,-60.41368484497070,10.58328247070312,0.95256531238556,0.88142269849777,23.62213897705078,111.59790802001953,-3.16379380226135
434,2089952993,80.63873291015625,-87.39098358154297,-19.88423728942871,10.84908676147461,1.19155883789062,0.61351847648621,0.88844704627991,119.75802612304688,-2.11551761627197
435,2089969660,45.55011367797852,-86.38383483886719,14.86221885681152,10.97941493988037,1.54480314254761,0.58649021387100,-23.27436447143555,126.15076446533203,-1.43345320224762
436,2089986327,28.25400352478027,-84.63848876953125,31.56550025939941,10.75214672088623,1.22965025901794,0.39384627342224,-38.89413070678711,129.61485290527344,-0.49332606792450
437,2090002994,19.32479476928711,-82.64646148681641,39.86011123657227,10.76707458496094,0.85074961185455,0.25112655758858,-41.29684448242188,131.09109497070312,1.19689714908600
438,2090019661,14.01373958587646,-80.57819366455078,44.58290100097656,10.80477237701416,0.55962610244751,0.16574946045876,-38.42789077758789,130.47186279296875,2.81462240219116
439,2090036328,10.51384449005127,-78.51631927490234,47.54656982421875,10.76988506317139,0.04219273477793,0.00652268528938,-35.16458892822266,127.59770202636719,4.00087404251099
440,2090052995,8.16311931610107,-76.52499389648438,49.56137084960938,10.64571094512939,-0.56083863973618,-0.19492550194263,-23.02971458435059,122.03968811035156,5.12280607223511
441,2090069662,6.61544799804688,-74.65377807617188,51.01637268066406,10.70880603790283,-0.63835185766220,-0.24188266694546,-8.30455303192139,114.07508850097656,5.83212757110596
442,2090086329,5.58575630187988,-72.93787384033203,52.09885787963867,10.53775596618652,-0.13694024085999,-0.13948199152946,0.59766972064972,104.25758361816406,5.80207633972168
443,2090102996,4.76281785964966,-71.40966796875000,52.90118408203125,10.20051956176758,0.23848688602448,0.11661610752344,-3.53142595291138,92.62053680419922,5.12720346450806
444,2090119663,4.03680038452148,-70.07797241210938,53.50159454345703,9.73448562622070,0.41023841500282,0.32556203007698,-9.52460384368896,80.56774902343750,4.43743848800659
445,2090136330,3.27940177917480,-68.94371032714844,53.97769165039062,9.51241016387939,0.68019801378250,0.57413089275360,-18.65699005126953,68.55045318603516,4.35755348205566
446,2090152997,2.35087823867798,-68.01325225830078,54.38458633422852,9.38848495483398,0.81136083602905,0.68031311035156,-32.96963119506836,56.20506286621094,4.92611408233643
447,2090169664,1.22230553627014,-67.30919647216797,54.74966812133789,9.20971679687500,0.69457155466080,0.82942080497742,-47.41977310180664,42.49792480468750,5.72829961776733
448,2090186331,0.07048100978136,-66.82865905761719,55.02570724487305,8.99795341491699,0.20104114711285,0.96038115024567,-53.81985092163086,28.92850494384766,4.85376024246216
449,2090202998,-0.69366967678070,-66.55146026611328,55.10625076293945,8.92377948760986,-0.69021755456924,1.12284219264984,-41.37329101562500,16.65379524230957,0.72830855846405
450,2090219665,-0.85423368215561,-66.45694732666016,55.02942276000977,8.88197135925293,-0.69739139080048,1.44121801853180,-13.81922054290771,5.73448324203491,-3.03624057769775
451,2090236332,-0.59317642450333,-66.52297973632812,54.86316299438477,8.93928146362305,-0.49175161123276,1.92081439495087,6.56011867523193,-3.86552762985229,-5.30442380905151
452,2090252999,0.08002487570047,-66.69660186767578,54.62279129028320,9.05426597595215,-0.33705499768257,2.37379026412964,27.20001220703125,-10.34235668182373,-7.04784870147705
453,2090269666,1.01365196704865,-66.93186950683594,54.34033584594727,9.16080665588379,0.15618287026882,2.79837989807129,40.48572540283203,-14.12900066375732,-7.81280231475830
454,2090286333,2.00186300277710,-67.19950103759766,54.06036758422852,9.16005229949951,0.45984348654747,3.10112023353577,43.86958312988281,-16.17123794555664,-7.39521932601929
455,2090303000,2.89493036270142,-67.47756195068359,53.80499267578125,9.28074359893799,0.51052725315094,3.35457968711853,39.49009323120117,-16.86884689331055,-6.45949459075928
456,2090319667,3.61379432678223,-67.73120117187500,53.59338760375977,9.29347610473633,0.63961780071259,3.51774716377258,31.43727874755859,-15.41510200500488,-5.23736476898193
457,2090336334,4.12214803695679,-67.96741485595703,53.39928054809570,9.18812370300293,0.46224263310432,3.51597142219543,19.75380134582520,-14.38591194152832,-4.69800090789795
458,2090353001,4.47889709472656,-68.20371246337891,53.21020126342773,9.27792835235596,0.19175317883492,3.56397700309753,10.92208862304688,-14.40359497070312,-4.42904996871948
459,2090369668,4.78939104080200,-68.44106292724609,53.02906417846680,9.33413696289062,0.11527948826551,3.58471179008484,8.57200336456299,-14.46618843078613,-4.12106847763062
460,2090386335,4.99923849105835,-68.69952392578125,52.84663009643555,9.23725414276123,0.37669709324837,3.67126178741455,2.43880510330200,-15.74134254455566,-3.93263506889343
461,2090403002,5.09178209304810,-68.98760986328125,52.64412689208984,9.19690322875977,0.45137202739716,3.92388892173767,-5.73364019393921,-17.54611587524414,-4.11623477935791
462,2090419669,5.15954542160034,-69.27244567871094,52.40479278564453,9.28239059448242,0.56519407033920,4.07776975631714,-9.31626224517822,-17.42962265014648,-4.83925771713257
463,2090436336,5.18569326400757,-69.56252288818359,52.12562561035156,9.24391651153564,0.53205674886703,3.99244737625122,-14.07339191436768,-17.81151008605957,-5.56547737121582
464,2090453003,5.19174194335938,-69.87960815429688,51.81379318237305,9.52365684509277,0.34117633104324,3.85521125793457,-17.14830017089844,-19.47904968261719,-6.00680112838745
465,2090469670,5.25256156921387,-70.23010253906250,51.45698547363281,9.58161354064941,0.14692170917988,3.88598108291626,-16.43651580810547,-21.55138397216797,-6.62909078598022
466,2090486337,5.42599534988403,-70.60296630859375,51.05031585693359,9.58909130096436,0.08999972790480,3.98201012611389,-12.54608821868896,-22.98243331909180,-7.33140563964844
467,2090503004,5.69274425506592,-70.98555755615234,50.61339187622070,9.81148147583008,0.17568141222000,3.97975206375122,-8.71468448638916,-23.62973785400391,-7.63082933425903
468,2090519671,5.96215772628784,-71.38876342773438,50.17748260498047,9.93702220916748,0.25406199693680,3.84040212631226,-8.55634880065918,-24.86936187744141,-7.20596647262573
469,2090536338,6.22781801223755,-71.82551574707031,49.74711227416992,9.82266139984131,0.15133643150330,3.75123524665833,-8.52277183532715,-26.86559104919434,-6.59008359909058
470,2090553005,6.57830333709717,-72.28976440429688,49.27740478515625,9.91349887847900,0.04958299547434,3.69140934944153,-5.74614334106445,-28.59260177612305,-6.79366731643677
471,2090569672,7.08356094360352,-72.79044342041016,48.74097824096680,9.89053440093994,-0.04932378232479,3.51521801948547,-0.34986430406570,-30.91820335388184,-7.28838157653809
472,2090586339,7.78196430206299,-73.33479309082031,48.11217498779297,9.76730442047119,0.07984136044979,3.43805313110352,5.85129785537720,-33.75133895874023,-7.94844245910645
473,2090603006,8.65866470336914,-73.90730285644531,47.37070465087891,9.82266521453857,0.01482924818993,3.35761857032776,9.96136569976807,-35.73067855834961,-8.77987861633301
474,2090619673,9.73148727416992,-74.47718811035156,46.52658843994141,9.46376800537109,0.13256287574768,3.28690171241760,15.67307853698730,-35.90620040893555,-9.43228435516357
475,2090636340,10.84954643249512,-75.06169128417969,45.65278625488281,8.20974731445312,0.16173265874386,3.27484703063965,16.53852653503418,-36.90777206420898,-8.56431579589844
476,2090653007,12.01107215881348,-75.67517852783203,44.82360839843750,6.03718709945679,-0.46542859077454,3.15462565422058,21.59637069702148,-38.51007080078125,-6.30170869827271
477,2090669674,13.46740341186523,-76.32341766357422,44.08646011352539,2.50714468955994,-0.90594136714935,2.86997437477112,44.50966262817383,-40.23963546752930,-3.13967609405518
478,2090686341,15.50792598724365,-77.01546478271484,43.42370223999023,-1.15389728546143,-0.18013444542885,2.68982052803040,83.78769683837891,-42.44318008422852,0.23088003695011
479,2090703008,18.37168502807617,-77.69021606445312,42.42055130004883,-2.71447229385376,2.03065109252930,3.30445218086243,113.14404296875000,-42.52693939208984,-2.09191584587097
480,2090719675,21.40278816223145,-78.41491699218750,40.82699584960938,-0.90736472606659,2.60814166069031,3.63439011573792,88.38596343994141,-47.57211303710938,-5.10693740844727
481,2090736342,24.60275840759277,-79.16373443603516,38.88050079345703,1.85309398174286,1.88933813571930,3.20748472213745,77.49326324462891,-50.19289398193359,-4.62729740142822
482,2090753009,27.57093620300293,-79.92948150634766,36.64410018920898,2.69316625595093,2.29853892326355,2.77559423446655,46.19551467895508,-51.92868804931641,-2.95062637329102
483,2090769676,29.57755470275879,-80.77037811279297,34.43712234497070,2.21491289138794,2.25271606445312,2.13442063331604,-10.09251976013184,-54.88930511474609,3.35084390640259
484,2090786343,30.06597328186035,-81.64952850341797,32.64310836791992,1.67044937610626,1.41884255409241,1.49625265598297,-77.00888824462891,-53.89740753173828,10.67059993743896
485,2090803010,29.08337020874023,-82.48770141601562,31.55984878540039,0.79053175449371,0.07971217483282,1.15381336212158,-123.26477050781250,-48.10735321044922,15.73176670074463
486,2090819677,27.27794837951660,-83.11444854736328,31.33149909973145,0.73730069398880,0.17164309322834,1.45282125473022,-121.87062835693359,-33.90519332885742,14.96681785583496
487,2090836344,25.45492744445801,-83.49729919433594,31.04259872436523,1.26699519157410,0.31014281511307,2.32703232765198,-126.57019805908203,-21.44458007812500,7.11727428436279
488,2090853011,24.83582115173340,-83.69217681884766,29.79912567138672,2.19144845008850,-1.68443524837494,3.01435184478760,-111.27002716064453,-14.10112857818604,-3.85250687599182
489,2090869678,26.53779029846191,-83.77162933349609,27.16502571105957,2.24682068824768,-2.76000308990479,4.03638076782227,-54.96210861206055,-11.77238082885742,-14.79004192352295
490,2090886345,29.63399505615234,-83.79256439208984,23.75980186462402,1.77035760879517,-2.40683698654175,5.25356435775757,-17.32875251770020,-11.55720806121826,-20.24143600463867
491,2090903012,33.08791351318359,-83.73315429687500,20.19202423095703,0.94654619693756,-3.95990538597107,6.04641056060791,-5.56158018112183,-9.10706424713135,-23.02519035339355
492,2090919679,37.14326095581055,-83.51808166503906,17.10514259338379,0.82188647985458,-8.37926673889160,4.86833810806274,59.25615310668945,-1.34551239013672,-25.54092979431152
493,2090936346,42.59242630004883,-83.08355712890625,14.31903743743896,0.74366551637650,-7.55263900756836,5.40153455734253,160.91809082031250,7.40866708755493,-32.96643829345703
494,2090953013,46.97047424316406,-82.47470855712891,12.98339366912842,0.79775464534760,-9.13219547271729,6.57666587829590,183.16819763183594,18.73612403869629,-34.15742111206055
495,2090969680,50.64295196533203,-82.52178955078125,14.12824630737305,13.49809837341309,-7.28694152832031,-26.48686218261719,288.50805664062500,4.83533096313477,6.74850845336914
496,2090986347,126.70222473144531,-83.01818084716797,-59.82448577880859,-3.36890411376953,10.15094566345215,-117.47351837158203,151.80647277832031,-522.26733398437500,10.45493030548096
497,2091003014,156.81022644042969,-79.66785430908203,-88.37382507324219,49.88932037353516,-19.44397354125977,69.20991516113281,111.25944519042969,-310.95117187500000,78.95326995849609
498,2091019681,165.89697265625000,-74.30781555175781,-93.03839874267578,93.09548187255859,37.01516342163086,27.47673416137695,272.02734375000000,-324.50958251953125,-44.29671478271484
499,2091036348,164.40168762207031,-68.13217163085938,-98.21411132812500,-28.68155860900879,3.16696786880493,-26.98438644409180,-383.72622680664062,-383.49411010742188,0.52534919977188
500,2091053015,171.04667663574219,-66.34309387207031,-97.53610992431641,-33.68556213378906,-1.94095277786255,-13.45343589782715,436.12399291992188,-101.52904510498047,-39.49176025390625
501,2091069682,163.30064392089844,-63.38499450683594,-98.62327575683594,7.63360071182251,-10.54007625579834,-14.41940116882324,-523.69635009765625,-179.28422546386719,-13.64289474487305
502,2091086349,167.18467712402344,-62.33695220947266,-98.02307891845703,20.84688758850098,3.80756425857544,-3.57369565963745,265.02496337890625,-56.56352615356445,-33.17591094970703
503,2091103016,166.03755187988281,-61.15239715576172,-97.62028503417969,13.93570137023926,7.51696777343750,-8.80779266357422,-47.56829452514648,-66.41637420654297,-28.84736824035645
504,2091119683,165.24342346191406,-60.20758438110352,-97.10272979736328,14.73033905029297,2.22548532485962,-6.79283523559570,-20.60509681701660,-51.07338714599609,-30.03920364379883
505,2091136350,165.34658813476562,-59.68355941772461,-96.97422027587891,7.07039690017700,2.59663033485413,-4.77288389205933,12.82516288757324,-29.36039543151855,-12.96204376220703
506,2091153017,165.94699096679688,-59.43862152099609,-97.20819091796875,-0.87367266416550,5.60546159744263,-6.52908420562744,23.87959480285645,-15.93241691589355,2.00740098953247
507,2091169684,166.24645996093750,-59.41851425170898,-97.64842987060547,3.96384668350220,7.74977111816406,-6.96210908889771,-4.80560493469238,-4.32738971710205,11.51755046844482
508,2091186351,167.08547973632812,-59.72758102416992,-98.33219909667969,13.60169696807861,1.60343778133392,-6.57267999649048,14.93280220031738,13.32024669647217,23.27346420288086
509,2091203018,168.63638305664062,-60.42296981811523,-99.40445709228516,17.54545021057129,2.64294338226318,-7.52673244476318,37.25846862792969,34.10643386840820,38.93210220336914
510,2091219685,170.03996276855469,-61.33769989013672,-100.47266387939453,15.01525974273682,4.77255201339722,-6.60566234588623,28.18643188476562,48.23106765747070,39.58697128295898
511,2091236352,170.85325622558594,-62.27602005004883,-101.38586425781250,12.04022312164307,-1.10964679718018,-7.15165901184082,0.47389236092567,51.28607940673828,33.65856170654297
512,2091253019,171.66317749023438,-63.38179397583008,-101.92821502685547,9.96362495422363,-0.23838999867439,-5.70458698272705,19.60996246337891,63.38124847412109,23.55674362182617
513,2091269686,172.01499938964844,-64.99156951904297,-102.22354125976562,9.99691867828369,-0.52600318193436,-7.07546949386597,5.12119770050049,94.57411193847656,20.13382148742676
514,2091286353,172.00320434570312,-67.39988708496094,-102.30046081542969,10.18506336212158,2.22467398643494,-8.21508693695068,-4.96899223327637,142.88594055175781,20.71875190734863
515,2091303020,171.55175781250000,-70.91233825683594,-101.97645568847656,13.48941993713379,4.46312522888184,-11.09865379333496,-8.95686531066895,209.60037231445312,22.08219909667969
516,2091319687,167.42315673828125,-75.90000152587891,-98.83630371093750,23.34338569641113,7.01015377044678,-11.80239677429199,-67.00257873535156,303.93630981445312,0.44501888751984
517,2091336354,146.22796630859375,-82.54665374755859,-79.21871948242188,45.33505630493164,9.03096008300781,-5.96018791198730,-112.99906158447266,447.42480468750000,-48.26612472534180
518,2091353021,54.85454559326172,-83.11057281494141,7.82686424255371,63.93897628784180,9.71706676483154,10.61397933959961,-285.02786254882812,587.50579833984375,-85.62758636474609
519,2091369688,26.42091941833496,-77.00838470458984,31.50073432922363,33.48453140258789,-5.96501398086548,-55.60483169555664,-304.32751464843750,430.77520751953125,-49.42224884033203
520,2091386355,18.03856086730957,-78.77340698242188,30.93435096740723,-20.28889846801758,-5.03466272354126,-12.22191810607910,-536.12835693359375,-100.66050720214844,32.28126907348633
521,2091403022,33.06499481201172,-83.31472778320312,6.07687711715698,4.70074462890625,-25.47519683837891,-14.76974487304688,-572.69238281250000,-339.65237426757812,-94.77848815917969
522,2091419689,75.29943847656250,-83.87635040283203,-31.70360374450684,6.89718103408813,-13.84940814971924,15.81329631805420,280.16305541992188,-220.40026855468750,-121.07598114013672
523,2091436356,100.41296386718750,-83.55673980712891,-51.03813934326172,7.05612039566040,-10.13135337829590,14.58150959014893,353.35281372070312,-125.79349517822266,-24.81540679931641
524,2091453023,105.98452758789062,-83.62720489501953,-48.21179199218750,-0.74169415235519,6.05198001861572,18.56363296508789,502.80084228515625,19.54957580566406,-1.47852551937103
525,2091469690,97.11009979248047,-83.88887786865234,-38.24573516845703,1.61499571800232,9.22708225250244,11.35307788848877,62.08177566528320,66.97692871093750,1.00390636920929
526,2091486357,81.89783477783203,-83.88907623291016,-25.85888862609863,-0.38227236270905,7.90234375000000,9.90246200561523,-173.58915710449219,79.24760437011719,-0.55351668596268
527,2091503024,66.67821502685547,-83.93971252441406,-17.24186706542969,-0.78123509883881,-1.91103172302246,4.56928968429565,-399.00143432617188,52.14794921875000,16.54662132263184
528,2091519691,54.36296844482422,-83.84741210937500,-8.52691459655762,-1.95933556556702,-5.67173624038696,3.60534524917603,-218.95657348632812,51.30778121948242,21.39223289489746
529,2091536358,43.93888854980469,-83.75314331054688,0.31901079416275,-1.38766896724701,-1.20051288604736,4.57983446121216,-97.77815246582031,47.19655227661133,32.05550003051758
530,2091553025,34.57411575317383,-83.47679901123047,9.26376914978027,0.57181966304779,0.13735228776932,3.58159804344177,-28.53096008300781,50.68732070922852,34.59749603271484
531,2091569692,28.57546234130859,-82.96057128906250,16.11318588256836,0.46811699867249,-0.17511105537415,1.48730480670929,48.15104293823242,51.83896255493164,24.00667572021484
532,2091586359,26.04359436035156,-82.42568206787109,20.04471397399902,-0.07962315529585,0.83937245607376,0.95391601324081,82.03705596923828,42.33376312255859,10.77816295623779
533,2091603026,25.31003189086914,-81.97698974609375,22.11468124389648,0.76172482967377,0.04697150364518,1.11260867118835,79.01573944091797,31.62889480590820,2.33974146842957
534,2091619693,25.38810539245605,-81.54109191894531,23.45359230041504,1.03797423839569,-0.12411832064390,1.54035449028015,84.17247772216797,28.62743568420410,-1.98572468757629
535,2091636360,25.16612243652344,-81.08985137939453,25.09560012817383,1.15025949478149,0.20692300796509,1.07001042366028,84.05485534667969,30.89789009094238,0.69831144809723
536,2091653027,23.36084938049316,-80.60936737060547,27.70757865905762,0.92662924528122,0.85003226995468,1.24869894981384,46.38917160034180,36.58624267578125,9.69032859802246
537,2091669694,20.61423492431641,-79.99431610107422,30.91605186462402,0.80848103761673,0.61268556118011,0.48464739322662,24.93260002136230,46.40650177001953,15.07806110382080
538,2091686361,17.62715721130371,-79.30331420898438,34.06084060668945,-0.00718554714695,1.20258331298828,0.30848419666290,6.36129140853882,50.32059097290039,17.27252578735352
539,2091703028,14.90662670135498,-78.64585876464844,36.74605560302734,-0.31544911861420,0.32574152946472,-0.23262345790863,-5.11798143386841,46.54757690429688,17.34137344360352
540,2091719695,13.24914073944092,-78.10151672363281,38.62244415283203,-0.31775531172752,0.02435626089573,-0.71547526121140,10.80912113189697,37.26124954223633,12.86734390258789
541,2091736362,12.80012035369873,-77.65199279785156,39.64017105102539,-0.37540775537491,1.03207731246948,-0.00303385895677,32.74701690673828,29.22793769836426,5.21387863159180
542,2091753029,13.02329063415527,-77.28032684326172,39.85864639282227,-1.39052653312683,1.87414181232452,0.89520764350891,26.17771148681641,22.43562889099121,-3.41711378097534
543,2091769696,13.44406414031982,-77.06756591796875,39.67217636108398,-1.12632024288177,1.17990839481354,-0.47120293974876,14.33743286132812,11.93079662322998,-6.54779958724976
544,2091786363,13.98646259307861,-77.10157775878906,39.13684844970703,-0.31560245156288,0.07293363660574,-1.06250810623169,1.23581326007843,-3.61203837394714,-7.69928884506226
545,2091803030,14.84859085083008,-77.31066894531250,38.34914779663086,-0.15103136003017,-0.47845429182053,-0.24953542649746,5.64902830123901,-14.67607402801514,-8.22342109680176
546,2091819697,15.93273162841797,-77.63735198974609,37.44922637939453,-0.01953458227217,-0.53100723028183,0.01978162117302,12.35368919372559,-21.91987037658691,-7.30082273483276
547,2091836364,17.20377922058105,-78.04256439208984,36.16841125488281,0.66567814350128,0.49803364276886,1.10596716403961,1.15052604675293,-27.83518218994141,-9.79863643646240
548,2091853031,18.58259201049805,-78.55741882324219,34.63574218750000,-1.02869820594788,0.09051564335823,0.06789113581181,-7.30787038803101,-35.04086303710938,-9.47480487823486
549,2091869698,20.75835609436035,-79.24166870117188,32.60142898559570,-1.15472650527954,3.12328696250916,-0.72651910781860,10.79626464843750,-46.47176742553711,-9.53500175476074
550,2091886365,23.70174789428711,-80.39192962646484,28.98470306396484,-1.18250179290771,-1.02575349807739,-2.15955924987793,-36.94675827026367,-78.25758361816406,-10.65500736236572
551,2091903032,31.35611534118652,-81.64252471923828,23.35625839233398,1.11893939971924,-6.88157176971436,-5.99224328994751,125.74591827392578,-90.71920776367188,-13.37889003753662
552,2091919699,64.73154449462891,-84.06271362304688,0.31515693664551,10.73352146148682,1.40891838073730,-96.00232696533203,630.24066162109375,-222.51792907714844,-9.99041080474854
553,2091936366,146.83877563476562,-80.69998931884766,-91.20191955566406,60.52417373657227,-10.02468776702881,10.15593719482422,-534.77893066406250,-669.22363281250000,41.69382858276367
554,2091953033,160.67239379882812,-78.67849731445312,-100.17226409912109,11.87869930267334,-17.10477828979492,42.80002593994141,300.26773071289062,-150.92619323730469,31.74247741699219
555,2091969700,166.97305297851562,-74.82012939453125,-97.22384643554688,119.87845611572266,43.85550308227539,24.38902473449707,550.12017822265625,-211.00665283203125,-104.76467132568359
556,2091986367,166.61952209472656,-70.79383087158203,-101.68592071533203,19.02687454223633,-38.19001007080078,-46.59568786621094,-276.96716308593750,-253.01797485351562,20.73657608032227
557,2092003034,169.07563781738281,-69.04966735839844,-100.75687408447266,-9.17283153533936,25.20367240905762,1.56440448760986,199.68550109863281,-98.18198394775391,-41.97127914428711
558,2092019701,168.34794616699219,-69.10694122314453,-102.67470550537109,-20.71216011047363,-12.74133300781250,-25.84894752502441,-151.15380859375000,-4.59657669067383,39.77776718139648
559,2092036368,169.50076293945312,-70.96285247802734,-104.43949127197266,4.02885007858276,13.71788120269775,-10.00120449066162,-30.39899444580078,102.37760162353516,55.67247390747070
560,2092053035,169.04714965820312,-73.88366699218750,-104.84199523925781,18.85586929321289,-4.41747617721558,-7.88337945938110,-50.27914047241211,170.85937500000000,38.59418487548828
561,2092069702,168.69094848632812,-76.81886291503906,-102.93292236328125,16.75982284545898,-2.48925828933716,-3.90741801261902,89.39794158935547,178.38206481933594,4.36496543884277
562,2092086369,166.59646606445312,-79.47215270996094,-100.61256408691406,12.74888706207275,5.31110572814941,-3.23014664649963,10.54405879974365,161.58432006835938,4.90327453613281
563,2092103036,162.42732238769531,-81.94441223144531,-98.06193542480469,9.05900478363037,4.43076086044312,-2.63592648506165,-99.14399719238281,149.46429443359375,14.55222225189209
564,2092119703,155.75979614257812,-84.24537658691406,-92.55310821533203,7.70845794677734,-0.22608435153961,-0.14660403132439,-71.93420410156250,142.87327575683594,10.77818584442139
565,2092136370,140.41835021972656,-86.16074371337891,-77.14938354492188,5.27925968170166,-1.77661621570587,-1.66272807121277,0.69932442903519,137.26918029785156,-6.85230731964111
566,2092153037,108.17401123046875,-87.11052703857422,-44.93404769897461,4.76875352859497,-3.44904327392578,-1.19424712657928,-4.06526231765747,123.85850524902344,-19.86634254455566
567,2092169704,72.49069976806641,-86.78936004638672,-9.39563274383545,5.03912782669067,-2.27636194229126,0.59103924036026,-10.78339099884033,112.63447570800781,-20.10377502441406
568,2092186371,49.30991744995117,-85.83402252197266,12.68889522552490,6.52764940261841,-1.87621152400970,3.54522538185120,-68.51545715332031,101.76133728027344,-8.60433387756348
569,2092203038,35.13988113403320,-84.69061279296875,26.27386665344238,5.21545171737671,-1.65881252288818,1.89562308788300,-38.04210281372070,95.66615295410156,3.08909678459167
570,2092219705,26.48200607299805,-83.67039489746094,33.84825515747070,7.69925498962402,2.43916153907776,5.81877470016479,-67.50128173828125,76.05831909179688,7.23174142837524
571,2092236372,21.47898864746094,-82.89116668701172,37.89181518554688,11.43825531005859,-0.47462397813797,4.64801216125488,-59.33419036865234,54.25817489624023,5.82104110717773
572,2092253039,20.58021736145020,-82.38686370849609,40.95561218261719,15.32944393157959,-1.36037540435791,3.76028275489807,128.34213256835938,36.73350906372070,9.98259162902832
573,2092269706,20.24359512329102,-82.12561035156250,43.17459869384766,11.00002861022949,8.11273097991943,4.16687059402466,111.70842742919922,21.01549530029297,10.18247699737549
574,2092286373,18.13429641723633,-82.14652252197266,44.40614318847656,10.56007289886475,1.72914600372314,2.75709509849548,-53.37865066528320,2.22855830192566,8.78673076629639
575,2092303040,16.67020988464355,-82.15480041503906,44.78742980957031,9.40185832977295,-3.96702122688293,1.69208765029907,-65.19986724853516,0.54728752374649,1.94879710674286
576,2092319707,17.38931274414062,-82.10446929931641,44.30517578125000,9.09791851043701,-3.74189305305481,0.73212522268295,14.47251892089844,1.79899907112122,-5.86535787582397
577,2092336374,18.79173278808594,-82.05737304687500,43.43199920654297,9.46764469146729,1.53567731380463,1.63072800636292,32.24939346313477,0.51959407329559,-8.93941020965576
578,2092353041,19.52427291870117,-82.11509704589844,42.61278915405273,9.96089935302734,1.18774425983429,1.30100464820862,-4.73277330398560,-5.40901279449463,-6.45521545410156
579,2092369708,20.47402763366699,-82.18696594238281,41.79978179931641,9.81538295745850,-0.06687572598457,1.46646761894226,8.66803359985352,-6.24155521392822,-5.98581218719482
580,2092386375,21.44835472106934,-82.26152801513672,41.03604125976562,9.69305038452148,0.35764372348785,1.22959303855896,13.06127071380615,-6.30928993225098,-5.38843631744385
581,2092403042,22.46959114074707,-82.33244323730469,39.93757247924805,9.67422580718994,-0.01611348986626,0.77531772851944,-4.04293489456177,-7.17010641098022,-7.80265045166016
582,2092419709,23.58063888549805,-82.36071777343750,38.69210815429688,9.77515316009521,-0.11092470586300,0.60873132944107,-7.40561580657959,-5.38005924224854,-9.69715976715088
583,2092436376,23.68427467346191,-82.15070343017578,38.51631164550781,10.28659152984619,0.30970790982246,0.96419328451157,-4.25290870666504,11.04603481292725,-7.54085254669189
584,2092453043,23.44243431091309,-81.84861755371094,38.88548660278320,9.55524539947510,0.54711145162582,0.49777996540070,7.39125871658325,17.90792465209961,-5.59891176223755
585,2092469710,23.19646263122559,-81.57689666748047,39.22805023193359,9.82329368591309,1.06608033180237,0.95963412523270,5.55848693847656,16.21219253540039,-4.91394948959351
586,2092486377,22.57648468017578,-81.34976196289062,39.67326354980469,9.96219062805176,1.28098058700562,1.36816608905792,-10.81046009063721,14.16578483581543,-2.82597398757935
587,2092503044,21.73796463012695,-81.15145111083984,40.18685150146484,10.01593017578125,0.77645021677017,1.77377974987030,-19.88013458251953,12.86047935485840,-1.32578623294830
588,2092519711,20.93306732177734,-80.96638488769531,40.82241058349609,9.62763977050781,-0.29008552432060,1.44359982013702,-10.64351463317871,12.57537269592285,0.30217891931534
589,2092536378,20.67118072509766,-80.83522033691406,41.21075439453125,9.61541366577148,-0.33660882711411,1.62650597095490,7.27617502212524,8.74274444580078,-0.53185433149338
590,2092553045,20.78695106506348,-80.74434661865234,41.34199142456055,9.64062213897705,-0.55248492956161,2.06902027130127,14.70895099639893,5.62571907043457,-1.93666112422943
591,2092569712,21.20556259155273,-80.67629241943359,41.34908294677734,9.57412052154541,-0.24219003319740,1.54991388320923,25.52936744689941,3.91619157791138,-2.58596062660217
592,2092586379,21.79290771484375,-80.64741516113281,41.07652282714844,9.67138099670410,0.55849671363831,1.69655621051788,19.09938812255859,0.72213816642761,-4.29488992691040
593,2092603046,22.32599639892578,-80.63221740722656,40.78189468383789,9.80998897552490,0.17686338722706,1.68534994125366,14.53406906127930,-0.15396448969841,-4.19777774810791
594,2092619713,22.94889640808105,-80.62159729003906,40.52241897583008,9.75914382934570,0.59828686714172,1.27681493759155,22.01333236694336,-0.30192944407463,-3.77713060379028
595,2092636380,23.44349861145020,-80.63485717773438,40.31629943847656,9.81475925445557,0.95184320211411,1.31215989589691,17.46712493896484,-1.44375753402710,-2.72721123695374
596,2092653047,23.73865127563477,-80.64900970458984,40.23622512817383,9.87616252899170,0.73726481199265,1.39135754108429,12.96908760070801,-1.00398635864258,-1.56522500514984
597,2092669714,23.88819885253906,-80.65464782714844,40.22859191894531,9.83840560913086,0.45614993572235,1.51893615722656,8.50904083251953,-0.25930944085121,-1.11861574649811
598,2092686381,24.08369827270508,-80.65386962890625,40.20497512817383,9.71664237976074,0.21405836939812,1.27420032024384,10.32970809936523,0.03531992435455,-1.41772103309631
599,2092703048,24.28514099121094,-80.63834381103516,40.14497375488281,9.87341880798340,0.34809464216232,1.31371879577637,8.52275562286377,0.68829023838043,-2.10110592842102
600,2092719715,24.39414024353027,-80.60804748535156,40.07929229736328,9.90205574035645,0.36152002215385,1.48600137233734,2.64722657203674,1.47780168056488,-2.52330613136292
601,2092736382,24.58340835571289,-80.59143066406250,39.94179153442383,9.78154182434082,0.37182900309563,1.32312297821045,3.20883607864380,0.43150997161865,-2.82781505584717
602,2092753049,24.87312889099121,-80.59796905517578,39.70672988891602,9.85504150390625,0.53093868494034,1.62951135635376,3.46069860458374,-1.23903357982635,-3.11863446235657
603,2092769716,25.09104728698730,-80.61644744873047,39.49364852905273,9.72775173187256,0.56458836793900,1.99354600906372,0.44763308763504,-1.81004309654236,-2.61028623580933
604,2092786383,25.24520111083984,-80.64222717285156,39.34769058227539,9.59577465057373,0.31171616911888,1.68651342391968,0.61337292194366,-1.91137981414795,-1.82535934448242
605,2092803050,25.45176696777344,-80.68013000488281,39.20887374877930,9.83588695526123,0.34149083495140,1.31584894657135,4.17088794708252,-2.55058336257935,-1.43675088882446
606,2092819717,25.60298538208008,-80.71088409423828,39.09863662719727,9.96318721771240,0.56839734315872,1.49313175678253,2.53752684593201,-2.04254221916199,-1.35919547080994
607,2092836384,25.62444305419922,-80.72671508789062,39.06687164306641,9.79360294342041,0.36824718117714,1.03673160076141,-0.60140538215637,-0.90670871734619,-1.05454528331757
608,2092853051,25.61526298522949,-80.74697875976562,39.03916931152344,9.91828155517578,0.41769495606422,1.05261731147766,-2.19314503669739,-1.12311029434204,-0.90524876117706
609,2092869718,25.63480758666992,-80.77039337158203,38.96868515014648,9.95455265045166,0.47164094448090,1.56237673759460,-3.01125311851501,-1.47537481784821,-1.19383990764618
610,2092886385,25.60241317749023,-80.78643798828125,38.94329452514648,9.65220928192139,0.41192615032196,1.89772546291351,-3.44946098327637,-0.88596254587173,-0.99292117357254
611,2092903052,25.59015846252441,-80.81003570556641,38.89575576782227,9.57374382019043,0.21496458351612,1.27299666404724,-3.55542111396790,-1.38630676269531,-0.99006557464600
612,2092919719,25.74710464477539,-80.85887908935547,38.71583938598633,9.89683151245117,0.50921732187271,1.81192362308502,-1.24756264686584,-3.30299472808838,-1.47071349620819
613,2092936386,25.87849426269531,-80.91169738769531,38.54438400268555,9.67568016052246,0.46305409073830,1.88844645023346,-2.28039479255676,-3.47675085067749,-1.27805459499359
614,2092953053,25.87321090698242,-80.94666290283203,38.44752883911133,9.76532649993896,0.70629543066025,2.36932086944580,-6.06326293945312,-2.20333933830261,-1.09831762313843
615,2092969720,25.65585517883301,-80.91835784912109,38.53950119018555,9.43202304840088,0.41584146022797,2.00804114341736,-7.59604406356812,1.99347519874573,-1.14393401145935
616,2092986387,25.54408836364746,-80.90270996093750,38.63229751586914,9.75936698913574,0.01755218580365,0.82659906148911,-1.22072041034698,1.30719518661499,-0.79885363578796
617,2093003054,25.49170494079590,-80.89066314697266,38.64114761352539,10.09680175781250,0.48508349061012,1.49232542514801,-2.62664031982422,0.77215892076492,-1.42478978633881
618,2093019721,25.47716712951660,-80.87652587890625,38.66479492187500,9.73118686676025,0.28456783294678,1.37993943691254,0.52191007137299,0.94717061519623,-1.35189604759216
619,2093036388,25.46935844421387,-80.88415527343750,38.61084747314453,9.68483924865723,0.41597381234169,1.25276005268097,-3.67234301567078,-0.55062830448151,-1.45508980751038
620,2093053055,25.56988906860352,-80.91738891601562,38.47949981689453,9.85207271575928,0.36410510540009,1.70916128158569,-1.75359261035919,-2.24964666366577,-1.45813739299774
621,2093069722,25.69756698608398,-80.95039367675781,38.37353897094727,9.73063945770264,0.29560741782188,1.73836183547974,1.37505626678467,-2.13629770278931,-1.23762488365173
622,2093086389,25.76603889465332,-80.96967315673828,38.29838943481445,9.69882011413574,0.42925834655762,1.38051092624664,-0.34783962368965,-1.26167500019073,-1.32779419422150
623,2093103056,25.81065177917480,-80.98641967773438,38.20933151245117,9.91440677642822,0.44182875752449,1.15821397304535,-2.60926175117493,-1.18899917602539,-1.50791561603546
624,2093119723,25.81097793579102,-80.99972534179688,38.14265823364258,9.83286762237549,0.32327139377594,1.19826471805573,-3.93429613113403,-0.90326380729675,-1.40815424919128
625,2093136390,25.88278388977051,-81.02442932128906,38.06326675415039,9.85795402526855,0.34251901507378,1.17351269721985,-0.40208733081818,-1.57485425472260,-1.21439397335052
626,2093153057,25.94038581848145,-81.05564880371094,37.96794128417969,9.75624942779541,0.43901753425598,1.48909103870392,-2.20146274566650,-1.99091351032257,-1.17408609390259
627,2093169724,25.99672508239746,-81.08844757080078,37.89585876464844,9.74957370758057,0.46556848287582,1.62122619152069,-0.90165030956268,-1.98057258129120,-0.93289774656296
628,2093186391,26.05038833618164,-81.12754821777344,37.81372451782227,9.74729919433594,0.40311917662621,1.51812076568604,-1.64523828029633,-2.34817862510681,-0.85050177574158
629,2093203058,26.11354827880859,-81.16397857666016,37.74824142456055,9.78246498107910,0.32548132538795,1.52185738086700,-0.10364820063114,-2.14991092681885,-0.77180671691895
630,2093219725,26.18366050720215,-81.18829345703125,37.71106719970703,9.76372528076172,0.45406290888786,1.69637632369995,1.99908387660980,-1.37180984020233,-0.85758370161057
631,2093236392,26.04973793029785,-81.18009185791016,37.85536956787109,9.60653591156006,0.02163289487362,1.53640663623810,0.51507139205933,1.11147594451904,-0.21624162793159
632,2093253059,26.10237503051758,-81.18155670166016,37.89539337158203,9.90155410766602,0.32200983166695,1.00915980339050,5.52686214447021,0.16944080591202,-0.82202035188675
633,2093269726,26.12312507629395,-81.19197082519531,37.88281250000000,9.88916683197021,0.46534413099289,1.30169677734375,0.49557375907898,-0.52628976106644,-1.02111434936523
634,2093286393,26.17014694213867,-81.19786071777344,37.88190460205078,9.83386993408203,0.70590001344681,1.30131292343140,2.76121568679810,-0.23372229933739,-1.04586255550385
635,2093303060,26.14179992675781,-81.20323944091797,37.87408828735352,9.79226875305176,0.41058063507080,1.37396252155304,-2.17566442489624,-0.24291725456715,-1.11076521873474
636,2093319727,26.10942077636719,-81.17993164062500,37.90669250488281,9.99264144897461,0.67531174421310,2.01078200340271,-0.01644975692034,1.47198748588562,-1.53971397876740
637,2093336394,25.70617103576660,-81.13122558593750,38.21512603759766,9.56226062774658,0.16232791543007,0.42733642458916,-5.91710472106934,3.95750856399536,0.09248746931553
638,2093353061,25.34964942932129,-81.09558868408203,38.43112945556641,10.09468841552734,0.47057643532753,0.85969483852386,-8.59644985198975,2.87441134452820,-0.30351695418358
639,2093369728,25.10070800781250,-81.07861328125000,38.60363769531250,9.78762722015381,0.31789150834084,1.39765775203705,-4.71791696548462,1.69072008132935,-0.17389102280140
640,2093386395,24.88380432128906,-81.07828521728516,38.77046585083008,9.66038417816162,0.40446916222572,1.64785015583038,-3.13374543190002,0.75891697406769,0.20665605366230
641,2093403062,24.74746131896973,-81.09969329833984,38.85579299926758,9.66942501068115,0.20146639645100,1.67343389987946,-3.12940454483032,-0.74823021888733,0.06651618331671
642,2093419729,24.71821594238281,-81.12982940673828,38.85564422607422,9.79441261291504,0.28653013706207,1.60973274707794,-1.76559233665466,-1.55377531051636,-0.43902090191841
643,2093436396,24.66399765014648,-81.15380096435547,38.79464340209961,9.88207244873047,0.59815686941147,1.66072559356689,-6.88287019729614,-1.46497631072998,-1.10291504859924
644,2093453063,24.27255058288574,-81.13255310058594,38.91881942749023,9.86725425720215,0.52002072334290,1.27109885215759,-16.12841224670410,1.72590029239655,-0.67818003892899
645,2093469730,23.74471664428711,-81.08798217773438,39.14233398437500,9.93044948577881,0.28431147336960,0.79537421464920,-18.43236160278320,3.36801028251648,-0.38560608029366
646,2093486397,23.44443702697754,-81.05349731445312,39.28926849365234,9.79455661773682,0.15741980075836,1.00665915012360,-9.31520652770996,2.53061246871948,-0.76703017950058
647,2093503064,23.20990562438965,-81.01563262939453,39.43773269653320,9.80784320831299,0.33473420143127,1.36836826801300,-5.28207635879517,2.71990251541138,-0.81741029024124
648,2093519731,22.97093391418457,-80.98354339599609,39.55481338500977,9.79829788208008,0.53859144449234,1.64097881317139,-7.40886402130127,2.28625392913818,-0.93613797426224
649,2093536398,22.74348068237305,-80.95823669433594,39.63619613647461,9.65930843353271,0.16462925076485,1.40014934539795,-8.83773422241211,1.78022408485413,-1.07638025283813
650,2093553065,22.72275543212891,-80.94786071777344,39.59502410888672,9.79173374176025,0.20046482980251,1.47973465919495,-3.68603253364563,0.51071715354919,-1.79438078403473
651,2093569732,22.74887657165527,-80.93993377685547,39.54454803466797,9.77153015136719,0.30405884981155,1.46450698375702,-1.43470180034637,0.33430978655815,-1.81690740585327
652,2093586399,22.67897033691406,-80.91922760009766,39.55950164794922,9.81200599670410,0.42392751574516,1.50965917110443,-3.31820893287659,1.28433632850647,-1.54428601264954
653,2093603066,22.58628463745117,-80.88493347167969,39.65199279785156,9.73729419708252,0.24770545959473,1.27418410778046,-0.08699993789196,2.32262349128723,-1.17607748508453
654,2093619733,22.61592864990234,-80.86236572265625,39.72202301025391,9.78645324707031,0.24312584102154,1.37750244140625,5.91951847076416,1.59184241294861,-1.10011041164398
655,2093636400,22.63764381408691,-80.84384155273438,39.82502746582031,9.80409908294678,0.42236426472664,1.50651037693024,7.39497661590576,1.48383355140686,-0.71358919143677
656,2093653067,22.56641197204590,-80.82660675048828,39.94915390014648,9.83309364318848,0.46893167495728,1.50817191600800,3.07905626296997,1.49989247322083,-0.49745622277260
657,2093669734,22.45584487915039,-80.81671142578125,40.05987930297852,9.80209827423096,0.36087998747826,1.48249328136444,-0.08568087965250,1.03830039501190,-0.44276031851768
658,2093686401,22.33960151672363,-80.79563903808594,40.19293594360352,9.78149986267090,0.31153100728989,1.41630375385284,0.90035045146942,1.74070298671722,-0.49741780757904
659,2093703068,22.17019653320312,-80.77247619628906,40.36833572387695,9.81962585449219,0.30679625272751,1.50500476360321,0.21943679451942,2.01155734062195,-0.16219879686832
660,2093719735,22.05864524841309,-80.75554656982422,40.56087493896484,9.79627037048340,0.33123403787613,1.45735085010529,4.70090389251709,1.72313272953033,0.14094668626785
661,2093736402,21.94578361511230,-80.74466705322266,40.73845291137695,9.75356006622314,0.33178687095642,1.43496382236481,3.73101520538330,1.32739126682281,0.14948853850365
662,2093753069,21.82266235351562,-80.74237060546875,40.90002441406250,9.75160598754883,0.46143317222595,1.54573082923889,2.17462730407715,0.79467886686325,0.20022086799145
663,2093769736,21.73767471313477,-80.75346374511719,41.03794860839844,9.78488731384277,0.24720160663128,1.55908918380737,3.06640386581421,-0.03463477641344,0.28567126393318
664,2093786403,21.67994689941406,-80.77124786376953,41.16510772705078,9.77579307556152,0.26348033547401,1.52236759662628,4.06584310531616,-0.44604513049126,0.33539184927940
665,2093803070,21.61050796508789,-80.77279663085938,41.30119323730469,9.79827213287354,0.39659163355827,1.44809675216675,3.88833498954773,0.47849014401436,0.05677696317434
666,2093819737,21.53700447082520,-80.78507232666016,41.41047286987305,9.77636241912842,0.27047941088676,1.42880296707153,2.05792927742004,-0.21009457111359,0.05109733343124
667,2093836404,21.52024841308594,-80.80102539062500,41.47772598266602,9.80434322357178,0.26755943894386,1.57583558559418,2.97745060920715,-0.56456154584885,-0.24661828577518
668,2093853071,21.52766036987305,-80.81885528564453,41.53423690795898,9.81309127807617,0.32047012448311,1.68873107433319,3.78532719612122,-0.71218043565750,-0.30094286799431
669,2093869738,21.51450157165527,-80.84403991699219,41.62401580810547,9.67240715026855,0.19209162890911,1.27295756340027,4.52488088607788,-1.00237226486206,0.15432935953140
670,2093886405,21.48746109008789,-80.86927032470703,41.69361877441406,9.85669803619385,0.37504658102989,1.44917178153992,2.49497175216675,-1.08142590522766,-0.02508123777807
671,2093903072,21.50031852722168,-80.89060211181641,41.73691940307617,9.83818435668945,0.36876109242439,1.51107847690582,3.33431220054626,-0.95109552145004,-0.34703284502029
672,2093919739,21.48695182800293,-80.90699005126953,41.77907943725586,9.79377269744873,0.26356625556946,1.52958452701569,1.68924713134766,-0.68547904491425,-0.46595263481140
673,2093936406,21.49035453796387,-80.92182159423828,41.80450439453125,9.77593994140625,0.23007287085056,1.43844711780548,1.70503735542297,-0.65567868947983,-0.64857113361359
674,2093953073,21.52757453918457,-80.93052673339844,41.83017730712891,9.79285717010498,0.28541120886803,1.33360314369202,3.75731945037842,-0.30685940384865,-0.78372961282730
675,2093969740,21.52823829650879,-80.93867492675781,41.87754440307617,9.79409313201904,0.32483914494514,1.38223612308502,2.83664488792419,-0.20740523934364,-0.60232752561569
676,2093986407,21.51929283142090,-80.94642639160156,41.92633819580078,9.83711719512939,0.38325503468513,1.54817366600037,2.34810829162598,-0.18030701577663,-0.59962534904480
677,2094003074,21.46796035766602,-80.95134735107422,41.99686050415039,9.80686855316162,0.23986527323723,1.47784447669983,1.09717130661011,0.05861467123032,-0.47243267297745
678,2094019741,21.47993850708008,-80.95534515380859,42.05271530151367,9.79932117462158,0.26166984438896,1.35405611991882,4.02183485031128,0.05299268662930,-0.62097358703613
