sep=,
DeviceTag:,Xsens_DOT_3
FirmwareVersion:,3.0.0
AppVersion:,2023.6.0
StartTime: ,2025-04-09_10:57:08_000 CEST
© Movella Technologies B. V. 2005-2025

PacketCounter,SampleTimeFine,Euler_X,Euler_Y,Euler_Z,Acc_X,Acc_Y,Acc_Z,Gyr_X,Gyr_Y,Gyr_Z
0,2082736182,143.65702819824219,-83.97546386718750,-154.42311096191406,0.00000000000000,0.00000000000000,0.00000000000000,0.00000000000000,0.00000000000000,0.00000000000000
1,2082752849,144.17042541503906,-83.87078094482422,-154.84297180175781,9.82516860961914,0.61973267793655,-0.96131306886673,6.89526081085205,-6.12420940399170,-1.23050487041473
2,2082769516,144.55117797851562,-83.78161621093750,-155.16790771484375,9.85963821411133,0.99816453456879,-0.90973675251007,4.58482789993286,-5.04198265075684,-1.09434759616852
3,2082786183,144.73709106445312,-83.71347808837891,-155.38919067382812,9.75540733337402,0.89317888021469,-1.04034125804901,-0.88769149780273,-3.64930438995361,-0.87519246339798
4,2082802850,144.88305664062500,-83.66237640380859,-155.55718994140625,9.71735382080078,0.49299478530884,-1.21760797500610,-0.16620722413063,-2.61645913124084,-0.53771948814392
5,2082819517,145.09793090820312,-83.62720489501953,-155.70057678222656,9.82521820068359,0.49721840023994,-1.05112302303314,5.41759920120239,-1.75246608257294,-0.10798956453800
6,2082836184,145.29345703125000,-83.60119628906250,-155.82002258300781,9.80400085449219,0.76439851522446,-0.89085364341736,5.72557830810547,-1.21458625793457,0.07898957282305
7,2082852851,145.48281860351562,-83.57605743408203,-155.96432495117188,9.70438671112061,0.82292509078979,-0.73400670289993,3.80853223800659,-1.27094709873199,0.26277351379395
8,2082869518,145.69117736816406,-83.54411315917969,-156.15658569335938,9.74227619171143,0.92175149917603,-0.71983289718628,2.15215849876404,-1.79733908176422,0.29838794469833
9,2082886185,145.97229003906250,-83.50233459472656,-156.41850280761719,9.73632335662842,0.70417958498001,-0.93129962682724,2.45277452468872,-2.53248763084412,0.37503391504288
10,2082902852,146.31712341308594,-83.45522308349609,-156.71510314941406,9.72012901306152,0.64602017402649,-0.86878013610840,4.05299186706543,-2.96171832084656,0.42700213193893
11,2082919519,146.59796142578125,-83.41084289550781,-156.96688842773438,9.77857875823975,0.69006216526031,-0.86362802982330,2.84199810028076,-2.66156291961670,0.29819586873055
12,2082936186,146.78297424316406,-83.37457275390625,-157.18583679199219,9.77415370941162,0.68145579099655,-1.00370025634766,-0.74823027849197,-2.12185215950012,0.37959301471710
13,2082952853,146.94963073730469,-83.34448242187500,-157.37750244140625,9.70427513122559,0.25600197911263,-1.19602799415588,-0.29430913925171,-1.70933401584625,0.44981026649475
14,2082969520,147.17547607421875,-83.32391357421875,-157.54492187500000,9.69352149963379,0.58312118053436,-1.08065283298492,4.70488643646240,-1.15238571166992,0.62095433473587
15,2082986187,147.25711059570312,-83.31725311279297,-157.61900329589844,9.71518135070801,0.79926455020905,-1.14608561992645,1.62777674198151,-0.08858793228865,0.53510063886642
16,2083002854,147.31999206542969,-83.32385253906250,-157.66448974609375,9.74800395965576,0.72367131710052,-1.17597258090973,2.18163871765137,0.67389577627182,0.79257220029831
17,2083019521,147.32286071777344,-83.34896087646484,-157.61973571777344,9.74810695648193,0.62889385223389,-1.04144334793091,3.92884731292725,1.96363604068756,0.87536525726318
18,2083036188,147.22760009765625,-83.39521026611328,-157.46295166015625,9.80226898193359,0.56837797164917,-1.07563424110413,4.21322536468506,3.40414571762085,0.95146071910858
19,2083052855,147.06829833984375,-83.45605468750000,-157.24903869628906,9.76524162292480,0.61000800132751,-1.03197562694550,4.37837648391724,4.39029932022095,1.05562746524811
20,2083069522,146.74671936035156,-83.53158569335938,-156.91555786132812,9.78272914886475,0.58121347427368,-1.11037266254425,1.71763896942139,5.55606079101562,0.88767218589783
21,2083086189,146.36357116699219,-83.62078094482422,-156.49702453613281,9.84702110290527,0.42101761698723,-1.17253875732422,3.42430353164673,6.55659723281860,0.88827425241470
22,2083102856,146.06373596191406,-83.72324371337891,-156.02836608886719,9.82279109954834,0.53927320241928,-1.08261704444885,10.11086177825928,7.29104280471802,1.24117922782898
23,2083119523,145.80651855468750,-83.83840179443359,-155.57992553710938,9.65808391571045,0.84000229835510,-0.97663813829422,12.50029945373535,7.87797164916992,1.75986266136169
24,2083136190,145.46850585937500,-83.95928192138672,-155.11077880859375,9.66354560852051,0.75674128532410,-0.90620672702789,8.72931194305420,8.19372463226318,1.94657897949219
25,2083152857,145.04386901855469,-84.08818817138672,-154.58253479003906,9.78667163848877,0.57750558853149,-0.94012773036957,7.28401279449463,8.77006244659424,2.00188970565796
26,2083169524,144.58776855468750,-84.22936248779297,-154.02777099609375,9.82200145721436,0.74708789587021,-0.91674065589905,6.89938545227051,9.39227104187012,2.41836500167847
27,2083186191,144.11509704589844,-84.38475799560547,-153.45120239257812,9.74551582336426,0.69769662618637,-0.99942600727081,7.11431598663330,10.09222984313965,2.96255874633789
28,2083202858,143.57069396972656,-84.55270385742188,-152.77511596679688,9.76413059234619,0.65477502346039,-0.92253124713898,8.14288616180420,10.91845893859863,3.14872527122498
29,2083219525,142.85939025878906,-84.73043060302734,-151.97677612304688,9.75836563110352,0.65875095129013,-0.81835669279099,6.54210138320923,11.76317596435547,3.08293819427490
30,2083236192,141.90470886230469,-84.91477203369141,-150.98812866210938,9.72452354431152,0.75597798824310,-0.72290319204330,2.99182128906250,12.55550575256348,2.81561827659607
31,2083252859,140.77792358398438,-85.10250854492188,-149.88490295410156,9.67226791381836,0.65899229049683,-0.72155773639679,-0.62513601779938,12.89924240112305,2.84652042388916
32,2083269526,139.54296875000000,-85.28403472900391,-148.69140625000000,9.69534015655518,0.53521150350571,-0.61027961969376,-1.63381600379944,12.71899223327637,2.67241787910461
33,2083286193,138.23194885253906,-85.46240234375000,-147.41999816894531,9.77544403076172,0.37971654534340,-0.58537828922272,-1.02708899974823,12.65919876098633,2.68142080307007
34,2083302860,136.87966918945312,-85.63515472412109,-146.06245422363281,9.76160812377930,0.51179856061935,-0.48614820837975,1.10073196887970,12.43666267395020,2.64502501487732
35,2083319527,135.28298950195312,-85.79952239990234,-144.49630737304688,9.71750545501709,0.58022189140320,-0.35910382866859,-1.58237254619598,12.45320892333984,2.11562323570251
36,2083336194,133.56930541992188,-85.95276641845703,-142.82264709472656,9.76479244232178,0.26246029138565,-0.41278821229935,-2.18788266181946,12.07855892181396,1.84437131881714
37,2083352861,131.96023559570312,-86.08898925781250,-141.18832397460938,9.66809558868408,0.39030042290688,-0.29437348246574,2.74113655090332,11.08436107635498,1.66692650318146
38,2083369528,130.22035217285156,-86.20718383789062,-139.48777770996094,9.65259552001953,0.53178024291992,-0.20012223720551,-1.52441072463989,10.33900547027588,1.13592362403870
39,2083386195,128.57919311523438,-86.30938720703125,-137.90707397460938,9.73935031890869,0.28693097829819,-0.34568595886230,-2.76651191711426,9.19920158386230,1.12087607383728
40,2083402862,127.23295593261719,-86.40049743652344,-136.52534484863281,9.72103691101074,0.26751059293747,-0.34435355663300,3.09430956840515,8.03803634643555,1.37563300132751
41,2083419529,126.19930267333984,-86.47763061523438,-135.40509033203125,9.65218925476074,0.67734944820404,-0.17743873596191,6.29342603683472,6.63570165634155,1.50930547714233
42,2083436196,125.32136535644531,-86.53971099853516,-134.50993347167969,9.65656375885010,0.57235229015350,-0.12479692697525,2.10391688346863,5.35416889190674,1.41697144508362
43,2083452863,124.60487365722656,-86.58786010742188,-133.78486633300781,9.70439147949219,0.44979757070541,-0.11273683607578,1.54157733917236,4.30471420288086,1.17385590076447
44,2083469530,124.02039337158203,-86.62554168701172,-133.20166015625000,9.73299026489258,0.50722664594650,-0.21964968740940,0.66689074039459,3.49582648277283,1.02900302410126
45,2083486197,123.58191680908203,-86.65713500976562,-132.78424072265625,9.71240329742432,0.45684337615967,-0.24866780638695,-0.13526707887650,2.78684091567993,1.05932855606079
46,2083502864,123.34587097167969,-86.68589019775391,-132.51417541503906,9.67798805236816,0.30562001466751,-0.36650744080544,2.97316122055054,2.25453257560730,1.24959266185760
47,2083519531,123.20710754394531,-86.71580505371094,-132.31182861328125,9.74798965454102,0.62104946374893,-0.30018594861031,4.90382003784180,2.08528375625610,1.42979049682617
48,2083536198,123.19669342041016,-86.73943328857422,-132.27209472656250,9.74215412139893,0.65408581495285,-0.27903461456299,3.21645593643188,1.43052053451538,1.42630732059479
49,2083552865,123.37483215332031,-86.75907135009766,-132.42689514160156,9.74605560302734,0.51691001653671,-0.20781777799129,2.55844020843506,0.71449196338654,1.57825469970703
50,2083569532,123.71609497070312,-86.76947784423828,-132.74649047851562,9.78019046783447,0.54626864194870,-0.15168635547161,2.81949734687805,-0.03093373961747,1.41621589660645
51,2083586199,123.96625518798828,-86.77141571044922,-133.01039123535156,9.83251094818115,0.54879939556122,-0.17157149314880,0.62411737442017,-0.14405220746994,0.90630525350571
52,2083602866,124.18750000000000,-86.77141571044922,-133.25282287597656,9.76560974121094,0.50470656156540,-0.31006073951721,-0.19856888055801,-0.16353069245815,0.78542631864548
53,2083619533,124.46765899658203,-86.77475738525391,-133.54998779296875,9.78259277343750,0.44109204411507,-0.40047416090965,0.41422137618065,-0.19512394070625,1.03203809261322
54,2083636200,124.78137969970703,-86.78259277343750,-133.84637451171875,9.72080135345459,0.45883166790009,-0.36186856031418,0.93510693311691,-0.10007522255182,1.31138312816620
55,2083652867,125.04504394531250,-86.78916931152344,-134.16162109375000,9.67304229736328,0.52738511562347,-0.39872318506241,-0.21337299048901,-0.04723621904850,1.19786751270294
56,2083669534,125.23494720458984,-86.80046844482422,-134.40423583984375,9.62169361114502,0.59132373332977,-0.45677924156189,-1.49809312820435,0.26762706041336,1.32995200157166
57,2083686201,125.40348815917969,-86.82226562500000,-134.64172363281250,9.66136169433594,0.60524076223373,-0.48092514276505,-3.01430130004883,0.60924929380417,1.82799124717712
58,2083702868,125.28217315673828,-86.86444091796875,-134.63912963867188,9.83230972290039,0.42667016386986,-0.46631187200546,-5.97173643112183,1.99551129341125,2.38397932052612
59,2083719535,124.75218963623047,-86.92514801025391,-134.19380187988281,9.87580490112305,0.38881653547287,-0.45229250192642,-4.32577466964722,3.76748847961426,2.46214938163757
60,2083736202,123.64965057373047,-87.00945281982422,-133.16706848144531,9.85588741302490,0.43247604370117,-0.40574777126312,-3.56684470176697,6.04965686798096,2.64963436126709
61,2083752869,121.79925537109375,-87.11133575439453,-131.48043823242188,9.85246562957764,0.55370920896530,-0.47427719831467,-7.57506752014160,8.24035072326660,2.59406805038452
62,2083769536,119.80217742919922,-87.22117614746094,-129.57604980468750,9.88841629028320,0.25263699889183,-0.50427097082138,-4.59363317489624,8.74784183502197,3.06175613403320
63,2083786203,117.81751251220703,-87.33024597167969,-127.58456420898438,9.77783393859863,0.24897517263889,-0.38140848278999,1.56163239479065,8.66572666168213,3.29371738433838
64,2083802870,115.41732788085938,-87.44219970703125,-125.21216583251953,9.75448799133301,0.54602658748627,-0.04677049070597,-0.68830943107605,9.33147811889648,3.36808347702026
65,2083819537,112.62971496582031,-87.53812408447266,-122.54086303710938,9.74695396423340,0.39619234204292,-0.02975362725556,-5.94841766357422,9.28745079040527,2.68430161476135
66,2083836204,110.18713378906250,-87.60698699951172,-120.17102050781250,9.65994358062744,0.38202157616615,0.02143225632608,-3.48219442367554,7.64835119247437,1.95632410049438
67,2083852871,108.18304443359375,-87.65615844726562,-118.24341583251953,9.60871601104736,0.38691917061806,0.11378002166748,-3.53594255447388,6.01021337509155,1.50142943859100
68,2083869538,106.72756958007812,-87.69251251220703,-116.81781768798828,9.76054286956787,0.00879882555455,0.01305562071502,-0.62859338521957,4.49144363403320,1.32885098457336
69,2083886205,105.94251251220703,-87.72566223144531,-115.90177154541016,9.70506572723389,0.09646409749985,-0.02110597118735,8.88169288635254,3.19054913520813,1.60103750228882
70,2083902872,105.85137939453125,-87.75363159179688,-115.61099243164062,9.73664951324463,0.35003441572189,0.04249903187156,13.06266403198242,1.63697278499603,1.73533844947815
71,2083919539,106.34547424316406,-87.77542114257812,-115.91141510009766,9.70247745513916,0.41103154420853,0.02376971207559,12.75406837463379,0.19770455360413,1.76828908920288
72,2083936206,107.47650909423828,-87.79079437255859,-116.85992431640625,9.73960018157959,0.25912928581238,-0.02989093959332,12.11079120635986,-1.34101104736328,1.82028234004974
73,2083952873,109.27939605712891,-87.79815673828125,-118.41758728027344,9.80128288269043,0.44200932979584,0.05854122713208,15.90765094757080,-2.77307009696960,1.88746535778046
74,2083969540,111.35331726074219,-87.79203033447266,-120.31021881103516,9.82520198822021,0.51759779453278,0.07730746269226,11.98466205596924,-3.73810529708862,1.48693323135376
75,2083986207,113.84370422363281,-87.77516174316406,-122.60517883300781,9.82665061950684,0.29970505833626,-0.03173262253404,12.33793735504150,-4.84417724609375,1.43400442600250
76,2084002874,116.57401275634766,-87.74884033203125,-125.12631988525391,9.73778629302979,0.48027983307838,-0.01740745455027,13.75488758087158,-5.51127481460571,1.45225393772125
77,2084019541,119.16867828369141,-87.71569824218750,-127.60382080078125,9.72567749023438,0.55893975496292,-0.01370318885893,8.22231960296631,-5.64119291305542,1.32265317440033
78,2084036208,121.47222137451172,-87.67787933349609,-129.82807922363281,9.80836677551270,0.30008429288864,-0.22857460379601,5.91098928451538,-5.28274154663086,1.08491563796997
79,2084052875,123.39959716796875,-87.64258575439453,-131.63621520996094,9.87633037567139,0.15991459786892,-0.27084851264954,8.33438777923584,-4.36596155166626,0.93554252386093
80,2084069542,125.15033721923828,-87.61099243164062,-133.27615356445312,9.81012058258057,0.22122311592102,-0.28121590614319,10.22978019714355,-3.86363267898560,0.98827928304672
81,2084086209,127.25067138671875,-87.56658935546875,-135.17199707031250,9.73072719573975,0.52624863386154,-0.13773715496063,13.01827907562256,-4.93603849411011,1.03973555564880
82,2084102876,129.58583068847656,-87.50292205810547,-137.38735961914062,9.66511821746826,0.58487802743912,-0.05808137729764,8.51173114776611,-6.35280370712280,0.89128386974335
83,2084119543,132.13964843750000,-87.41805267333984,-139.84689331054688,9.69495964050293,0.25767409801483,-0.19239650666714,5.19491052627563,-7.82357358932495,0.82743126153946
84,2084136210,135.09828186035156,-87.30760955810547,-142.67727661132812,9.67137241363525,0.29742133617401,-0.22245837748051,9.26779460906982,-9.70762348175049,0.93741250038147
85,2084152877,138.15969848632812,-87.17437744140625,-145.62933349609375,9.61216735839844,0.54506045579910,-0.11652238667011,8.28410053253174,-11.14220428466797,1.04439699649811
86,2084169544,140.88513183593750,-87.02566528320312,-148.27326965332031,9.79391002655029,0.45015478134155,-0.09659823775291,4.98322200775146,-11.52377986907959,0.70659059286118
87,2084186211,143.51252746582031,-86.85969543457031,-150.78019714355469,9.78427028656006,0.26456478238106,-0.36840593814850,6.19735527038574,-12.34597492218018,0.67955660820007
88,2084202878,145.88307189941406,-86.68376922607422,-153.06730651855469,9.77963829040527,0.41302403807640,-0.31893768906593,5.99781990051270,-12.56752586364746,0.56998538970947
89,2084219545,147.97645568847656,-86.48559570312500,-155.14526367187500,9.59644699096680,0.35680001974106,-0.40650174021721,3.16505289077759,-13.46384334564209,0.03508942201734
90,2084236212,149.97599792480469,-86.24975585937500,-157.12043762207031,9.78906917572021,0.43938779830933,-0.26951122283936,1.15436542034149,-15.53376483917236,-0.43318155407906
91,2084252879,151.92913818359375,-85.96900939941406,-159.08657836914062,9.75966739654541,0.12964068353176,-0.32362532615662,0.71907740831375,-18.08118438720703,-0.84585404396057
92,2084269546,153.81188964843750,-85.64117431640625,-160.90179443359375,9.73079967498779,0.24623525142670,-0.19046084582806,4.87638378143311,-20.62099838256836,-1.49883830547333
93,2084286213,155.33404541015625,-85.29609680175781,-162.39927673339844,9.76369094848633,0.40753170847893,-0.34058371186256,2.59036993980408,-21.23581123352051,-2.12614560127258
94,2084302880,156.66784667968750,-84.92773437500000,-163.70086669921875,9.98431015014648,0.37082028388977,-0.57439589500427,2.98802113533020,-22.38654327392578,-2.55172729492188
95,2084319547,157.82019042968750,-84.54972076416016,-164.81114196777344,10.02892303466797,0.07965813577175,-0.88528150320053,3.94299316406250,-22.75571632385254,-2.81263208389282
96,2084336214,159.00517272949219,-84.15447235107422,-165.85978698730469,9.82799530029297,0.16809405386448,-1.04244387149811,9.52157020568848,-23.81327819824219,-2.63366413116455
97,2084352881,160.01362609863281,-83.75829315185547,-166.76483154296875,9.77575397491455,0.16349238157272,-1.14410173892975,7.63764667510986,-23.74486351013184,-2.64116811752319
98,2084369548,160.96897888183594,-83.36238861083984,-167.58203125000000,9.86433219909668,0.24183046817780,-1.24069488048553,9.71699333190918,-23.71539497375488,-2.42886424064636
99,2084386215,161.78924560546875,-82.96218109130859,-168.25819396972656,9.84412002563477,0.47412118315697,-1.06010615825653,10.05404567718506,-23.78165817260742,-2.76928377151489
100,2084402882,162.31616210937500,-82.59811401367188,-168.75085449218750,9.81986999511719,0.52598589658737,-0.93643182516098,3.41878843307495,-21.41734313964844,-2.88126039505005
101,2084419549,162.72369384765625,-82.26726531982422,-169.18916320800781,9.79718208312988,0.18191120028496,-1.49404537677765,-0.49352535605431,-19.46139335632324,-2.34118962287903
102,2084436216,163.24821472167969,-81.96735382080078,-169.67631530761719,9.82291316986084,0.28451701998711,-1.74935090541840,3.64201450347900,-17.86324501037598,-1.11298179626465
103,2084452883,163.75831604003906,-81.69822692871094,-170.14907836914062,9.64970588684082,0.73993861675262,-1.78297376632690,3.65197801589966,-16.12119483947754,-0.40617299079895
104,2084469550,164.21244812011719,-81.46282196044922,-170.59767150878906,9.70589923858643,0.95097857713699,-1.53709435462952,1.74774765968323,-14.15364456176758,0.20764228701591
105,2084486217,164.61233520507812,-81.25841522216797,-171.07206726074219,9.75130558013916,0.74821031093597,-1.43649971485138,-3.02317738533020,-12.45254898071289,1.14047002792358
106,2084502884,165.03088378906250,-81.06804656982422,-171.63484191894531,9.74824333190918,0.88642007112503,-1.38283264636993,-7.12702608108521,-11.87598323822021,2.33288288116455
107,2084519551,165.29257202148438,-80.91470336914062,-172.20318603515625,10.17648506164551,0.97400343418121,-1.22511184215546,-16.85514068603516,-9.74831485748291,3.12582874298096
108,2084536218,164.04583740234375,-81.13044738769531,-171.99703979492188,10.47566986083984,1.23860430717468,-0.29142659902573,-61.45507812500000,13.49496746063232,1.87856376171112
109,2084552885,162.22625732421875,-81.37937927246094,-171.42739868164062,9.62800121307373,0.65598171949387,-1.31324052810669,-74.25965118408203,16.30029487609863,-0.32205429673195
110,2084569552,160.66220092773438,-81.55780029296875,-171.00305175781250,9.30303287506104,0.83167302608490,-2.19268631935120,-67.53065490722656,11.84827232360840,0.14434275031090
111,2084586219,158.34458923339844,-81.84250640869141,-170.06657409667969,9.23802566528320,1.32165956497192,-2.02819538116455,-82.31819915771484,19.33868789672852,-1.29861581325531
112,2084602886,156.73109436035156,-81.91652679443359,-169.90394592285156,8.36546611785889,-0.13192276656628,-4.19105529785156,-86.02466583251953,5.12846231460571,0.74616861343384
113,2084619553,156.99890136718750,-81.84828186035156,-171.04913330078125,8.93539142608643,-1.64990091323853,-3.52724313735962,-50.82693481445312,-7.06752634048462,7.64028978347778
114,2084636220,158.34895324707031,-81.83172607421875,-172.93186950683594,8.91802787780762,-0.83635026216507,-1.63445055484772,-29.67104148864746,-6.48634576797485,14.77665138244629
115,2084652887,159.65370178222656,-81.95877838134766,-174.91331481933594,9.17740821838379,-0.44846859574318,-0.63645595312119,-38.29126358032227,1.61715769767761,18.69682693481445
116,2084669554,160.50653076171875,-82.21568298339844,-176.53199768066406,9.32163619995117,-0.50364261865616,-0.94877362251282,-43.98669433593750,10.44454860687256,18.14998626708984
117,2084686221,161.37133789062500,-82.55047607421875,-177.84719848632812,9.79809665679932,-0.18290288746357,-1.45231616497040,-25.22083282470703,16.06336593627930,16.75712394714355
118,2084702888,162.32899475097656,-82.88600158691406,-178.93707275390625,9.86991977691650,0.48100107908249,-1.25727391242981,-6.27310657501221,17.05308151245117,14.45691204071045
119,2084719555,163.78501892089844,-83.20041656494141,179.76612854003906,9.88908004760742,-0.56186926364899,-1.55836248397827,11.24605941772461,15.81619262695312,14.82759284973145
120,2084736222,165.33819580078125,-83.42860412597656,179.03456115722656,10.37967014312744,1.28286921977997,-0.79306739568710,50.72168731689453,12.33952713012695,8.87684822082520
121,2084752889,164.82257080078125,-83.65201568603516,-179.91444396972656,10.68080520629883,3.82955598831177,1.41808772087097,32.85129928588867,15.28260612487793,-3.10196232795715
122,2084769556,164.09254455566406,-83.91507720947266,-179.13735961914062,10.20753192901611,-1.02768576145172,-0.66431289911270,3.67253160476685,17.07171058654785,-0.31861588358879
123,2084786223,165.00473022460938,-84.15024566650391,-179.22735595703125,10.43271827697754,-2.19912862777710,-1.49491357803345,50.48487472534180,13.94190883636475,4.61107301712036
124,2084802890,166.30520629882812,-84.33406829833984,-179.32319641113281,9.94573116302490,0.49271199107170,-1.18250775337219,73.42643737792969,11.05005836486816,3.60066533088684
125,2084819557,168.12887573242188,-84.46112060546875,179.98400878906250,9.42149257659912,-0.21368151903152,-1.75633394718170,69.16916656494141,7.02953863143921,5.95272397994995
126,2084836224,170.29606628417969,-84.46607971191406,179.01466369628906,9.23539352416992,1.28278195858002,-1.84124100208282,73.26249694824219,-0.23754309117794,5.88082599639893
127,2084852891,171.98339843750000,-84.37991333007812,178.14009094238281,9.06084632873535,1.72163057327271,-1.41093385219574,50.13521575927734,-5.38517665863037,4.55545186996460
128,2084869558,172.58491516113281,-84.59155273437500,177.73411560058594,9.94139099121094,2.57817673683167,0.22071814537048,12.96282100677490,12.77697372436523,4.33967971801758
129,2084886225,171.53201293945312,-84.97032928466797,178.23419189453125,8.67446231842041,2.05221271514893,-2.16689801216125,-32.14631652832031,23.37965965270996,0.74963676929474
130,2084902892,171.03060913085938,-85.27353668212891,178.44354248046875,9.51661777496338,0.00504394900054,-1.13368332386017,-16.52068328857422,18.63726043701172,2.02814626693726
131,2084919559,171.37825012207031,-85.57171630859375,178.03039550781250,10.16889190673828,-1.24502456188202,-0.24374482035637,-2.72855639457703,17.87046241760254,5.01360273361206
132,2084936226,171.74411010742188,-85.89119720458984,177.71420288085938,10.36356258392334,-0.29551085829735,-0.04116955772042,4.14186096191406,19.23808479309082,4.52972793579102
133,2084952893,171.57101440429688,-86.15850067138672,177.83979797363281,10.14527511596680,-0.48336747288704,-0.66668367385864,-1.72462618350983,16.43821907043457,2.12434482574463
134,2084969560,171.58558654785156,-86.33969879150391,177.89779663085938,9.94345188140869,-0.66369020938873,-0.76465946435928,5.51500701904297,11.27648448944092,1.67882370948792
135,2084986227,171.93884277343750,-86.46830749511719,177.79637145996094,9.67102336883545,-0.49613329768181,-0.98708426952362,16.19768142700195,8.09127807617188,1.80264961719513
136,2085002894,172.53919982910156,-86.58808898925781,177.70968627929688,9.67358398437500,-0.11176344007254,-0.90862703323364,31.92025756835938,7.57204008102417,1.59676587581635
137,2085019561,172.66217041015625,-86.72744750976562,178.02896118164062,9.77320194244385,0.65784388780594,-0.35997974872589,27.63633537292480,8.92962455749512,0.27809071540833
138,2085036228,172.42366027832031,-86.89688110351562,178.47398376464844,9.74164867401123,0.18277080357075,-0.38646671175957,13.50090312957764,10.75156974792480,0.15290798246861
139,2085052895,171.88356018066406,-87.09660339355469,179.13435363769531,9.80260086059570,-0.09309594333172,-0.16864684224129,8.25399303436279,12.64832973480225,-0.11183153092861
140,2085069562,170.74801635742188,-87.31729888916016,-179.68771362304688,9.90592765808105,0.07469840347767,-0.39310532808304,3.61469745635986,14.09117031097412,-1.10595083236694
141,2085086229,169.11216735839844,-87.53415679931641,-178.04487609863281,9.87406826019287,0.17834050953388,-0.47487762570381,1.43225026130676,14.05068778991699,-1.79155206680298
142,2085102896,166.96731567382812,-87.74953460693359,-175.91778564453125,9.71182346343994,0.10060553252697,-0.38470673561096,-0.08575779199600,14.18888187408447,-2.17515373229980
143,2085119563,164.66848754882812,-87.95570373535156,-173.56327819824219,9.62136363983154,-0.09689722955227,-0.41832694411278,4.30328226089478,13.73946952819824,-1.82577061653137
144,2085136230,162.18208312988281,-88.14290618896484,-170.94279479980469,9.62970733642578,0.18512232601643,-0.12209079414606,9.09801197052002,12.74188232421875,-1.66305327415466
145,2085152897,159.15641784667969,-88.31518554687500,-167.84960937500000,9.71869277954102,0.10651870816946,0.03624078631401,4.93550586700439,12.09564208984375,-1.73811066150665
146,2085169564,155.78364562988281,-88.46176147460938,-164.42189025878906,9.73539447784424,-0.08629307895899,-0.08522908389568,4.14129352569580,10.78467941284180,-1.73357689380646
147,2085186231,152.13288879394531,-88.57714843750000,-160.69796752929688,9.70444297790527,0.14491236209869,-0.03195730224252,5.63601350784302,9.21120166778564,-1.93134570121765
148,2085202898,147.97766113281250,-88.65812683105469,-156.52122497558594,9.81280612945557,0.28831881284714,0.00489394366741,2.28542137145996,7.73706007003784,-2.58147239685059
149,2085219565,143.63964843750000,-88.71443176269531,-152.19812011718750,9.81312656402588,0.18903078138828,0.04062814265490,0.15673692524433,6.66747283935547,-2.78330039978027
150,2085236232,139.33493041992188,-88.75117492675781,-147.90953063964844,9.68929958343506,0.35354262590408,0.04848368465900,0.03750979900360,5.76987552642822,-2.86990952491760
151,2085252899,135.27119445800781,-88.77394866943359,-143.87336730957031,9.79662990570068,0.13284149765968,-0.12751351296902,-0.38350534439087,5.08563184738159,-2.68937826156616
152,2085269566,131.40679931640625,-88.79180145263672,-139.95553588867188,9.85363483428955,0.08915515244007,-0.18173499405384,3.90306806564331,4.92249250411987,-2.38273048400879
153,2085286233,127.13267517089844,-88.81552124023438,-135.60153198242188,9.84349822998047,0.16620525717735,-0.21372900903225,5.76721191406250,5.67414855957031,-2.11799764633179
154,2085302900,122.30490875244141,-88.83634948730469,-130.70190429687500,9.81788635253906,0.27454945445061,-0.21803274750710,5.26727819442749,6.24690055847168,-2.15112805366516
155,2085319567,116.99774169921875,-88.85141754150391,-125.35634613037109,9.75372314453125,0.10719846934080,-0.26805236935616,3.35400915145874,6.67030334472656,-2.16201305389404
156,2085336234,111.79002380371094,-88.85894012451172,-120.06553649902344,9.77112579345703,0.16138698160648,-0.17797099053860,6.04324007034302,6.56977367401123,-1.93765878677368
157,2085352901,106.39482116699219,-88.86512756347656,-114.56060791015625,9.80602645874023,0.29167214035988,-0.04017972946167,7.62069082260132,6.93041515350342,-1.53037846088409
158,2085369568,97.96192169189453,-88.87100982666016,-106.12247467041016,9.91769695281982,0.36126998066902,0.17655509710312,1.64040434360504,10.52154827117920,-1.54648900032043
159,2085386235,86.85493469238281,-88.84631347656250,-95.07647705078125,9.81751537322998,0.06984306871891,-0.12835654616356,-2.72651863098145,13.85788917541504,-1.70192039012909
160,2085402902,78.28229522705078,-88.79147338867188,-86.46372222900391,9.80838871002197,0.28018638491631,-0.14233615994453,3.40086841583252,11.66055870056152,-1.48709321022034
161,2085419569,71.62467193603516,-88.72160339355469,-79.74360656738281,9.84725570678711,0.45858797430992,0.01149169635028,4.66129541397095,10.14423370361328,-1.32833278179169
162,2085436236,65.80494689941406,-88.64260864257812,-73.85359191894531,9.85346889495850,0.41955274343491,0.04831872880459,5.33325815200806,9.88030910491943,-1.05202293395996
163,2085452903,60.83498001098633,-88.56182861328125,-68.74399566650391,9.81459236145020,0.21381513774395,-0.03900886699557,9.39859771728516,9.41724395751953,-0.55975943803787
164,2085469570,56.47534942626953,-88.47800445556641,-64.16376495361328,9.77614116668701,0.26949244737625,0.05619397014380,14.12914276123047,9.23507690429688,-0.22807487845421
165,2085486237,52.61642074584961,-88.38602447509766,-60.09450531005859,9.74594402313232,0.31027162075043,0.15681992471218,13.73247909545898,9.14836597442627,-0.18477658927441
166,2085502904,48.35509109497070,-88.25830841064453,-55.70945358276367,9.89275169372559,0.41794857382774,0.49745553731918,8.51096439361572,11.34200096130371,-0.61058789491653
167,2085519571,43.04081344604492,-88.05298614501953,-50.50435256958008,9.71792030334473,0.15070268511772,0.27544495463371,-5.47800493240356,16.28733634948730,-1.35885107517242
168,2085536238,38.60442733764648,-87.81475067138672,-46.18153381347656,9.73593139648438,0.17259748280048,0.40688994526863,-5.77275705337524,17.41275215148926,-1.85938823223114
169,2085552905,35.72593307495117,-87.60379791259766,-43.37885665893555,9.61434936523438,0.20527911186218,0.39582470059395,-3.62186193466187,14.62254428863525,-1.91623437404633
170,2085569572,33.96004486083984,-87.43570709228516,-41.65657806396484,9.62272262573242,0.09523865580559,0.44864717125893,-1.51643276214600,11.32549381256104,-1.74007010459900
171,2085586239,32.79307937622070,-87.31533050537109,-40.43347549438477,9.67440509796143,0.20323334634304,0.39259737730026,4.43504476547241,8.36455917358398,-0.82225108146667
172,2085602906,31.97057533264160,-87.22724151611328,-39.50099945068359,9.78432369232178,0.45796170830727,0.64894741773605,7.59543514251709,6.37925434112549,-0.24843685328960
173,2085619573,29.95519256591797,-87.02849578857422,-37.60514068603516,9.91778373718262,0.72947353124619,1.02841210365295,-6.18648958206177,13.63838672637939,-0.89691257476807
174,2085636240,28.11540794372559,-86.83981323242188,-35.97698211669922,9.59512615203857,0.24123370647430,0.51746010780334,-11.67648983001709,12.92583370208740,-0.58442479372025
175,2085652907,27.21511459350586,-86.72685241699219,-35.20392227172852,9.60346221923828,0.34418475627899,0.66868251562119,-6.54601287841797,7.70801734924316,-0.51186358928680
176,2085669574,26.83092498779297,-86.66217041015625,-34.94357299804688,9.71516323089600,0.37201049923897,0.77476865053177,-6.32508897781372,4.36526250839233,-0.63803160190582
177,2085686241,26.16548156738281,-86.57012176513672,-34.51110839843750,9.81405353546143,0.46124872565269,0.93076705932617,-12.92213535308838,6.11753320693970,-0.76806777715683
178,2085702908,25.59751129150391,-86.49418640136719,-34.21820831298828,9.61574459075928,0.20557467639446,0.45011612772942,-15.41185951232910,5.05632209777832,-0.70818531513214
179,2085719575,25.55395507812500,-86.47785949707031,-34.31414031982422,9.69879627227783,0.25650086998940,0.55233359336853,-7.22662973403931,1.23320043087006,-0.42393502593040
180,2085736242,25.90166664123535,-86.50974273681641,-34.71543884277344,9.73861598968506,0.30030727386475,0.51539748907089,-2.04160761833191,-1.86170399188995,-0.18183095753193
181,2085752909,26.43704414367676,-86.55918121337891,-35.27878189086914,9.75028610229492,0.33946081995964,0.50312131643295,-0.49020791053772,-3.07132792472839,-0.20679053664207
182,2085769576,27.00344276428223,-86.60737609863281,-35.85203170776367,9.80048274993896,0.17359817028046,0.38967698812485,0.78497797250748,-2.98648571968079,-0.22589759528637
183,2085786243,27.55031204223633,-86.64982604980469,-36.37379074096680,9.79193115234375,0.26663196086884,0.32574838399887,2.69089579582214,-2.60558629035950,-0.15539865195751
184,2085802910,27.83065605163574,-86.65976715087891,-36.65508651733398,9.95891857147217,0.53840637207031,0.86650544404984,1.10082101821899,-0.48142269253731,-0.28140029311180
185,2085819577,26.52122688293457,-86.48219299316406,-35.79325103759766,9.71862220764160,0.63167822360992,0.64068853855133,-25.82445526123047,11.36911296844482,-1.77685391902924
186,2085836244,25.79917716979980,-86.35556793212891,-35.43839645385742,9.67302608489990,-0.05821524560452,0.31718850135803,-20.95056533813477,7.89202928543091,-1.82689952850342
187,2085852911,25.74069595336914,-86.29736328125000,-35.59761047363281,9.66897869110107,0.24996565282345,0.65293252468109,-11.91810035705566,3.37812447547913,-1.75209534168243
188,2085869578,25.95026969909668,-86.29107666015625,-35.95503997802734,9.73474311828613,0.30233070254326,0.72678887844086,-7.70449972152710,0.23101378977299,-1.09415555000305
189,2085886245,26.32923126220703,-86.32155609130859,-36.42290115356445,9.73417377471924,0.34331628680229,0.62927579879761,-4.15789556503296,-1.92208611965179,-0.51117193698883
190,2085902912,26.79084968566895,-86.34853363037109,-36.96891403198242,9.70135498046875,0.32385167479515,0.62158042192459,-3.86943244934082,-1.88878941535950,-0.83254718780518
191,2085919579,27.28315162658691,-86.37021636962891,-37.57205963134766,9.73019313812256,0.22484683990479,0.50259739160538,-5.44769954681396,-1.70784842967987,-1.13840126991272
192,2085936246,27.82948875427246,-86.40517425537109,-38.16638565063477,9.77730560302734,0.28642469644547,0.51733446121216,-1.68310666084290,-2.39900708198547,-0.70815908908844
193,2085952913,28.37325477600098,-86.45668792724609,-38.71669006347656,9.76226806640625,0.25569841265678,0.46216061711311,0.80244588851929,-3.19193792343140,-0.04375289008021
194,2085969580,28.70842552185059,-86.52233123779297,-38.95719146728516,9.78669071197510,0.03948310762644,0.35020115971565,6.82519674301147,-3.36377358436584,1.41010737419128
195,2085986247,28.65110397338867,-86.56367492675781,-38.74708175659180,9.87733459472656,0.45053589344025,0.47222876548767,10.27549839019775,-1.31597459316254,2.18007707595825
196,2086002914,28.36361122131348,-86.58643341064453,-38.38389968872070,9.80914974212646,0.56619232892990,0.39421999454498,5.62398624420166,-0.07687012851238,2.11701798439026
197,2086019581,28.05975151062012,-86.61302947998047,-38.03318786621094,9.76360797882080,0.44849425554276,0.48732677102089,3.90030193328857,-0.30244114995003,2.16757702827454
198,2086036248,27.62460136413574,-86.63280487060547,-37.53427124023438,9.81418132781982,0.27875742316246,0.58817642927170,4.90366649627686,0.27869176864624,2.43455123901367
199,2086052915,27.05841064453125,-86.63896942138672,-36.95274353027344,9.74327468872070,0.36431786417961,0.55597102642059,1.98395955562592,1.12152886390686,2.30757594108582
200,2086069582,26.62260055541992,-86.66487121582031,-36.49134063720703,9.76870346069336,0.30272203683853,0.57989954948425,2.61291813850403,-0.15994492173195,2.46944880485535
201,2086086249,26.38591575622559,-86.71824645996094,-36.20413589477539,9.70022487640381,0.26815521717072,0.65826445817947,4.13136720657349,-1.91672015190125,2.63853096961975
202,2086102916,26.30774116516113,-86.78575897216797,-36.07343292236328,9.71669578552246,0.40325120091438,0.72741109132767,4.25437259674072,-2.91105675697327,2.50426936149597
203,2086119583,26.37738609313965,-86.85671234130859,-36.13995361328125,9.71265792846680,0.50228470563889,0.56779396533966,1.31977105140686,-3.41674017906189,2.01049447059631
204,2086136250,26.71945571899414,-86.95432281494141,-36.48437118530273,9.70537567138672,0.43516272306442,0.55957764387131,1.01468563079834,-5.22796916961670,1.93159484863281
205,2086152917,27.34565162658691,-87.08026885986328,-37.12454986572266,9.67193031311035,0.35353022813797,0.57400083541870,0.34105879068375,-7.13219738006592,1.96379017829895
206,2086169584,28.37668800354004,-87.23558044433594,-38.15627670288086,9.71716213226318,0.29680323600769,0.49557706713676,1.15445446968079,-9.15361690521240,1.94075179100037
207,2086186251,29.78130149841309,-87.40187835693359,-39.55756378173828,9.78247356414795,0.39143121242523,0.48191887140274,1.40883982181549,-10.10170936584473,1.69914698600769
208,2086202918,31.16790962219238,-87.54616546630859,-41.00559616088867,9.79624557495117,0.37050119042397,0.47114789485931,-2.47346377372742,-8.88088035583496,1.38042247295380
209,2086219585,32.56082916259766,-87.67999267578125,-42.47957992553711,9.81866931915283,0.18852524459362,0.40621989965439,-3.67536544799805,-8.23501586914062,1.39193511009216
210,2086236252,33.89446640014648,-87.81000518798828,-43.86812973022461,9.80468177795410,-0.07782746106386,0.29089438915253,-2.10739421844482,-7.82184410095215,1.83456134796143
211,2086252919,35.21533966064453,-87.95121002197266,-45.09572982788086,9.83178329467773,-0.19604459404945,0.17186272144318,6.77746915817261,-7.96397161483765,2.82117605209351
212,2086269586,36.79482269287109,-88.10081481933594,-46.47425460815430,9.79905700683594,0.14860631525517,0.35569843649864,13.23492527008057,-8.42108345031738,3.25697755813599
213,2086286253,38.78792572021484,-88.25168609619141,-48.30345153808594,9.75278091430664,0.28486433625221,0.41470658779144,10.98987960815430,-8.76836776733398,3.05074381828308
214,2086302920,41.64230346679688,-88.40787506103516,-51.01061248779297,9.73435306549072,0.26558485627174,0.39601811766624,10.01980972290039,-9.67145729064941,2.66486239433289
215,2086319587,45.49305725097656,-88.56033325195312,-54.74406814575195,9.75491428375244,0.19851750135422,0.35901862382889,8.25472164154053,-10.18752765655518,2.21882915496826
216,2086336254,50.24925231933594,-88.69764709472656,-59.40607070922852,9.76253795623779,0.22554710507393,0.32650387287140,6.83239603042603,-9.98809432983398,1.81133091449738
217,2086352921,55.74521636962891,-88.82280731201172,-64.82393646240234,9.74007415771484,0.15048275887966,0.24070671200752,5.90793085098267,-9.65840625762939,1.93269705772400
218,2086369588,62.25584411621094,-88.93707275390625,-71.28138732910156,9.74090099334717,0.22176820039749,0.20575582981110,4.42691373825073,-9.56895256042480,2.09983229637146
219,2086386255,69.89089965820312,-89.02985382080078,-78.89692687988281,9.75389957427979,0.19075448811054,0.16976605355740,2.47513532638550,-9.27493190765381,1.91369199752808
220,2086402922,78.55171203613281,-89.09539794921875,-87.56759643554688,9.73152065277100,0.18461933732033,0.08628793060780,0.79535126686096,-8.94414138793945,1.63779139518738
221,2086419589,87.68383789062500,-89.13227844238281,-96.73366546630859,9.69429874420166,0.14699923992157,0.00390289444476,-0.84486711025238,-8.44632148742676,1.38139557838440
222,2086436256,96.17873382568359,-89.13997650146484,-105.29251861572266,9.72622203826904,0.14694496989250,0.03861560672522,-2.43185567855835,-7.45504474639893,1.07810270786285
223,2086452923,102.95602416992188,-89.13204956054688,-112.17414093017578,9.79332065582275,0.04557083174586,-0.15859772264957,-4.99607181549072,-5.90790987014771,0.91379725933075
224,2086469590,108.51588439941406,-89.11951446533203,-117.79438781738281,9.86596775054932,-0.03654513135552,-0.28076896071434,-3.11836528778076,-4.80252790451050,1.08095836639404
225,2086486257,112.70947265625000,-89.10496520996094,-122.03208160400391,9.82085514068604,-0.17552030086517,-0.38520354032516,-1.31712687015533,-3.58830785751343,0.96243578195572
226,2086502924,116.14424133300781,-89.09691619873047,-125.37712860107422,9.86078739166260,-0.08553588390350,-0.38573122024536,6.62683868408203,-2.63960027694702,1.23430180549622
227,2086519591,118.18019866943359,-89.09539794921875,-127.33071136474609,9.78490447998047,0.40017443895340,-0.16882842779160,5.99113130569458,-1.26827061176300,1.04446041584015
228,2086536258,119.03012847900391,-89.10366058349609,-128.19714355468750,9.77672290802002,0.36369779706001,-0.15025620162487,1.27925205230713,0.03570410236716,1.18645727634430
229,2086552925,119.41990661621094,-89.12598419189453,-128.55215454101562,9.85896682739258,0.06528428941965,-0.22564680874348,2.07027459144592,0.81180733442307,1.60745298862457
230,2086569592,119.37396240234375,-89.15027618408203,-128.42996215820312,9.85059642791748,0.13772116601467,-0.12538780272007,5.77097654342651,1.31655681133270,1.53461050987244
231,2086586259,118.74825286865234,-89.17623138427734,-127.71699523925781,9.86820316314697,0.24733036756516,-0.05895749479532,5.85754823684692,1.78272080421448,1.31683874130249
232,2086602926,117.69547271728516,-89.19692230224609,-126.65449523925781,9.84439468383789,0.06901721656322,-0.01395850442350,1.86644864082336,1.88932085037231,0.92465692758560
233,2086619593,116.89594268798828,-89.21765136718750,-125.76790618896484,9.78585720062256,-0.22254122793674,-0.16872285306454,6.39847612380981,1.71721637248993,1.01597905158997
234,2086636260,116.71523284912109,-89.24619293212891,-125.38838195800781,9.71803474426270,-0.04995567724109,-0.04612826183438,11.00595951080322,1.47262823581696,1.60180604457855
235,2086652927,117.66146850585938,-89.27937316894531,-126.13325500488281,9.77501010894775,-0.22269065678120,-0.17701476812363,13.09127235412598,0.87646698951721,2.36333632469177
236,2086669594,120.62331390380859,-89.33119201660156,-128.68614196777344,9.86445045471191,-0.16441294550896,-0.20508834719658,26.04295539855957,0.22727486491203,3.81485438346863
237,2086686261,124.44077301025391,-89.38103485107422,-132.00791931152344,9.74063587188721,0.43305015563965,0.12201839685440,31.05740737915039,0.03991752117872,3.98488783836365
238,2086702928,128.00480651855469,-89.41383361816406,-135.20840454101562,9.70105838775635,0.75377875566483,0.27520674467087,22.65749549865723,-0.12868483364582,3.09416079521179
239,2086719595,130.22029113769531,-89.43247985839844,-137.31300354003906,9.80142211914062,0.34050172567368,0.19284476339817,8.67633056640625,0.07507084310055,1.93472003936768
240,2086736262,131.80596923828125,-89.43007659912109,-138.85762023925781,9.73138046264648,-0.01495031174272,0.00540718901902,6.06865930557251,-0.35358965396881,0.80403381586075
241,2086752929,132.77001953125000,-89.41584014892578,-139.77777099609375,9.73993301391602,0.18098023533821,0.03593190759420,2.85509896278381,-0.41548284888268,0.20873069763184
242,2086769596,133.29179382324219,-89.40193176269531,-140.32615661621094,9.83026027679443,0.17129008471966,-0.02745448797941,-0.55937492847443,-0.32738789916039,-0.03362306952477
243,2086786263,133.44905090332031,-89.38515472412109,-140.50381469726562,9.79330158233643,0.20465300977230,-0.04686595126987,-1.56901490688324,-0.21546043455601,-0.24011266231537
244,2086802930,133.49447631835938,-89.36296081542969,-140.59446716308594,9.72749042510986,0.21974043548107,-0.04686678946018,-1.30822610855103,-0.41015535593033,-0.55256187915802
245,2086819597,133.42947387695312,-89.33884429931641,-140.62207031250000,9.76849746704102,0.25341701507568,0.05031824111938,-4.29985332489014,-0.53732240200043,-0.74513095617294
246,2086836264,132.79397583007812,-89.30535888671875,-140.12660217285156,9.75870227813721,0.14692963659763,0.00596498604864,-6.86542797088623,-0.46782243251801,-1.26070213317871
247,2086852931,131.60545349121094,-89.26778411865234,-139.11753845214844,9.76067638397217,0.07352690398693,-0.02230916917324,-9.67718982696533,-0.37359330058098,-1.81207954883575
248,2086869598,130.42469787597656,-89.23433685302734,-138.15026855468750,9.74584197998047,-0.03457463905215,-0.11708821356297,-11.47141361236572,-0.20043867826462,-1.69048368930817
249,2086886265,129.77828979492188,-89.20377349853516,-137.66282653808594,9.80293846130371,-0.08352018147707,-0.26144847273827,-8.36494922637939,-0.34046325087547,-1.31835627555847
250,2086902932,129.50393676757812,-89.18147277832031,-137.44160461425781,9.82036781311035,0.15591566264629,-0.18081960082054,-2.49828171730042,-0.17900075018406,-0.79325723648071
251,2086919599,129.42915344238281,-89.16772460937500,-137.40519714355469,9.81615257263184,0.31634461879730,-0.07099545001984,-1.06088447570801,0.05323599278927,-0.27518922090530
252,2086936266,129.89268493652344,-89.16163635253906,-137.87760925292969,9.75715923309326,0.22991794347763,-0.07954915612936,0.68346202373505,-0.09076499938965,0.27779531478882
253,2086952933,130.96443176269531,-89.15489196777344,-138.92459106445312,9.72936630249023,0.12124292552471,-0.06213806569576,2.26824831962585,-0.45483675599098,0.67690527439117
254,2086969600,132.55955505371094,-89.14134216308594,-140.49960327148438,9.70423221588135,0.12134793400764,-0.00655970256776,2.84003877639771,-1.10641109943390,0.68807238340378
255,2086986267,134.21492004394531,-89.12196350097656,-142.17456054687500,9.77812099456787,0.09267909079790,0.01349198259413,-0.01606556959450,-1.43801879882812,0.55730676651001
256,2087002934,135.67677307128906,-89.09648132324219,-143.67233276367188,9.78031444549561,0.09696591645479,-0.03628968819976,-1.16123497486115,-1.55368542671204,0.30368977785110
257,2087019601,137.00840759277344,-89.06959533691406,-145.06526184082031,9.78832721710205,0.19446806609631,-0.06462652981281,-2.03352665901184,-1.59442257881165,0.21131759881973
258,2087036268,138.13676452636719,-89.03754425048828,-146.24815368652344,9.78899288177490,0.21340426802635,-0.07978877425194,-2.44978451728821,-1.68525791168213,-0.03902735188603
259,2087052935,139.23695373535156,-89.00416564941406,-147.41154479980469,9.78361034393311,0.22692039608955,-0.06255597621202,-2.91022396087646,-1.77177774906158,-0.04303573817015
260,2087069602,140.41267395019531,-88.96921539306641,-148.66966247558594,9.71704101562500,0.17856766283512,-0.04216507449746,-3.52328991889954,-1.95346164703369,0.03138836845756
261,2087086269,141.56071472167969,-88.93173980712891,-149.91275024414062,9.73005008697510,0.17743811011314,-0.03121924586594,-4.72336006164551,-2.11621761322021,0.00094766990514
262,2087102936,142.74024963378906,-88.88794708251953,-151.20907592773438,9.79353523254395,0.15847171843052,-0.07638686150312,-6.26587152481079,-2.44348382949829,-0.04491827264428
263,2087119603,143.68919372558594,-88.84107208251953,-152.30758666992188,9.79026031494141,0.14382651448250,-0.11705889552832,-7.10499572753906,-2.52434325218201,-0.29642224311829
264,2087136270,144.51167297363281,-88.79309844970703,-153.27908325195312,9.75213050842285,0.02713717706501,-0.19723621010780,-7.00047159194946,-2.53138709068298,-0.38064965605736
265,2087152937,145.49597167968750,-88.74508666992188,-154.36640930175781,9.77310657501221,0.07027256488800,-0.24809075891972,-4.70941400527954,-2.62044191360474,-0.13387119770050
266,2087169604,146.30137634277344,-88.70593261718750,-155.27186584472656,9.79620075225830,0.09697980433702,-0.25700396299362,-3.18964576721191,-2.10563945770264,-0.00557716609910
267,2087186271,147.05964660644531,-88.67219543457031,-156.08569335937500,9.79751968383789,-0.00329557037912,-0.26429721713066,-2.18825292587280,-1.75797212123871,0.19144210219383
268,2087202938,147.78430175781250,-88.64781188964844,-156.81500244140625,9.79948616027832,-0.07218489050865,-0.31196749210358,0.83407747745514,-1.30528068542480,0.39898180961609
269,2087219605,148.16169738769531,-88.62769317626953,-157.19447326660156,9.79976177215576,0.12469566613436,-0.23070752620697,1.22971701622009,-0.78168040513992,0.15827368199825
270,2087236272,148.25227355957031,-88.61760711669922,-157.32005310058594,9.81013774871826,0.15633738040924,-0.26564055681229,-0.74391442537308,-0.10975681245327,0.15131983160973
271,2087252939,148.22923278808594,-88.61492156982422,-157.31198120117188,9.80026721954346,0.09890001267195,-0.27978101372719,-0.28727844357491,0.35314792394638,0.23087285459042
272,2087269606,148.07751464843750,-88.62229156494141,-157.17210388183594,9.71060657501221,-0.03815586864948,-0.28309804201126,0.11255501210690,0.96433091163635,0.37518763542175
273,2087286273,148.30305480957031,-88.64044952392578,-157.33003234863281,9.79117202758789,-0.46146792173386,-0.57342320680618,6.19097423553467,1.30567157268524,1.06171059608459
274,2087302940,148.90629577636719,-88.67633056640625,-157.65415954589844,9.85475635528564,-0.07535920292139,-0.37224385142326,18.43939781188965,2.08701491355896,1.81060254573822
275,2087319607,149.36207580566406,-88.73159027099609,-157.84336853027344,9.82178306579590,0.16266173124313,-0.31778863072395,16.24944305419922,3.15555191040039,2.23027944564819
276,2087336274,149.77867126464844,-88.80761718750000,-157.99099731445312,9.94262981414795,-0.01155197247863,-0.34307655692101,18.60235977172852,4.27850437164307,2.72789669036865
277,2087352941,148.41471862792969,-88.93173980712891,-156.35250854492188,9.97866344451904,0.14817821979523,-0.05612594634295,15.73169612884521,7.78710126876831,2.41830253601074
278,2087369608,140.19412231445312,-89.17386627197266,-148.06636047363281,9.88067150115967,0.07101286202669,-0.00590268149972,5.26704072952271,16.87170600891113,1.69885408878326
279,2087386275,124.76499176025391,-89.40422821044922,-132.52557373046875,9.74077224731445,0.05260001868010,0.03910050541162,7.87398195266724,18.23767662048340,1.81206238269806
280,2087402942,104.26589965820312,-89.53817749023438,-111.86464691162109,9.71806430816650,0.14243675768375,-0.03516707569361,10.67684555053711,14.73702812194824,1.88843953609467
281,2087419609,85.53529357910156,-89.58363342285156,-92.92874145507812,9.78297615051270,0.44142037630081,0.12754046916962,11.26444911956787,10.31307697296143,1.81517362594604
282,2087436276,74.39524078369141,-89.59122467041016,-81.64778137207031,9.68642616271973,0.40637660026550,0.19818878173828,9.65713119506836,5.84540891647339,1.68649435043335
283,2087452943,70.02455139160156,-89.60783386230469,-77.15451049804688,9.67234611511230,0.29145434498787,0.25190836191177,8.60177230834961,2.26329255104065,1.83107817173004
284,2087469610,71.52487182617188,-89.64173126220703,-78.52066040039062,9.73736667633057,0.23516581952572,0.18688732385635,10.26394939422607,-0.67636126279831,1.82261312007904
285,2087486277,79.03398132324219,-89.68410491943359,-85.86198425292969,9.81411552429199,0.25183600187302,0.27484172582626,10.35007095336914,-3.01475048065186,1.53873479366302
286,2087502944,93.72209930419922,-89.70591735839844,-100.42446899414062,9.70734596252441,0.30969476699829,0.24956627190113,8.16876411437988,-5.25149536132812,1.11980044841766
287,2087519611,113.77822875976562,-89.68410491943359,-120.46289825439453,9.66978073120117,0.10203110426664,0.17569798231125,4.19523286819458,-7.36762762069702,0.99633413553238
288,2087536278,133.44358825683594,-89.58551025390625,-140.05718994140625,9.81270790100098,-0.00633931159973,0.07889669388533,5.59189510345459,-9.44340038299561,1.06272256374359
289,2087552945,147.21530151367188,-89.42733764648438,-153.71955871582031,9.76608276367188,0.19398121535778,0.17461439967155,7.47640371322632,-11.07110309600830,0.73056429624557
290,2087569612,155.54467773437500,-89.23408508300781,-161.99392700195312,9.73730373382568,0.39934456348419,0.21913464367390,4.28521156311035,-12.09733963012695,0.39186170697212
291,2087586279,160.30877685546875,-89.03146362304688,-166.79153442382812,9.69759082794189,0.38196820020676,0.16267801821232,-1.93129444122314,-12.09715843200684,0.07604414224625
292,2087602946,163.34355163574219,-88.82596588134766,-169.94407653808594,9.75649452209473,0.17998440563679,0.00120684131980,-5.97490358352661,-12.12102127075195,-0.02350607514381
293,2087619613,165.53796386718750,-88.62171936035156,-172.24911499023438,9.88042640686035,0.09617155790329,-0.13066479563713,-5.94747066497803,-11.97557640075684,0.10146477073431
294,2087636280,167.15942382812500,-88.41687011718750,-173.95353698730469,9.84419631958008,0.33927765488625,-0.11143978685141,-4.02599143981934,-11.92360782623291,0.05648884177208
295,2087652947,168.18478393554688,-88.21424865722656,-175.14161682128906,9.74615287780762,0.69420629739761,0.00738860294223,-8.69994258880615,-11.78422546386719,-0.19814637303352
296,2087669614,168.64955139160156,-88.00669097900391,-175.93528747558594,9.66820526123047,0.65796953439713,-0.01866240240633,-18.61025238037109,-11.92814350128174,-0.60996109247208
297,2087686281,168.90243530273438,-87.79620361328125,-176.60984802246094,9.68058490753174,0.25370371341705,-0.28769165277481,-24.12693405151367,-12.13155460357666,-0.66424775123596
298,2087702948,169.34843444824219,-87.58873748779297,-177.49363708496094,9.81948661804199,-1.07188773155212,-0.78921848535538,-25.16891860961914,-12.07871913909912,0.09434463083744
299,2087719615,170.58789062500000,-87.39165496826172,-178.62612915039062,10.08061218261719,-1.10499143600464,-0.95208424329758,6.52207231521606,-11.61948204040527,1.25691819190979
300,2087736282,171.77754211425781,-87.22004699707031,-179.59288024902344,9.76604652404785,0.06949059665203,-0.65244793891907,15.05797863006592,-10.09911727905273,1.41984140872955
301,2087752949,172.56845092773438,-87.07162475585938,179.67686462402344,9.82479763031006,0.65240931510925,-0.54630917310715,4.98284959793091,-8.57296371459961,1.27173495292664
302,2087769616,173.01184082031250,-86.95759582519531,179.14317321777344,9.89248180389404,0.15859016776085,-0.64851337671280,-4.23952388763428,-6.50131750106812,1.11875009536743
303,2087786283,173.40972900390625,-86.87445068359375,178.70230102539062,9.82298278808594,-0.07516398280859,-0.84929722547531,-1.68847227096558,-4.61140632629395,1.16288053989410
304,2087802950,173.88478088378906,-86.81684875488281,178.24652099609375,9.76194381713867,0.02965472638607,-0.78466963768005,2.37364411354065,-3.09962964057922,1.43286406993866
305,2087819617,174.35940551757812,-86.78703308105469,177.78070068359375,9.94709682464600,-0.31193619966507,-0.84522306919098,1.59348142147064,-1.44142496585846,1.69612431526184
306,2087836284,175.18644714355469,-86.77523803710938,177.18565368652344,10.13207435607910,-0.57447469234467,-0.85664826631546,15.20476245880127,-0.40125530958176,2.24768280982971
307,2087852951,176.03477478027344,-86.77748870849609,176.63619995117188,9.87665653228760,0.02934375032783,-0.57349383831024,19.20737075805664,0.49531182646751,2.17436718940735
308,2087869618,176.72422790527344,-86.78034210205078,176.12971496582031,9.72304153442383,0.18404011428356,-0.45520988106728,12.06281757354736,0.55789601802826,2.03984761238098
309,2087886285,177.34066772460938,-86.76699829101562,175.60951232910156,9.57606029510498,-0.05973962694407,-0.42383694648743,6.75442886352539,-0.39102274179459,2.04445719718933
310,2087902952,177.78527832031250,-86.73619842529297,175.23037719726562,9.65543842315674,-0.18954756855965,-0.41149070858955,5.11932611465454,-1.41020333766937,1.52649140357971
311,2087919619,178.30432128906250,-86.69156646728516,174.80453491210938,9.72241973876953,-0.08609508723021,-0.45768627524376,6.82538795471191,-2.20897388458252,1.68891429901123
312,2087936286,178.84690856933594,-86.62948608398438,174.36175537109375,9.62845611572266,0.11425089836121,-0.51409924030304,7.30657529830933,-3.27715182304382,1.76439523696899
313,2087952953,179.38122558593750,-86.54458618164062,173.93734741210938,9.79335117340088,0.22422446310520,-0.38317245244980,7.77022886276245,-4.60176467895508,1.75608384609222
314,2087969620,179.80194091796875,-86.44664764404297,173.57128906250000,9.88286972045898,0.42615568637848,-0.22993093729019,4.46107959747314,-5.39648723602295,1.61859464645386
315,2087986287,-179.95108032226562,-86.33798980712891,173.30929565429688,9.85309505462646,0.47086125612259,-0.30400595068932,0.04017351940274,-6.02468967437744,1.31347036361694
316,2088002954,-179.78361511230469,-86.22353363037109,173.09149169921875,9.94774627685547,0.42844942212105,-0.28082183003426,-1.89850938320160,-6.34315824508667,1.18499732017517
317,2088019621,-179.90040588378906,-86.30535888671875,172.87191772460938,10.31371116638184,0.65947651863098,0.14411617815495,-19.05047607421875,5.39186477661133,1.16614782810211
318,2088036288,179.57525634765625,-86.50475311279297,172.95837402343750,9.86825275421143,0.08672060072422,-0.54376846551895,-25.14492988586426,12.44977664947510,0.02807159349322
319,2088052955,178.95872497558594,-86.68436431884766,173.16973876953125,10.10220527648926,0.63214176893234,0.08622943609953,-23.21933174133301,11.24351501464844,-0.29681989550591
320,2088069622,177.01643371582031,-87.00879669189453,174.18736267089844,9.70700836181641,1.17012059688568,-0.33307948708534,-54.43188858032227,20.00511741638184,-2.36179447174072
321,2088086289,173.99568176269531,-87.13174438476562,176.14265441894531,9.01013088226318,0.05661490932107,-1.80188322067261,-63.18835449218750,8.29905605316162,-5.08130598068237
322,2088102956,172.18821716308594,-86.98896789550781,177.34524536132812,9.51568222045898,-0.41040611267090,-0.93889814615250,-35.33351516723633,-7.53848600387573,-4.38257741928101
323,2088119623,171.09158325195312,-86.76989746093750,178.06768798828125,9.54247283935547,-0.30582347512245,-0.45013850927353,-21.72958755493164,-12.14009475708008,-3.90588760375977
324,2088136290,170.00732421875000,-86.55026245117188,178.89225769042969,9.57346820831299,-0.00566224334762,-0.58656477928162,-14.59662532806396,-12.01383686065674,-4.68474149703979
325,2088152957,168.81915283203125,-86.31374359130859,179.92506408691406,9.40921497344971,-0.11475962400436,-1.21265256404877,-8.43636417388916,-12.72019290924072,-6.07093811035156
326,2088169624,167.92190551757812,-86.03800201416016,-179.10581970214844,9.54364013671875,0.05808793753386,-1.17185688018799,4.84859132766724,-14.90159130096436,-6.78187227249146
327,2088186291,167.34292602539062,-85.77566528320312,-178.31953430175781,9.51366329193115,-0.16815015673637,-0.90318393707275,13.49973011016846,-14.13906764984131,-6.34338426589966
328,2088202958,166.97247314453125,-85.59087371826172,-177.68000793457031,9.53797721862793,-0.31540608406067,-0.25252476334572,17.21716117858887,-9.65420055389404,-4.96403598785400
329,2088219625,167.00936889648438,-85.50538635253906,-177.41876220703125,9.75766372680664,-0.63382661342621,-0.17070516943932,19.16751670837402,-4.22505664825439,-2.03739666938782
330,2088236292,167.30596923828125,-85.45593261718750,-177.43063354492188,9.76319313049316,0.30055281519890,-0.90446007251740,17.79018783569336,-2.42608189582825,-0.25682517886162
331,2088252959,167.66644287109375,-85.37950134277344,-177.64437866210938,9.87177562713623,0.02656937763095,-1.20620775222778,11.04272842407227,-4.17686319351196,0.24517767131329
332,2088269626,168.50292968750000,-85.30105590820312,-178.21006774902344,9.73999023437500,-0.18328201770782,-0.75807726383209,16.35386466979980,-4.69685506820679,2.13615250587463
333,2088286293,169.58132934570312,-85.22549438476562,-178.87474060058594,9.61525058746338,0.45787245035172,-0.90436863899231,23.50064659118652,-4.61646175384521,2.90059280395508
334,2088302960,170.69429016113281,-85.11837768554688,-179.58178710937500,9.24326992034912,0.71311992406845,-1.38894259929657,25.76840019226074,-6.44594478607178,2.72655558586121
335,2088319627,171.44543457031250,-85.00656890869141,-179.95108032226562,9.20952987670898,0.89090758562088,-1.54996311664581,24.04786682128906,-6.42290353775024,1.16888928413391
336,2088336294,171.59587097167969,-84.95919799804688,-179.96173095703125,9.54342842102051,0.77324759960175,-1.33774745464325,9.93981647491455,-2.32736873626709,-0.08177496492863
337,2088352961,171.49293518066406,-85.01469421386719,-179.86039733886719,9.94943046569824,0.20280350744724,-1.21075189113617,2.03042101860046,3.88766169548035,0.19637255370617
338,2088369628,171.14288330078125,-85.16519927978516,-179.57676696777344,10.06061840057373,0.42082932591438,-0.93938630819321,-3.74039697647095,9.63868999481201,0.31194996833801
339,2088386295,170.82624816894531,-85.39066314697266,-179.37940979003906,10.31356048583984,-0.60785412788391,-1.16121029853821,-5.91973352432251,13.98820877075195,1.46170520782471
340,2088402962,170.66157531738281,-85.66894531250000,-179.28869628906250,10.66572189331055,-0.71549254655838,-0.92849010229111,-1.97057282924652,17.03896903991699,2.47842812538147
341,2088419629,170.25978088378906,-85.96599578857422,-178.84440612792969,10.19058799743652,-0.46636557579041,-0.75611352920532,3.12838959693909,18.36139297485352,1.38111519813538
342,2088436296,169.44529724121094,-86.26278686523438,-178.05743408203125,9.91227436065674,0.18350003659725,-0.46710577607155,0.59461236000061,18.57496833801270,0.21330282092094
343,2088452963,168.22090148925781,-86.54334259033203,-176.96017456054688,9.65067958831787,0.22712902724743,-0.41181975603104,-6.45223808288574,17.79457283020020,-0.49744406342506
344,2088469630,166.85314941406250,-86.79607391357422,-175.64724731445312,9.73007869720459,0.27417072653770,-0.24748378992081,-2.56497931480408,16.24733924865723,-0.88195484876633
345,2088486297,165.48678588867188,-87.02165222167969,-174.28881835937500,9.81180858612061,0.09458681195974,-0.22225011885166,0.93962818384171,14.67552375793457,-0.75121456384659
346,2088502964,164.36029052734375,-87.20824432373047,-173.08995056152344,9.68033504486084,-0.00357297365554,-0.15928183495998,4.87462472915649,12.21093845367432,-0.26066699624062
347,2088519631,163.20416259765625,-87.35499572753906,-171.88101196289062,9.64049434661865,0.15785785019398,0.04142685607076,4.35125350952148,9.88560962677002,-0.55216521024704
348,2088536298,161.66921997070312,-87.46310424804688,-170.40390014648438,9.72845077514648,0.26440072059631,0.01395005360246,-2.73115277290344,7.85499334335327,-1.55615746974945
349,2088552965,159.84091186523438,-87.52551269531250,-168.70265197753906,9.65377902984619,0.29289400577545,-0.10136682540178,-6.58721065521240,5.49542379379272,-2.68074750900269
350,2088569632,158.06501770019531,-87.54848480224609,-167.11320495605469,9.61850547790527,0.22470586001873,-0.14649692177773,-9.01453971862793,3.27536606788635,-3.07153344154358
351,2088586299,156.69125366210938,-87.54027557373047,-165.88508605957031,9.56758880615234,0.17334480583668,-0.12481250613928,-7.71375894546509,1.25567567348480,-2.79581236839294
352,2088602966,155.58038330078125,-87.51045227050781,-164.90594482421875,9.72221279144287,0.09182130545378,-0.06289101392031,-6.82839107513428,-0.11122956126928,-2.73362445831299
353,2088619633,154.58465576171875,-87.46711730957031,-164.05693054199219,9.81333732604980,0.13848325610161,-0.17802177369595,-6.36975860595703,-0.87644761800766,-2.85323643684387
354,2088636300,153.66819763183594,-87.40656280517578,-163.25695800781250,9.75938701629639,0.10179526358843,-0.34520033001900,-5.52018451690674,-1.83036696910858,-3.22131609916687
355,2088652967,152.88008117675781,-87.33113098144531,-162.53866577148438,9.66480827331543,0.21784617006779,-0.31102553009987,-5.48825836181641,-2.68251490592957,-3.38366270065308
356,2088669634,152.10209655761719,-87.25034332275391,-161.88241577148438,9.67706203460693,0.14351302385330,-0.39527490735054,-5.90790987014771,-2.92753863334656,-3.58461999893188
357,2088686301,151.49414062500000,-87.16524505615234,-161.39549255371094,9.73003292083740,0.16426950693130,-0.45577833056450,-4.83353376388550,-3.28253078460693,-3.39910674095154
358,2088702968,150.93803405761719,-87.08388519287109,-160.92724609375000,9.72316455841064,0.27282589673996,-0.51223474740982,-3.86652565002441,-3.08806633949280,-3.27941846847534
359,2088719635,150.33976745605469,-87.00533294677734,-160.40600585937500,9.72222232818604,0.20951752364635,-0.52791345119476,-3.52514648437500,-2.81532907485962,-3.39988803863525
360,2088736302,149.76480102539062,-86.92584991455078,-159.89514160156250,9.82155323028564,0.37384235858917,-0.46647882461548,-3.03611040115356,-2.82294869422913,-3.45300841331482
361,2088752969,149.11863708496094,-86.84359741210938,-159.31872558593750,9.87285900115967,0.36238646507263,-0.43547931313515,-4.33764553070068,-2.82247519493103,-3.75074338912964
362,2088769636,148.50650024414062,-86.76438903808594,-158.77925109863281,9.86176395416260,0.33724805712700,-0.44932693243027,-3.85187530517578,-2.65197134017944,-3.66312265396118
363,2088786303,148.02401733398438,-86.68973541259766,-158.36244201660156,9.77268314361572,0.31994727253914,-0.48643535375595,-2.99857497215271,-2.56820487976074,-3.24817109107971
364,2088802970,147.67149353027344,-86.61325836181641,-158.03848266601562,9.76365947723389,0.33752119541168,-0.41644620895386,-1.65451002120972,-2.78855085372925,-3.01878356933594
365,2088819637,147.40730285644531,-86.53468322753906,-157.81893920898438,9.73398303985596,0.30110943317413,-0.38702875375748,-1.73387122154236,-3.06533479690552,-2.86902618408203
366,2088836304,147.27569580078125,-86.44355773925781,-157.74615478515625,9.76980113983154,0.42076680064201,-0.36230677366257,-2.29248404502869,-3.95504283905029,-2.85979223251343
367,2088852971,147.10435485839844,-86.34135437011719,-157.68780517578125,9.79426288604736,0.43266338109970,-0.30185583233833,-4.94840669631958,-4.51420783996582,-3.22524809837341
368,2088869638,146.59791564941406,-86.25341033935547,-157.34858703613281,9.77827453613281,0.36187404394150,-0.37200883030891,-9.09156990051270,-3.20159482955933,-3.65601587295532
369,2088886305,146.09352111816406,-86.16211700439453,-156.98313903808594,9.71257591247559,0.32414683699608,-0.47370889782906,-8.31254768371582,-3.29551672935486,-3.86465716362000
370,2088902972,145.62121582031250,-86.06319427490234,-156.67182922363281,9.73366737365723,0.49569267034531,-0.41710495948792,-8.83489227294922,-3.71205639839172,-4.04441976547241
371,2088919639,144.92019653320312,-85.97036743164062,-156.19429016113281,9.79787540435791,0.42999374866486,-0.57848048210144,-12.40961074829102,-2.94832491874695,-4.48657321929932
372,2088936306,144.45286560058594,-85.87545776367188,-155.88053894042969,9.78431701660156,0.21369469165802,-0.78898847103119,-7.98717546463013,-3.36920428276062,-4.07177400588989
373,2088952973,144.06341552734375,-85.78559875488281,-155.57142639160156,9.74426937103271,0.37525966763496,-0.66218900680542,-4.40659523010254,-3.11476707458496,-3.88203358650208
374,2088969640,143.36505126953125,-85.72882080078125,-154.99578857421875,9.85180568695068,0.53479695320129,-0.58237802982330,-6.64199495315552,-0.76144641637802,-3.74831056594849
375,2088986307,142.07611083984375,-85.71531677246094,-153.93345642089844,9.82981395721436,0.53469294309616,-0.66263389587402,-12.32159519195557,2.75338006019592,-3.97417855262756
376,2089002974,140.92027282714844,-85.69557189941406,-152.94068908691406,9.74833393096924,0.35466927289963,-0.80981492996216,-8.54619789123535,2.35638189315796,-3.93126225471497
377,2089019641,139.93708801269531,-85.67355346679688,-152.04940795898438,9.82140159606934,0.48683163523674,-0.58999353647232,-4.36535930633545,2.05147504806519,-3.63686990737915
378,2089036308,138.44715881347656,-85.69329833984375,-150.69714355468750,9.81496334075928,0.60174036026001,-0.52651643753052,-8.18085956573486,5.34420680999756,-3.48903369903564
379,2089052975,137.11378479003906,-85.69934844970703,-149.50218200683594,9.73409366607666,0.49207851290703,-0.66318202018738,-7.35666704177856,4.37726259231567,-3.43262100219727
380,2089069642,135.94827270507812,-85.69725799560547,-148.44667053222656,9.78058147430420,0.56286239624023,-0.35506966710091,-5.58257770538330,3.67875313758850,-3.22278904914856
381,2089086309,134.44848632812500,-85.70632171630859,-147.14523315429688,9.64650058746338,0.39359852671623,-0.48415067791939,-10.86429214477539,5.01194667816162,-3.46376729011536
382,2089102976,133.37069702148438,-85.68920135498047,-146.17961120605469,9.74600410461426,0.39923685789108,-0.42895644903183,-5.78157424926758,2.90551757812500,-3.44675874710083
383,2089119643,132.54142761230469,-85.65148162841797,-145.42642211914062,9.78298854827881,0.55239725112915,-0.46440929174423,-3.56201601028442,1.46020591259003,-3.65660381317139
384,2089136310,131.90406799316406,-85.60559844970703,-144.83027648925781,9.82749652862549,0.61925542354584,-0.46687275171280,-1.37059342861176,0.65840017795563,-3.56866288185120
385,2089152977,130.68312072753906,-85.58465576171875,-143.73519897460938,9.87282943725586,0.63656389713287,-0.41900792717934,-6.57532501220703,3.46418237686157,-3.95985865592957
386,2089169644,128.74234008789062,-85.59829711914062,-141.98033142089844,9.85305690765381,0.65117007493973,-0.36840906739235,-10.32033061981201,7.24212408065796,-4.23741292953491
387,2089186311,126.63433074951172,-85.61363220214844,-140.08232116699219,9.85966396331787,0.71327286958694,-0.16076023876667,-11.77846240997314,7.97289371490479,-4.29084062576294
388,2089202978,122.80516052246094,-85.69065856933594,-136.72860717773438,9.76599121093750,0.71294164657593,-0.30474954843521,-27.99101066589355,15.66664028167725,-4.58965253829956
389,2089219645,119.47097778320312,-85.71582031250000,-133.80128479003906,9.60291671752930,0.50353062152863,-0.56045669317245,-23.77837562561035,12.54029273986816,-5.21398448944092
390,2089236312,117.28063201904297,-85.68666076660156,-131.87936401367188,9.60543537139893,0.57259303331375,-0.42130225896835,-15.32100105285645,7.27379560470581,-5.32966852188110
391,2089252979,116.20240783691406,-85.61505889892578,-130.98381042480469,9.61583518981934,0.55163985490799,-0.28844600915909,-9.98054981231689,2.20568966865540,-5.34723615646362
392,2089269646,115.91691589355469,-85.52084350585938,-130.81997680664062,9.64190483093262,0.62251943349838,-0.20625858008862,-6.20581102371216,-1.30770134925842,-5.09090280532837
393,2089286313,116.26491546630859,-85.40692901611328,-131.21377563476562,9.69645786285400,0.56089621782303,-0.20470841228962,-1.55237936973572,-4.19256210327148,-4.99156284332275
394,2089302980,116.94496917724609,-85.27946472167969,-131.86889648437500,9.79951190948486,0.57955789566040,-0.16368751227856,2.75504326820374,-5.78741502761841,-5.08470487594604
395,2089319647,116.92466735839844,-85.17305755615234,-131.90983581542969,9.64664268493652,0.81882685422897,-0.21070581674576,-2.53718829154968,-2.58416175842285,-5.27941226959229
396,2089336314,116.36334228515625,-85.07554626464844,-131.54249572753906,9.76179218292236,0.94269400835037,0.00084195414092,-10.59102916717529,-0.44835692644119,-5.73594713211060
397,2089352981,115.43552398681641,-84.97036743164062,-130.92405700683594,9.57526397705078,0.78651398420334,-0.37888181209564,-17.57623291015625,0.62888228893280,-6.76987504959106
398,2089369648,115.08277130126953,-84.85166931152344,-130.77798461914062,9.61214637756348,0.65676820278168,-0.39022389054298,-11.30877494812012,-1.84129154682159,-6.44722604751587
399,2089386315,115.37277221679688,-84.71098327636719,-131.19981384277344,9.67009925842285,0.83317452669144,-0.28852346539497,-6.67621564865112,-5.19327783584595,-6.33606576919556
400,2089402982,116.02252960205078,-84.55446624755859,-131.95018005371094,9.68479633331299,0.68094259500504,-0.28075227141380,-4.71723937988281,-7.37213754653931,-6.30033540725708
401,2089419649,117.04530334472656,-84.38874053955078,-132.98548889160156,9.66879558563232,0.69144123792648,-0.51080077886581,0.66514921188354,-9.31077671051025,-5.90228891372681
402,2089436316,118.53376770019531,-84.21033477783203,-134.40402221679688,9.71554088592529,0.74804532527924,-0.65662586688995,5.74547100067139,-11.98445415496826,-5.20621395111084
403,2089452983,120.31991577148438,-84.01751708984375,-136.05554199218750,9.75773143768311,0.88907504081726,-0.54542350769043,9.72524356842041,-14.04306983947754,-4.75351142883301
404,2089469650,121.00516510009766,-83.88019561767578,-136.72276306152344,9.85390949249268,1.19747090339661,-0.28429621458054,2.43241310119629,-7.34516668319702,-4.61743927001953
405,2089486317,121.38848876953125,-83.74693298339844,-137.17605590820312,9.71357536315918,1.10757017135620,-0.58845400810242,-2.91374564170837,-6.15706968307495,-4.99828720092773
406,2089502984,121.94645690917969,-83.60484313964844,-137.76043701171875,9.70436477661133,0.87482935190201,-0.49870032072067,-0.24682319164276,-7.27255344390869,-4.90481328964233
407,2089519651,122.61124420166016,-83.45195770263672,-138.42758178710938,9.64186477661133,0.86928820610046,-0.50376242399216,1.23480153083801,-8.22121143341064,-5.02051925659180
408,2089536318,123.49236297607422,-83.28650665283203,-139.29264831542969,9.65782737731934,0.86946421861649,-0.54844814538956,2.44109630584717,-9.94870090484619,-4.73154497146606
409,2089552985,124.59444427490234,-83.09291839599609,-140.38642883300781,9.68958282470703,1.04421830177307,-0.41102778911591,2.08792281150818,-12.46174430847168,-4.94405412673950
410,2089569652,125.96777343750000,-82.86482238769531,-141.74592590332031,9.63114738464355,1.04270172119141,-0.46885928511620,2.57091546058655,-15.55577850341797,-5.09084224700928
411,2089586319,127.53765106201172,-82.60442352294922,-143.30401611328125,9.64313602447510,1.05018937587738,-0.52107095718384,2.58364582061768,-18.33896446228027,-5.12644577026367
412,2089602986,129.00701904296875,-82.33701324462891,-144.73870849609375,9.67321491241455,1.05323958396912,-0.73168933391571,3.94413042068481,-18.29405403137207,-5.27361679077148
413,2089619653,130.22174072265625,-82.08135986328125,-145.95837402343750,9.72974395751953,1.17034673690796,-0.82522022724152,1.50638675689697,-16.93594551086426,-5.17042112350464
414,2089636320,131.03498840332031,-81.85042572021484,-146.87176513671875,9.72266387939453,1.19017684459686,-0.83358383178711,-4.34516620635986,-14.34391117095947,-5.20384550094604
415,2089652987,131.53573608398438,-81.65261077880859,-147.48121643066406,9.71281909942627,0.86224210262299,-1.15939557552338,-5.01676893234253,-11.28495597839355,-5.13679027557373
416,2089669654,131.81539916992188,-81.48366546630859,-147.85017395019531,9.65972995758057,0.91227823495865,-1.15700232982635,-3.99156761169434,-8.67824459075928,-5.09594917297363
417,2089686321,131.99295043945312,-81.33014678955078,-148.02845764160156,9.81599330902100,0.30169498920441,-1.27028489112854,1.20708847045898,-6.85037994384766,-5.46945905685425
418,2089702988,132.14198303222656,-81.18675994873047,-148.05688476562500,9.81926536560059,0.73342639207840,-1.02268064022064,8.38396263122559,-5.46638679504395,-5.89700078964233
419,2089719655,131.89172363281250,-81.07931518554688,-147.75498962402344,9.92498111724854,0.91652834415436,-1.03386461734772,4.00939941406250,-1.75078821182251,-6.34303092956543
420,2089736322,131.51710510253906,-81.00885772705078,-147.30082702636719,9.73810958862305,0.88434767723083,-1.45341527462006,5.56406545639038,0.84671759605408,-5.66335916519165
421,2089752989,131.15730285644531,-80.96695709228516,-146.74295043945312,9.76077842712402,1.12940943241119,-1.18688714504242,12.59573173522949,2.76545619964600,-5.03898811340332
422,2089769656,130.76991271972656,-80.93598937988281,-146.15837097167969,9.70871353149414,1.78347849845886,-1.11139631271362,12.52323436737061,3.43962097167969,-4.70671367645264
423,2089786323,130.37521362304688,-80.91725921630859,-145.65415954589844,9.72927856445312,1.62380015850067,-1.11584746837616,7.31801176071167,3.38372039794922,-3.64281177520752
424,2089802990,129.68504333496094,-80.94874572753906,-144.86236572265625,10.06669330596924,1.50680911540985,-0.68467152118683,6.63270521163940,7.43974876403809,-3.05605053901672
425,2089819657,128.40841674804688,-81.05126190185547,-143.54698181152344,9.83384227752686,1.62204992771149,-0.97974252700806,2.47856855392456,13.95095348358154,-2.69009757041931
426,2089836324,126.92302703857422,-81.18279266357422,-142.06065368652344,9.65624141693115,1.33177161216736,-0.92103415727615,0.10329611599445,16.21158599853516,-1.85585308074951
427,2089852991,125.50165557861328,-81.32004547119141,-140.56999206542969,9.51013755798340,0.76953405141830,-0.82058453559875,4.24852371215820,16.33023643493652,-1.08325815200806
428,2089869658,124.66920471191406,-81.39926910400391,-139.54092407226562,9.58404922485352,0.75619179010391,-0.50933229923248,12.21655082702637,10.81422901153564,-1.12711989879608
429,2089886325,124.55728149414062,-81.40139007568359,-139.15727233886719,9.48019027709961,1.30392789840698,-0.50980138778687,17.16488456726074,3.39300775527954,-1.53656530380249
430,2089902992,124.72805023193359,-81.35430145263672,-139.25950622558594,9.45917701721191,1.75160467624664,-0.30535608530045,5.30984640121460,-1.87366545200348,-1.48641407489777
431,2089919659,124.55269622802734,-81.31979370117188,-139.16972351074219,9.92247486114502,1.30851066112518,0.18729433417320,-4.05958080291748,-0.02114968560636,-1.85066497325897
432,2089936326,123.27133941650391,-81.38313293457031,-137.95831298828125,9.64011573791504,0.86329925060272,-0.30724042654037,-3.91150307655334,11.67716789245605,-2.62940740585327
433,2089952993,122.89888763427734,-81.35039520263672,-137.50874328613281,9.36908149719238,1.31846022605896,-0.52709025144577,5.45332908630371,2.81104540824890,-3.53756904602051
434,2089969660,123.31353759765625,-81.23586273193359,-137.87066650390625,9.47343826293945,1.02707064151764,-0.78164821863174,4.55649995803833,-6.02224445343018,-3.64760112762451
435,2089986327,124.57664489746094,-81.07170104980469,-138.87333679199219,9.71349620819092,0.63271862268448,-1.06435906887054,17.45864486694336,-12.69161987304688,-2.68499016761780
436,2090002994,126.66393280029297,-80.86864471435547,-140.38900756835938,9.64533805847168,1.26897859573364,-0.80692338943481,36.54838180541992,-18.21054840087891,-1.26873886585236
437,2090019661,128.84269714355469,-80.60961914062500,-142.17538452148438,9.32637596130371,2.29466748237610,-0.79042232036591,26.06706237792969,-22.66535377502441,-1.40577816963196
438,2090036328,131.18646240234375,-80.28323364257812,-144.29550170898438,9.32372665405273,1.65186858177185,-1.32627511024475,16.28811073303223,-28.27745246887207,-1.09704077243805
439,2090052995,133.79327392578125,-79.89611816406250,-146.57394409179688,9.56602859497070,1.28062999248505,-1.33882176876068,22.86540222167969,-32.54964828491211,-0.90889084339142
440,2090069662,136.12887573242188,-79.49404907226562,-148.62110900878906,9.65785026550293,1.46763443946838,-1.17748367786407,20.41109657287598,-32.10169982910156,-1.21557867527008
441,2090086329,137.80604553222656,-79.12295532226562,-150.29241943359375,9.72519016265869,1.40313613414764,-1.20201778411865,3.22189474105835,-28.47982215881348,-1.27153968811035
442,2090102996,138.79672241210938,-78.86791992187500,-151.31254577636719,9.94222831726074,0.98640447854996,-1.24284422397614,0.48507949709892,-18.71333312988281,-1.13677620887756
443,2090119663,139.60096740722656,-78.65534973144531,-152.09642028808594,9.66230678558350,1.20885372161865,-1.33579945564270,3.25282883644104,-15.15429973602295,-1.07383251190186
444,2090136330,140.47007751464844,-78.42565155029297,-152.91644287109375,9.55343532562256,1.29179930686951,-1.29184639453888,5.05408239364624,-16.35530662536621,-1.04108691215515
445,2090152997,141.16314697265625,-78.17801666259766,-153.67793273925781,9.54492759704590,1.59719693660736,-1.43639147281647,-2.02797079086304,-16.88036537170410,-1.88551259040833
446,2090169664,141.82907104492188,-77.92953491210938,-154.42237854003906,9.59006214141846,1.21083343029022,-1.73181474208832,-2.61337518692017,-16.93707466125488,-1.72802019119263
447,2090186331,142.66542053222656,-77.67190551757812,-155.22212219238281,9.53143310546875,1.42229700088501,-1.61509203910828,4.40978145599365,-17.94104194641113,-1.12622368335724
448,2090202998,143.50613403320312,-77.39662933349609,-156.05497741699219,9.40328121185303,1.19919443130493,-1.66700768470764,2.77790594100952,-19.19522666931152,-0.97458368539810
449,2090219665,144.37568664550781,-77.09746551513672,-156.89663696289062,9.51731014251709,1.32566416263580,-1.57384681701660,4.05073070526123,-20.58834266662598,-1.23644840717316
450,2090236332,145.21835327148438,-76.78361511230469,-157.72123718261719,9.52056026458740,1.53185510635376,-1.51637744903564,3.48787832260132,-21.34172821044922,-1.39857721328735
451,2090252999,146.00233459472656,-76.45230102539062,-158.50952148437500,9.52510452270508,1.31928741931915,-1.76138150691986,2.15578627586365,-22.09943580627441,-1.87398850917816
452,2090269666,146.80462646484375,-76.09683227539062,-159.31350708007812,9.44987487792969,1.59527027606964,-1.57657635211945,2.40827727317810,-23.61254310607910,-1.94911098480225
453,2090286333,147.50538635253906,-75.72792816162109,-160.09941101074219,9.45377349853516,1.51082921028137,-1.69249665737152,-2.56039834022522,-24.33624649047852,-2.04332804679871
454,2090303000,148.27597045898438,-75.33106231689453,-160.91296386718750,9.32878112792969,0.76450473070145,-1.95534718036652,0.09890367835760,-26.16689682006836,-2.00443530082703
455,2090319667,149.21110534667969,-74.88560485839844,-161.76232910156250,9.35201930999756,1.24859178066254,-1.59483778476715,7.98707818984985,-29.15459060668945,-2.35020995140076
456,2090336334,149.93887329101562,-74.40564727783203,-162.60159301757812,9.50424289703369,1.23355197906494,-1.81256532669067,-3.76183342933655,-31.09961318969727,-2.76653361320496
457,2090353001,150.73524475097656,-73.90283203125000,-163.44429016113281,9.42497348785400,0.99950975179672,-2.16017127037048,0.27041989564896,-32.56207656860352,-2.61354875564575
458,2090369668,151.58792114257812,-73.37069702148438,-164.25801086425781,9.34413528442383,1.07466793060303,-2.31402206420898,5.44169712066650,-34.11771011352539,-3.03117966651917
459,2090386335,152.38621520996094,-72.81389617919922,-165.04969787597656,9.29794406890869,1.42787933349609,-2.16589951515198,3.58006930351257,-35.49586868286133,-3.17660999298096
460,2090403002,153.12239074707031,-72.22525024414062,-165.82685852050781,9.30147647857666,1.34155583381653,-2.24913096427917,0.82404136657715,-37.32912063598633,-3.39807271957397
461,2090419669,153.86087036132812,-71.61079406738281,-166.57194519042969,9.39120864868164,1.19909870624542,-2.47046589851379,2.93948268890381,-38.69854354858398,-3.71965622901917
462,2090436336,154.55216979980469,-70.98277282714844,-167.28199768066406,9.58413028717041,1.19526445865631,-2.69113445281982,2.25419926643372,-39.38816833496094,-3.77775979042053
463,2090453003,155.27494812011719,-70.34767150878906,-167.95689392089844,9.38685703277588,0.95947486162186,-2.97702074050903,6.28826189041138,-39.71239852905273,-3.69682407379150
464,2090469670,155.98681640625000,-69.70355987548828,-168.60612487792969,9.43996524810791,1.20497667789459,-2.96924138069153,7.22949600219727,-40.20895004272461,-3.50856971740723
465,2090486337,156.68096923828125,-69.05250549316406,-169.23741149902344,9.47814559936523,1.32619285583496,-2.94955682754517,7.32738876342773,-40.65048599243164,-3.14651989936829
466,2090503004,157.27505493164062,-68.41239929199219,-169.82885742187500,9.35680389404297,1.41996419429779,-3.32328510284424,3.70448851585388,-39.89816284179688,-2.85795187950134
467,2090519671,157.84085083007812,-67.78370666503906,-170.40322875976562,9.38819885253906,1.23991036415100,-3.63105893135071,3.10457062721252,-39.28990554809570,-2.20417070388794
468,2090536338,158.52902221679688,-67.13698577880859,-170.97270202636719,9.86747932434082,1.34681975841522,-3.53137707710266,10.85969829559326,-40.41000366210938,-1.94562292098999
469,2090553005,159.36167907714844,-66.43658447265625,-171.54167175292969,10.20207595825195,1.34054565429688,-3.09800481796265,19.70915603637695,-43.57062530517578,-2.22410297393799
470,2090569672,160.36489868164062,-65.62702941894531,-172.11810302734375,10.54971218109131,1.34388780593872,-2.25544786453247,29.71527481079102,-49.95867919921875,-3.21578311920166
471,2090586339,161.42958068847656,-64.59566497802734,-172.68505859375000,11.48133659362793,0.80223625898361,-1.52694582939148,34.14977264404297,-62.68134307861328,-6.40859889984131
472,2090603006,162.73181152343750,-63.21209716796875,-173.31906127929688,12.51003074645996,-0.33792775869370,-0.72402042150497,45.09642791748047,-83.65811157226562,-9.30650043487549
473,2090619673,164.25009155273438,-61.35126495361328,-173.95118713378906,15.06305313110352,-0.67321056127548,1.17105007171631,58.64099884033203,-111.59261322021484,-14.50206089019775
474,2090636340,165.76867675781250,-59.08292770385742,-174.46272277832031,19.50459861755371,-1.62065887451172,4.97670030593872,65.58901977539062,-134.95462036132812,-20.16781806945801
475,2090653007,165.69372558593750,-56.79676818847656,-174.10830688476562,24.14451408386230,-1.05054748058319,11.69619083404541,14.65559673309326,-129.71948242187500,-44.44737625122070
476,2090669674,165.62359619140625,-53.38930130004883,-173.40113830566406,22.43056488037109,2.43043446540833,1.09034585952759,31.72631454467773,-191.65698242187500,-73.87084197998047
477,2090686341,165.10711669921875,-48.64919662475586,-173.60253906250000,23.99036216735840,6.97884368896484,-8.64876937866211,-39.23234939575195,-276.71838378906250,-64.20510864257812
478,2090703008,163.68241882324219,-44.00510406494141,-173.82469177246094,18.59675407409668,-0.86278778314590,-13.97378349304199,-93.93698883056641,-270.48889160156250,-65.79669952392578
479,2090719675,166.12545776367188,-39.59545898437500,-173.76960754394531,10.71036148071289,-1.33036959171295,-11.86079692840576,149.84442138671875,-254.45823669433594,-71.00259399414062
480,2090736342,169.93966674804688,-35.85009002685547,-173.52622985839844,3.89526152610779,-3.36837172508240,-1.11717355251312,238.83158874511719,-217.12133789062500,-57.62181091308594
481,2090753009,173.89729309082031,-33.05376052856445,-173.05697631835938,-3.96855735778809,-0.30788356065750,8.32060050964355,254.45957946777344,-162.52719116210938,-46.28962326049805
482,2090769676,176.27194213867188,-31.66460990905762,-172.31750488281250,-8.98745536804199,-1.36375260353088,17.39859962463379,167.34249877929688,-79.48435211181641,-44.18001556396484
483,2090786343,178.19010925292969,-31.72840881347656,-171.40859985351562,-11.47021484375000,-0.64000892639160,24.18168449401855,144.87112426757812,6.41272544860840,-45.85407257080078
484,2090803010,178.70753479003906,-33.37151718139648,-170.47593688964844,-13.27775955200195,0.05916810035706,29.13827323913574,62.28643417358398,100.16756439208984,-44.17311859130859
485,2090819677,177.99836730957031,-36.50920867919922,-169.82141113281250,-15.64666175842285,-3.89841127395630,27.28009414672852,-18.90584373474121,189.43899536132812,-26.45681190490723
486,2090836344,177.15673828125000,-40.95747756958008,-169.52595520019531,-15.44268989562988,-6.50876808166504,23.05281448364258,-38.24213409423828,267.56878662109375,-2.22733521461487
487,2090853011,176.59797668457031,-46.36009979248047,-169.63619995117188,-13.76061534881592,-4.51648139953613,15.55020999908447,-36.94055938720703,323.73733520507812,22.74165534973145
488,2090869678,176.08518981933594,-52.32836151123047,-170.33491516113281,-12.24145221710205,-2.53919792175293,5.95706272125244,-61.43559265136719,355.93707275390625,50.41775894165039
489,2090886345,176.05941772460938,-58.48988342285156,-171.72467041015625,-8.72933959960938,0.08816877007484,-3.69871163368225,-69.10331726074219,365.88204956054688,72.86392974853516
490,2090903012,175.77015686035156,-64.55912780761719,-173.68885803222656,-0.45177054405212,3.28052067756653,-10.01079559326172,-119.85728454589844,359.52563476562500,82.29882049560547
491,2090919679,176.65942382812500,-70.02514648437500,-176.31068420410156,11.78271389007568,5.29148912429810,-15.39595508575439,-90.73235321044922,323.50808715820312,82.54662322998047
492,2090936346,177.87849426269531,-74.05394744873047,179.74180603027344,22.71005439758301,14.70826244354248,-18.63663673400879,-151.11802673339844,238.21498107910156,84.76377868652344
493,2090953013,178.28091430664062,-76.38915252685547,174.56967163085938,18.89911842346191,9.99986743927002,-16.93906211853027,-274.80172729492188,137.66206359863281,84.11788177490234
494,2090969680,179.76812744140625,-77.21965026855469,170.77392578125000,12.44390678405762,4.19983005523682,-12.32807826995850,-131.36503601074219,49.32051849365234,53.14354324340820
495,2090986347,-178.35539245605469,-77.04062652587891,169.14582824707031,9.66299247741699,4.90028381347656,-5.77714443206787,18.48649978637695,-10.03934669494629,22.21265792846680
496,2091003014,-178.28759765625000,-74.67755889892578,168.97604370117188,7.68607330322266,13.21403980255127,-105.31297302246094,-4.67878961563110,-141.19134521484375,6.97033405303955
497,2091019681,-173.76611328125000,-64.52909088134766,173.09109497070312,66.77242279052734,64.79898071289062,62.38161468505859,503.41030883789062,-612.94793701171875,-43.47686004638672
498,2091036348,172.85783386230469,-61.73810958862305,173.21998596191406,16.65704727172852,-44.05915832519531,-16.53136253356934,-794.28875732421875,-167.27389526367188,-4.40415239334106
499,2091053015,-178.60047912597656,-57.93236160278320,169.45213317871094,93.59616088867188,-44.96113204956055,1.70418167114258,317.92373657226562,-233.17880249023438,102.42828369140625
500,2091069682,-177.16191101074219,-55.12310409545898,167.81689453125000,-0.48291057348251,44.63037109375000,-10.97850227355957,5.56731557846069,-165.91790771484375,60.61187744140625
501,2091086349,-175.69462585449219,-52.93883895874023,167.31158447265625,-12.39433765411377,-25.11777877807617,-17.94498443603516,64.65060424804688,-129.18450927734375,26.29431533813477
502,2091103016,-175.72219848632812,-51.63710403442383,166.88629150390625,-8.53460502624512,3.26203513145447,-8.86459732055664,-20.70059013366699,-76.20043182373047,21.73341369628906
503,2091119683,-173.99006652832031,-50.50348663330078,165.72860717773438,-1.65853822231293,-2.46896076202393,-10.20086097717285,51.02863693237305,-63.30693435668945,49.89604568481445
504,2091136350,-172.93611145019531,-49.53216171264648,164.30909729003906,8.02025032043457,-2.40455198287964,-7.95308685302734,-0.88539338111877,-51.14275360107422,61.32505798339844
505,2091153017,-172.77427673339844,-48.85357666015625,163.36961364746094,15.50264644622803,-1.48729801177979,-8.60405254364014,-31.81607627868652,-35.29521560668945,41.93704605102539
506,2091169684,-172.43446350097656,-48.49793624877930,162.56262207031250,19.02964591979980,-5.38144731521606,-9.23784542083740,-14.83243751525879,-16.52826499938965,34.77200317382812
507,2091186351,-172.29750061035156,-48.34941864013672,161.89384460449219,11.34595012664795,-4.31702041625977,-8.83542060852051,-20.66093826293945,-4.78272533416748,27.89293098449707
508,2091203018,-172.74345397949219,-48.42720794677734,161.57234191894531,4.99620056152344,-3.54316329956055,-8.44382381439209,-40.04654693603516,6.80227661132812,12.40838050842285
509,2091219685,-173.84410095214844,-48.88753890991211,161.49922180175781,4.85557794570923,-2.05742835998535,-8.52552700042725,-68.20080566406250,28.27823257446289,-0.03475069999695
510,2091236352,-175.29705810546875,-49.79233169555664,161.52017211914062,8.87260818481445,-4.14290618896484,-10.04709911346436,-85.09170532226562,54.47749328613281,-5.63978004455566
511,2091253019,-175.25103759765625,-51.06129837036133,161.49156188964844,12.51992225646973,-0.36348301172256,-9.42819118499756,2.56105422973633,76.47476196289062,-4.87515211105347
512,2091269686,-176.13272094726562,-52.99638366699219,161.53155517578125,13.71602344512939,-0.56151139736176,-9.47262477874756,-49.87736511230469,116.16807556152344,-9.88600540161133
513,2091286353,-176.60546875000000,-55.69459533691406,161.34138488769531,15.01456260681152,-2.15378546714783,-10.17903137207031,-36.50336074829102,162.48677062988281,-3.30616068840027
514,2091303020,-177.42002868652344,-59.55693435668945,161.03848266601562,17.01270103454590,-2.90060520172119,-13.51070976257324,-63.07951736450195,232.42645263671875,-2.05079889297485
515,2091319687,-177.20755004882812,-64.74380493164062,160.44293212890625,23.85626029968262,-4.87908124923706,-14.76919269561768,-17.74017143249512,312.13171386718750,2.39679121971130
516,2091336354,-174.64022827148438,-72.07680511474609,158.57757568359375,39.43431472778320,-8.30972385406494,-12.01395416259766,50.81149291992188,442.20501708984375,10.13224029541016
517,2091353021,-158.78190612792969,-81.05934906005859,145.03900146484375,62.09894943237305,-16.39842224121094,-3.62739992141724,159.56723022460938,564.69366455078125,60.71434402465820
518,2091369688,-79.54736328125000,-84.59647369384766,72.43543243408203,44.05602264404297,4.67883443832397,-23.29060554504395,422.27658081054688,528.59851074218750,98.96144104003906
519,2091386355,-50.91251373291016,-83.81607055664062,37.25792312622070,-17.46796607971191,43.71225357055664,-6.17695426940918,-381.24655151367188,209.86999511718750,-47.17311096191406
520,2091403022,-64.08531188964844,-85.04346466064453,57.89890670776367,-18.04749298095703,-13.08929252624512,-22.72919273376465,443.50744628906250,-139.45288085937500,3.57303023338318
521,2091419689,-118.54548645019531,-84.85136413574219,111.10723114013672,1.51843488216400,11.98499679565430,1.16783440113068,-84.63461303710938,-271.16680908203125,4.35534667968750
522,2091436356,-146.91992187500000,-81.68157196044922,141.44274902343750,5.32472276687622,-4.73376941680908,4.47466850280762,107.39708709716797,-279.08261108398438,-8.13484764099121
523,2091453023,-160.17591857910156,-79.30280303955078,154.88635253906250,7.32802057266235,7.72580718994141,19.68784332275391,1.56830704212189,-185.62474060058594,-55.60343170166016
524,2091469690,-166.44262695312500,-78.95725250244141,158.92314147949219,2.90801978111267,-6.43407630920410,15.50471496582031,-136.99554443359375,-32.48061752319336,-37.46602249145508
525,2091486357,-165.69752502441406,-80.38100433349609,157.12049865722656,3.55120301246643,-3.70421552658081,6.67397594451904,-60.56670379638672,88.04248809814453,-1.40543174743652
526,2091503024,-156.27859497070312,-82.43533325195312,149.23927307128906,0.73568856716156,-11.22268772125244,3.35769701004028,98.59062194824219,139.70971679687500,27.03716087341309
527,2091519691,-138.45919799804688,-84.46427154541016,135.43247985839844,-1.50726091861725,-4.08155870437622,4.48582315444946,247.05963134765625,153.09526062011719,14.61848354339600
528,2091536358,-113.98627471923828,-85.69970703125000,114.87819671630859,-1.34640192985535,2.69648122787476,1.46945726871490,240.57913208007812,128.49205017089844,3.72164344787598
529,2091553025,-91.04993438720703,-86.07794189453125,93.51016998291016,-1.26703453063965,4.79523134231567,2.00461101531982,98.44438934326172,94.65018463134766,-1.59762656688690
530,2091569692,-74.44474792480469,-85.96289062500000,76.12072753906250,-0.10455057770014,0.67216503620148,0.28269419074059,-43.44397735595703,73.01715087890625,-2.03660058975220
531,2091586359,-64.06507110595703,-85.73966217041016,64.37258911132812,0.79005599021912,-1.77189481258392,-2.10061216354370,-79.14133453369141,52.88183593750000,-5.30269622802734
532,2091603026,-57.50500869750977,-85.49889373779297,56.46329879760742,1.45282530784607,-1.59586751461029,-1.97448658943176,-78.44744110107422,39.18072509765625,-4.82195901870728
533,2091619693,-51.36862564086914,-85.16661071777344,49.29518890380859,1.28874766826630,-2.67271494865417,-1.75099623203278,-59.35086059570312,40.54594802856445,-3.88316750526428
534,2091636360,-45.93355178833008,-84.66641998291016,43.59438705444336,0.89577072858810,-3.01359415054321,-3.08390617370605,-13.47675037384033,43.04587936401367,2.74252510070801
535,2091653027,-41.72376251220703,-84.11373901367188,39.86007308959961,0.26891255378723,-2.26115417480469,-2.64760184288025,30.72598457336426,39.57192230224609,7.42185783386230
536,2091669694,-38.90468597412109,-83.53562164306641,37.74385833740234,-0.10586822032928,-0.98861855268478,-1.94958591461182,44.03683471679688,35.77512741088867,12.29792881011963
537,2091686361,-37.19677352905273,-83.00493621826172,36.72200012207031,-0.30070698261261,-0.69799715280533,-1.70715987682343,42.71593093872070,30.00495910644531,14.25388431549072
538,2091703028,-35.89952468872070,-82.54444122314453,36.28924179077148,-0.70991456508636,-0.80730241537094,-0.89436113834381,53.20471572875977,24.64330482482910,14.11447906494141
539,2091719695,-34.74077224731445,-82.12231445312500,35.87715911865234,-0.21572206914425,0.79738610982895,-0.12509860098362,46.14885330200195,23.07601547241211,12.23508930206299
540,2091736362,-33.72373199462891,-81.72094726562500,35.03003692626953,0.53607571125031,2.14338493347168,0.01572764478624,11.82928466796875,24.44046592712402,7.93021535873413
541,2091753029,-33.27642059326172,-81.35282897949219,34.17510986328125,0.60295075178146,1.71090197563171,-0.58061206340790,-22.76996421813965,23.10048866271973,6.18672037124634
542,2091769696,-33.07922363281250,-81.07953643798828,33.38272094726562,0.49354448914528,1.22826826572418,-0.99344998598099,-34.02399063110352,18.20774078369141,3.18471264839172
543,2091786363,-32.94265365600586,-80.90139007568359,32.60336685180664,0.31733673810959,0.12308830022812,-0.78346651792526,-36.86243057250977,13.47451877593994,-0.02068877033889
544,2091803030,-32.62772369384766,-80.78166961669922,31.89351463317871,-0.34617835283279,-1.12180078029633,-0.67950385808945,-22.02142906188965,10.23506069183350,-1.51135087013245
545,2091819697,-32.66296768188477,-80.78849029541016,31.41247367858887,-0.59866136312485,1.13322353363037,-0.31344643235207,-29.47463035583496,2.67853331565857,-3.81397986412048
546,2091836364,-34.03395843505859,-80.99333190917969,31.40201759338379,-1.00917720794678,1.44957983493805,-0.70310342311859,-81.75212097167969,-9.68410491943359,-6.54005861282349
547,2091853031,-37.37857055664062,-81.42032623291016,32.69694137573242,-0.99159896373749,-0.08351592719555,-1.68799173831940,-122.76852416992188,-27.19633483886719,-4.99392938613892
548,2091869698,-42.71517181396484,-82.08790588378906,36.20079421997070,-1.02287030220032,-3.28997755050659,-3.45117831230164,-111.00551605224609,-49.51213073730469,-2.36226081848145
549,2091886365,-51.08633422851562,-83.05239868164062,43.91716003417969,-1.72057068347931,-4.10965871810913,-3.89012074470520,-42.01720046997070,-82.59632873535156,-0.94186508655548
550,2091903032,-65.80493927001953,-84.10993957519531,58.85542678833008,-1.02342498302460,-3.83238124847412,-3.10037088394165,8.78491973876953,-117.56569671630859,-0.96791923046112
551,2091919699,-97.14225006103516,-84.50685119628906,90.29990386962891,7.92197751998901,-6.74747323989868,-51.11991882324219,-1.27120423316956,-185.73895263671875,5.03664588928223
552,2091936366,-157.23150634765625,-76.61498260498047,161.07594299316406,46.85736083984375,62.53057479858398,2.39588356018066,603.33435058593750,-755.35498046875000,-87.62590026855469
553,2091953033,176.84889221191406,-74.26376342773438,167.08456420898438,20.93766212463379,-25.38822174072266,29.49754333496094,-1204.71398925781250,-154.49084472656250,-65.26145935058594
554,2091969700,-172.00564575195312,-68.79015350341797,166.26086425781250,103.97626495361328,-18.29027557373047,22.57493400573730,622.42987060546875,-327.34136962890625,29.90192604064941
555,2091986367,-177.82212829589844,-65.47107696533203,166.28347778320312,13.46765899658203,-3.80102157592773,-20.66277885437012,-346.49539184570312,-197.97595214843750,17.44883728027344
556,2092003034,178.36132812500000,-63.35963439941406,166.84526062011719,5.57160377502441,-5.30154657363892,-15.53059768676758,-197.42893981933594,-126.25741577148438,-13.64916801452637
557,2092019701,-178.88641357421875,-63.39713287353516,167.56594848632812,-16.45084381103516,-5.44658708572388,-19.53351211547852,204.91082763671875,2.84292197227478,-19.06287765502930
558,2092036368,-179.06513977050781,-64.98907470703125,169.24931335449219,3.84557271003723,-3.01071190834045,-13.90350246429443,81.32352447509766,95.21482849121094,-45.37269210815430
559,2092053035,-179.10676574707031,-67.21403503417969,170.18951416015625,8.71558952331543,-8.59091663360596,-13.16264820098877,50.19791030883789,133.61546325683594,-24.68693923950195
560,2092069702,-178.66621398925781,-69.59114837646484,169.30114746093750,11.75154304504395,3.56613731384277,-7.13294696807861,-22.01653480529785,143.47885131835938,17.13069152832031
561,2092086369,-178.90750122070312,-72.12606811523438,167.74568176269531,12.09472846984863,3.93573164939880,-5.66003656387329,-101.52548980712891,153.19924926757812,27.66704177856445
562,2092103036,-177.53823852539062,-74.69647979736328,165.89347839355469,10.03681182861328,-0.51706397533417,-4.42176151275635,-23.24978065490723,155.60798645019531,27.22692489624023
563,2092119703,-173.56478881835938,-77.01670837402344,163.23316955566406,9.03296756744385,0.17590376734734,-0.40653920173645,84.70186614990234,142.27488708496094,28.38651275634766
564,2092136370,-168.74336242675781,-79.01471710205078,159.36968994140625,8.04423999786377,2.96685576438904,0.55217164754868,63.60857391357422,126.27817535400391,29.43110466003418
565,2092153037,-163.16691589355469,-80.79529571533203,153.62605285644531,6.48632335662842,2.60549807548523,-0.06320282071829,-3.61572623252869,118.64379119873047,32.99751281738281
566,2092169704,-155.68606567382812,-82.36719512939453,145.72460937500000,6.11260795593262,-0.00456487294286,-0.71351450681686,-19.05176925659180,112.94528961181641,32.19964599609375
567,2092186371,-145.29975891113281,-83.75138092041016,135.51206970214844,6.41640186309814,-2.60545277595520,-0.28584191203117,15.97728824615479,108.90304565429688,23.96531105041504
568,2092203038,-130.75811767578125,-85.06096649169922,121.30372619628906,3.76843762397766,-1.65248501300812,-0.79645287990570,25.08916854858398,113.90126800537109,9.86812686920166
569,2092219705,-115.16089630126953,-85.69311523437500,105.96865844726562,4.96819734573364,0.94844633340836,0.25436067581177,19.79700469970703,83.03529357910156,9.07398319244385
570,2092236372,-101.47654724121094,-85.86345672607422,92.25567626953125,7.02767181396484,1.07536673545837,2.21087002754211,1.61093246936798,61.13814926147461,9.68721199035645
571,2092253039,-86.64678955078125,-85.68661499023438,77.36701202392578,15.64766311645508,-3.55175065994263,5.65879344940186,-0.01829415932298,65.31513977050781,15.44297218322754
572,2092269706,-72.40877532958984,-85.56787109375000,62.35019683837891,17.81128311157227,1.47968065738678,1.19608104228973,-43.01628494262695,69.23549652099609,-5.23154878616333
573,2092286373,-61.88913726806641,-85.03978729248047,51.54965972900391,11.17069911956787,-6.72072744369507,-2.59258961677551,-13.57234287261963,61.61644363403320,8.75072956085205
574,2092303040,-54.85550308227539,-84.45847320556641,45.56402969360352,8.32213497161865,-3.56067347526550,1.13345634937286,65.50898742675781,46.75662231445312,12.68612670898438
575,2092319707,-50.06358718872070,-84.15343475341797,42.85994720458984,7.45091915130615,1.32805752754211,5.53235387802124,127.19728851318359,24.42137336730957,4.97718763351440
576,2092336374,-48.75863265991211,-84.12163543701172,41.30344009399414,8.18118762969971,5.26963329315186,7.37723016738892,-13.47397518157959,8.99213981628418,-4.47004032135010
577,2092353041,-50.79995727539062,-84.28858947753906,41.94494247436523,9.02985191345215,-0.99533236026764,2.59921193122864,-83.06121063232422,-8.93063163757324,-4.83128166198730
578,2092369708,-53.71001434326172,-84.54407501220703,44.57170486450195,9.59477138519287,-2.73218727111816,0.12087479233742,-16.62305068969727,-21.00518989562988,-2.41354846954346
579,2092386375,-57.01439666748047,-84.76617431640625,48.27020263671875,10.14918136596680,-0.65277159214020,0.25755080580711,23.80912208557129,-24.08070373535156,1.10629391670227
580,2092403042,-60.12289810180664,-84.92711639404297,51.54060745239258,9.94468402862549,-0.06357081234455,0.15014518797398,10.04889106750488,-19.58078384399414,1.26368165016174
581,2092419709,-62.66291046142578,-85.04153442382812,54.08288574218750,9.99781322479248,-1.25170242786407,-0.31841900944710,0.68143916130066,-14.50208187103271,0.66582822799683
582,2092436376,-64.11278533935547,-85.14086151123047,55.56621932983398,9.74639415740967,-1.27644193172455,-0.36759099364281,2.80406618118286,-8.98194599151611,-1.61191642284393
583,2092453043,-62.78978729248047,-85.17643737792969,53.90367126464844,10.00522136688232,-0.45038935542107,0.86641889810562,-18.88771057128906,7.08732557296753,-5.37541580200195
584,2092469710,-59.91993713378906,-85.18151092529297,50.24031448364258,9.50610828399658,-0.49407425522804,-0.78255236148834,-45.71090316772461,16.58335113525391,-8.82706260681152
585,2092486377,-57.72560501098633,-85.18098449707031,47.52474212646484,9.95319271087646,-1.30517029762268,-0.43818849325180,-29.57136154174805,12.23824214935303,-6.76981401443481
586,2092503044,-55.81122207641602,-85.17136383056641,45.55409622192383,9.90205955505371,-1.04144394397736,0.43544608354568,-1.83166086673737,9.14373779296875,-4.67204618453979
587,2092519711,-52.58634567260742,-85.08856964111328,42.11659240722656,9.34258365631104,-0.01682665757835,0.76637965440750,-10.88506317138672,17.62190246582031,-5.92220973968506
588,2092536378,-50.89020156860352,-85.06700134277344,40.11755752563477,9.68210887908936,-0.12451770156622,0.80492115020752,-16.60826301574707,9.38796234130859,-5.06948328018188
589,2092553045,-49.94412231445312,-85.07563018798828,38.85177230834961,9.82795715332031,-0.75901222229004,0.72529876232147,-17.77444839477539,5.20932197570801,-4.25557470321655
590,2092569712,-49.03907775878906,-85.08821868896484,37.72333145141602,9.97154140472412,-0.69944316148758,0.89873492717743,-12.02722549438477,4.43011617660522,-4.04549598693848
591,2092586379,-48.49498748779297,-85.12532806396484,36.86289215087891,9.70000743865967,-0.41203308105469,0.65241926908493,-17.67155647277832,2.35558962821960,-4.27255487442017
592,2092603046,-48.52854919433594,-85.19462585449219,36.71407318115234,9.68617057800293,-1.14805579185486,0.88042640686035,-9.78680133819580,-1.69300639629364,-3.31950283050537
593,2092619713,-48.88028335571289,-85.30252075195312,36.97743606567383,9.59231758117676,-0.52495980262756,1.03296971321106,-4.23136520385742,-4.75167465209961,-3.69466376304626
594,2092636380,-49.60689544677734,-85.43580627441406,37.57524108886719,9.66242027282715,-0.33021134138107,0.83616620302200,-6.71569681167603,-6.90930366516113,-3.85566663742065
595,2092653047,-50.41643524169922,-85.57379913330078,38.10833358764648,9.74676132202148,-0.52620810270309,0.44948163628578,-15.56256866455078,-6.73621845245361,-4.42145442962646
596,2092669714,-50.60001754760742,-85.67885589599609,38.02728271484375,9.97785758972168,-0.70625191926956,-0.42540442943573,-14.73844909667969,-3.21949958801270,-4.79738426208496
597,2092686381,-50.64947509765625,-85.75305938720703,37.87590789794922,9.97820377349854,-0.71297019720078,-0.66381251811981,-10.90354251861572,-1.79701983928680,-3.57036733627319
598,2092703048,-50.18251800537109,-85.76525115966797,37.31400299072266,10.28993320465088,-0.51937055587769,-0.20032556355000,-4.47373914718628,1.95341682434082,-1.86011624336243
599,2092719715,-48.98044967651367,-85.69871520996094,36.08136749267578,9.97086143493652,-0.68154019117355,-0.37088936567307,-0.50283497571945,7.29042434692383,-0.22658915817738
600,2092736382,-47.88285064697266,-85.61595153808594,35.14525222778320,9.86026382446289,-0.83084356784821,-0.07527901977301,10.97366428375244,6.98412609100342,1.19394946098328
601,2092753049,-46.82892608642578,-85.53410339355469,34.26799011230469,9.80097484588623,-0.38387885689735,0.63717907667160,11.88654136657715,6.80894851684570,1.14712953567505
602,2092769716,-45.76272583007812,-85.45145416259766,33.20108413696289,9.72631931304932,-0.44113230705261,0.88833022117615,1.28245365619659,7.56600570678711,0.40375867486000
603,2092786383,-44.64048767089844,-85.37381744384766,32.03258514404297,9.56439590454102,-0.39825525879860,0.94664609432220,-1.42512285709381,7.76082801818848,-0.35599735379219
604,2092803050,-43.74514389038086,-85.31884765625000,31.01273727416992,9.75885391235352,-0.60000520944595,0.84586113691330,-6.14384126663208,6.32614612579346,-0.96634811162949
605,2092819717,-43.08187866210938,-85.28320312500000,30.29609298706055,9.71231937408447,-0.61195802688599,0.74727565050125,-1.93285584449768,4.47387266159058,-0.79414087533951
606,2092836384,-42.67245864868164,-85.26124572753906,29.87403488159180,9.59221553802490,-0.46185395121574,0.80780506134033,0.45783984661102,2.88342642784119,-0.33799162507057
607,2092853051,-42.50719451904297,-85.26621246337891,29.67284965515137,9.75316047668457,-0.43375381827354,0.87851184606552,-0.99144840240479,0.96271741390228,-0.62782490253448
608,2092869718,-42.50351715087891,-85.27951812744141,29.65241241455078,9.66725730895996,-0.44886407256126,1.07948887348175,0.12820436060429,-0.02650273963809,-0.31832101941109
609,2092886385,-42.55640792846680,-85.29681396484375,29.66969680786133,9.53061962127686,-0.43983456492424,1.17398202419281,-1.01877701282501,-0.31700193881989,-0.33090960979462
610,2092903052,-42.77850723266602,-85.33108520507812,29.87782669067383,9.56225776672363,-0.54496717453003,0.95961618423462,0.25060746073723,-1.71140873432159,-0.34709692001343
611,2092919719,-43.16505432128906,-85.37365722656250,30.29989814758301,9.78262996673584,-0.65915411710739,1.00770986080170,3.17147946357727,-2.75954413414001,0.07394386082888
612,2092936386,-43.54633712768555,-85.40654754638672,30.76204490661621,9.70507049560547,-0.57792246341705,0.82728207111359,5.88795137405396,-2.46631789207458,0.57199573516846
613,2092953053,-43.81920623779297,-85.42195892333984,31.18025779724121,9.67207145690918,-0.64131575822830,0.97103977203369,9.76358890533447,-1.55885982513428,1.11503636837006
614,2092969720,-43.91652297973633,-85.41725921630859,31.41776084899902,9.63100433349609,-0.55632072687149,1.11985468864441,9.49349117279053,-0.09152060002089,1.31504595279694
615,2092986387,-44.06958389282227,-85.43014526367188,31.59223175048828,9.55612564086914,0.07755802571774,0.10212969779968,2.37764000892639,-0.63972198963165,0.36714527010918
616,2093003054,-44.33473968505859,-85.44637298583984,31.84619140625000,10.18531417846680,-0.77157437801361,0.46993610262871,0.40621742606163,-1.04800128936768,0.49040636420250
617,2093019721,-44.38868331909180,-85.45158386230469,31.83773612976074,9.68706703186035,-0.41727751493454,0.59488391876221,-2.61726546287537,0.30263966321945,0.05595094710588
618,2093036388,-44.35958480834961,-85.45683288574219,31.78595924377441,9.69774150848389,-0.51541697978973,0.53615570068359,-0.22395102679729,0.44754347205162,-0.09259630739689
619,2093053055,-44.40129852294922,-85.47320556640625,31.81900024414062,9.76371097564697,-0.75522702932358,0.82901132106781,0.60147583484650,-0.31969133019447,-0.27771207690239
620,2093069722,-44.45181274414062,-85.49246215820312,31.89263916015625,9.69219589233398,-0.58851438760757,0.95030570030212,2.49707150459290,-0.56385713815689,-0.24861603975296
621,2093086389,-44.54479598999023,-85.50821685791016,32.02388763427734,9.64055538177490,-0.27774912118912,0.69448810815811,3.39763975143433,-0.61111253499985,0.07980916649103
622,2093103056,-44.77184295654297,-85.52464294433594,32.24117660522461,9.82025718688965,-0.50055176019669,0.33840560913086,0.50199609994888,-0.92107760906219,0.33705034852028
623,2093119723,-44.94878005981445,-85.53529357910156,32.44023895263672,9.83600807189941,-0.59191423654556,0.34696862101555,2.41632747650146,-0.61341774463654,0.51165211200714
624,2093136390,-45.16783523559570,-85.54099273681641,32.66656112670898,9.86350154876709,-0.52803969383240,0.28181177377701,1.52460885047913,-0.49209043383598,0.80906683206558
625,2093153057,-45.45338439941406,-85.54456329345703,32.98028945922852,9.75981903076172,-0.44043284654617,0.49665516614914,2.75796294212341,-0.69450759887695,1.18069434165955
626,2093169724,-45.74190139770508,-85.54741668701172,33.29500198364258,9.70679759979248,-0.54557621479034,0.75181365013123,2.64072036743164,-0.67369729280472,1.20605075359344
627,2093186391,-46.02450180053711,-85.55436706542969,33.61636734008789,9.69004726409912,-0.62433689832687,0.82296997308731,3.39624404907227,-0.87018507719040,1.04296195507050
628,2093203058,-46.19273376464844,-85.56032562255859,33.85643768310547,9.64907073974609,-0.52223849296570,0.85703152418137,5.38783597946167,-0.55202412605286,0.82616323232651
629,2093219725,-46.29140853881836,-85.56769561767578,33.99822616577148,9.68966579437256,-0.49872049689293,0.81091183423996,3.69354343414307,-0.29299011826515,0.42979392409325
630,2093236392,-46.43899917602539,-85.56650543212891,34.17233276367188,9.67600727081299,-0.33357995748520,0.50897979736328,2.68364763259888,-0.03683746606112,0.91630721092224
631,2093253059,-46.72304916381836,-85.57530212402344,34.43080139160156,9.84138965606689,-0.64846980571747,0.33209955692291,-0.45400434732437,-0.73890721797943,0.74296045303345
632,2093269726,-47.07522583007812,-85.59220123291016,34.78498458862305,9.80698299407959,-0.52815401554108,0.48543685674667,1.17957973480225,-1.38190090656281,0.69546151161194
633,2093286393,-47.42742156982422,-85.61139678955078,35.10997772216797,9.71595001220703,-0.49377733469009,0.58805114030838,-0.56698197126389,-1.39538633823395,0.46253976225853
634,2093303060,-47.79921722412109,-85.63103485107422,35.46663284301758,9.70052146911621,-0.58776760101318,0.69977873563766,0.15607099235058,-1.49722242355347,0.54670310020447
635,2093319727,-48.05887603759766,-85.64350891113281,35.77576446533203,9.70478153228760,-0.59043014049530,0.90335595607758,4.04427051544189,-1.05613327026367,0.69113302230835
636,2093336394,-48.11886596679688,-85.64179992675781,35.89973068237305,9.72391319274902,-0.55166274309158,0.53899991512299,4.94373798370361,0.14235539734364,0.75858414173126
637,2093353061,-48.26500701904297,-85.64099884033203,36.13430786132812,9.78005218505859,-0.44704255461693,0.41505885124207,6.39020299911499,-0.26869645714760,1.05517923831940
638,2093369728,-48.49246978759766,-85.63488769531250,36.41036605834961,9.92283630371094,-0.56163454055786,0.51082438230515,3.99555492401123,-0.20451098680496,1.41557538509369
639,2093386395,-48.48986816406250,-85.61540985107422,36.44142532348633,9.63296794891357,-0.34989690780640,0.41678977012634,3.14421534538269,1.15783500671387,1.26771354675293
640,2093403062,-48.68920898437500,-85.60862731933594,36.61483001708984,9.92775917053223,-0.75544208288193,0.11568839102983,-0.46293038129807,0.16547085344791,1.13442492485046
641,2093419729,-48.90473556518555,-85.60707092285156,36.89360046386719,9.82311153411865,-0.55516678094864,0.44939947128296,4.87261152267456,-0.40836250782013,1.21802473068237
642,2093436396,-49.10791778564453,-85.60813903808594,37.09751129150391,9.74821281433105,-0.54198187589645,0.55711024999619,1.13016033172607,-0.25658160448074,0.86926949024200
643,2093453063,-49.25691986083984,-85.60639953613281,37.27488327026367,9.72000026702881,-0.53961604833603,0.81805908679962,2.79867386817932,-0.05538106337190,0.91445028781891
644,2093469730,-49.24713134765625,-85.60261535644531,37.25489807128906,9.66650962829590,-0.54012048244476,0.47836983203888,0.51875966787338,0.71445345878601,0.41767907142639
645,2093486397,-49.39272689819336,-85.61037445068359,37.43938827514648,9.83102130889893,-0.78187829256058,0.41137972474098,3.43007850646973,-0.45970317721367,0.49410742521286
646,2093503064,-49.54104232788086,-85.61917114257812,37.65995025634766,9.72076034545898,-0.54527145624161,0.61732745170593,5.42055654525757,-0.61323851346970,0.56819212436676
647,2093519731,-49.68741226196289,-85.62771606445312,37.84652328491211,9.75093841552734,-0.50121444463730,0.73660618066788,3.50548243522644,-0.48902976512909,0.46648409962654
648,2093536398,-49.81294631958008,-85.63775634765625,37.96128463745117,9.71627235412598,-0.42719584703445,0.42162054777145,0.45789098739624,-0.29195275902748,0.18693427741528
649,2093553065,-50.00191879272461,-85.64859771728516,38.15991592407227,9.83757972717285,-0.71252483129501,0.38869929313660,1.67168951034546,-0.61909091472626,0.38900566101074
650,2093569732,-50.10824584960938,-85.65157318115234,38.31503677368164,9.74877166748047,-0.57962572574615,0.51617997884750,4.02728939056396,-0.15925334393978,0.62351548671722
651,2093586399,-50.16856384277344,-85.64616394042969,38.41881179809570,9.74507045745850,-0.41320216655731,0.56298875808716,3.71418786048889,0.33607712388039,0.85118699073792
652,2093603066,-50.27016067504883,-85.63825988769531,38.49126815795898,9.76353740692139,-0.36878657341003,0.28937697410583,-0.63465064764023,0.54056882858276,0.87743985652924
653,2093619733,-50.42620468139648,-85.63507080078125,38.59401321411133,9.82244396209717,-0.64279937744141,0.31426283717155,-2.08797955513000,0.25854739546776,0.75520324707031
654,2093636400,-50.45567321777344,-85.62409210205078,38.58857345581055,9.82507514953613,-0.67469030618668,0.41386368870735,-0.96694976091385,0.93532449007034,0.79815566539764
655,2093653067,-50.35342025756836,-85.60631561279297,38.48145294189453,9.78439235687256,-0.49871236085892,0.47406274080276,0.84801071882248,1.55143785476685,0.80956608057022
656,2093669734,-50.31656646728516,-85.59038543701172,38.42375946044922,9.73380565643311,-0.51551276445389,0.56249123811722,-0.10941104590893,1.30784845352173,0.86686182022095
657,2093686401,-50.24444580078125,-85.57344818115234,38.36095809936523,9.74106121063232,-0.63586449623108,0.62088763713837,1.69540715217590,1.36638629436493,0.89851915836334
658,2093703068,-50.18282699584961,-85.55348968505859,38.29810714721680,9.67722320556641,-0.47226700186729,0.47246962785721,1.06523239612579,1.48315465450287,1.03459942340851
659,2093719735,-50.27562713623047,-85.53884124755859,38.35438156127930,9.83627128601074,-0.55966514348984,0.57141280174255,-1.07681548595428,0.85201919078827,1.14529740810394
660,2093736402,-50.28247070312500,-85.52088165283203,38.33069992065430,9.73763084411621,-0.52360790967941,0.45381540060043,-0.70523935556412,1.27702367305756,1.07333874702454
661,2093753069,-50.16368865966797,-85.49202728271484,38.22629547119141,9.79053211212158,-0.71147215366364,0.37331348657608,2.01181364059448,1.97666013240814,1.31754291057587
662,2093769736,-50.06414413452148,-85.46262359619141,38.16432952880859,9.78961849212646,-0.54773783683777,0.59572607278824,3.39528322219849,1.84403753280640,1.45993661880493
663,2093786403,-49.94205093383789,-85.43434143066406,38.08711624145508,9.72885417938232,-0.57172924280167,0.76511323451996,3.83470821380615,1.86415648460388,1.36478543281555
664,2093803070,-49.88159561157227,-85.40752410888672,38.02011871337891,9.68964290618896,-0.44568929076195,0.44235470890999,0.74093699455261,1.78012120723724,1.33412706851959
665,2093819737,-49.92658233642578,-85.38688659667969,38.05908966064453,9.80076694488525,-0.66562557220459,0.51183462142944,0.76245164871216,1.14353013038635,1.36853766441345
666,2093836404,-50.01098632812500,-85.37060546875000,38.12777709960938,9.73061752319336,-0.62214821577072,0.65363126993179,0.17172034084797,0.86742520332336,1.26497268676758
667,2093853071,-50.06785583496094,-85.35801696777344,38.19622039794922,9.71681499481201,-0.62650007009506,0.66117215156555,1.80598998069763,0.72240626811981,1.09514784812927
668,2093869738,-50.22321701049805,-85.35324859619141,38.32908248901367,9.72921085357666,-0.50973629951477,0.56679064035416,-0.24961495399475,0.17589522898197,0.93223822116852
669,2093886405,-50.39895629882812,-85.35185241699219,38.48961639404297,9.76431083679199,-0.64193880558014,0.51585865020752,0.18129949271679,-0.04981029406190,0.87306004762650
670,2093903072,-50.48110580444336,-85.34062194824219,38.59144210815430,9.77226829528809,-0.67528599500656,0.53150856494904,2.28871226310730,0.53743124008179,1.13588476181030
671,2093919739,-50.46108245849609,-85.32818603515625,38.60751342773438,9.74854850769043,-0.59599560499191,0.56590980291367,3.29033517837524,0.90679192543030,0.92895972728729
672,2093936406,-50.47043991088867,-85.31800842285156,38.62804031372070,9.77631092071533,-0.53373903036118,0.56159484386444,1.79203104972839,0.80756849050522,0.84398972988129
