sep=,
DeviceTag:,Xsens_DOT_2
FirmwareVersion:,3.0.0
AppVersion:,2023.6.0
StartTime: ,2025-04-09_10:57:08_000 CEST
© Movella Technologies B. V. 2005-2025

PacketCounter,SampleTimeFine,Euler_X,Euler_Y,Euler_Z,Acc_X,Acc_Y,Acc_Z,Gyr_X,Gyr_Y,Gyr_Z
0,2082719515,86.07444000244141,-88.73545837402344,-32.51019287109375,0.00000000000000,0.00000000000000,0.00000000000000,0.00000000000000,0.00000000000000,0.00000000000000
1,2082736182,88.65295410156250,-88.78421020507812,-35.14613723754883,9.84712886810303,0.14917758107185,0.17035688459873,-2.82321166992188,-4.58522462844849,3.48626685142517
2,2082752849,90.37598419189453,-88.82231140136719,-36.95130538940430,9.91646862030029,0.12376865744591,0.23946042358875,-4.30531644821167,-3.32854986190796,2.94960355758667
3,2082769516,92.05532836914062,-88.85346221923828,-38.71764373779297,9.85158348083496,-0.02511529065669,0.24366186559200,-4.61237287521362,-3.15340971946716,2.60486912727356
4,2082786183,94.63368225097656,-88.87534332275391,-41.36886215209961,9.82290363311768,-0.09948647767305,0.16145652532578,-3.73242402076721,-4.08781290054321,2.17106699943542
5,2082802850,96.84347534179688,-88.89182281494141,-43.64440155029297,9.87348747253418,-0.07673483341932,0.10306167602539,-3.30417943000793,-3.57172966003418,1.93320178985596
6,2082819517,98.61331939697266,-88.91249847412109,-45.47902679443359,9.83214664459229,-0.07899929583073,0.21974347531796,-3.25466990470886,-2.96230077743530,2.14834856987000
7,2082836184,100.02771759033203,-88.93522644042969,-46.94295120239258,9.79323005676270,-0.12045527994633,0.33314299583435,-2.36480760574341,-2.44747233390808,2.30216550827026
8,2082852851,101.66069793701172,-88.95470428466797,-48.58703613281250,9.73652744293213,-0.22237646579742,0.40373817086220,-0.02907041274011,-2.60360741615295,2.13948631286621
9,2082869518,103.40062713623047,-88.95339202880859,-50.30322265625000,9.83838558197021,-0.15276086330414,0.37956428527832,2.07161259651184,-2.90281510353088,0.92015540599823
10,2082886185,104.32053375244141,-88.93393707275391,-51.18734359741211,9.79844570159912,-0.05093278735876,0.32237493991852,2.72757983207703,-2.28410243988037,-0.22102481126785
11,2082902852,105.31747436523438,-88.91519927978516,-52.13794326782227,9.77347660064697,-0.02318363450468,0.31859913468361,3.39704418182373,-2.40291929244995,-0.23529104888439
12,2082919519,106.42266082763672,-88.90962219238281,-53.19711303710938,9.87011432647705,0.05626348778605,0.22450964152813,3.37801384925842,-2.32294368743896,0.61011368036270
13,2082936186,107.60154724121094,-88.91015625000000,-54.33571243286133,9.92508697509766,0.11579184234142,0.16012980043888,3.01624822616577,-2.28129768371582,1.08206617832184
14,2082952853,108.69338226318359,-88.91375732421875,-55.39462661743164,9.88286495208740,0.09956139326096,0.17440687119961,2.58919429779053,-2.15614104270935,1.17028915882111
15,2082969520,109.86990356445312,-88.91268157958984,-56.53922653198242,9.85690784454346,0.04401001706719,0.02321364171803,2.53629112243652,-2.30509161949158,1.01357769966125
16,2082986187,109.87824249267578,-88.91069793701172,-56.50054931640625,9.88167381286621,-0.05684769898653,-0.08077549934387,3.39599394798279,-1.08495402336121,0.53104734420776
17,2083002854,108.68836975097656,-88.89801788330078,-55.25258636474609,9.81452751159668,-0.10076113045216,0.06428467482328,4.01661634445190,-0.04719140380621,-0.60352498292923
18,2083019521,108.05536651611328,-88.87117767333984,-54.54806518554688,9.75058269500732,-0.06705692410469,0.17035080492496,4.83692646026611,-0.83248955011368,-1.13434815406799
19,2083036188,108.28238677978516,-88.85226440429688,-54.70847320556641,9.80187129974365,0.04225625097752,0.21256750822067,4.57224464416504,-1.61760830879211,-0.37088465690613
20,2083052855,108.42260742187500,-88.83483886718750,-54.77298355102539,9.81142520904541,0.14686535298824,0.22007584571838,5.13983583450317,-1.52647864818573,-0.43142032623291
21,2083069522,107.82754516601562,-88.81040954589844,-54.11236572265625,9.83402824401855,0.20002326369286,0.16868124902248,4.46773242950439,-0.78219914436340,-0.98509025573730
22,2083086189,106.71417999267578,-88.77634429931641,-52.95978164672852,9.82569980621338,0.16347283124924,0.22705610096455,2.88616061210632,-0.34720572829247,-1.77631747722626
23,2083102856,105.50758361816406,-88.72789764404297,-51.72274017333984,9.86755084991455,0.04850138351321,0.25264009833336,2.37244677543640,-0.38535591959953,-2.63823604583740
24,2083119523,104.09417724609375,-88.67440795898438,-50.26044464111328,9.90545368194580,-0.00378148723394,0.22805330157280,3.44723248481750,-0.02766172029078,-2.98624897003174
25,2083136190,102.29626464843750,-88.63127136230469,-48.39690399169922,9.98528289794922,0.02744849212468,0.10813185572624,4.45802545547485,0.82282727956772,-2.52796077728271
26,2083152857,99.50413513183594,-88.60086822509766,-45.54960250854492,9.89601612091064,-0.00219048187137,0.11837419122458,3.80047011375427,2.54588317871094,-1.96104931831360
27,2083169524,97.04240417480469,-88.56823730468750,-43.01975250244141,9.75674438476562,0.07308606803417,0.09474453330040,4.56782674789429,2.28373718261719,-1.84453701972961
28,2083186191,94.87794494628906,-88.52780151367188,-40.76476287841797,9.71367454528809,0.12038873881102,0.02859850786626,5.94247293472290,2.01883792877197,-2.15167212486267
29,2083202858,92.65640258789062,-88.48264312744141,-38.45032501220703,9.76432704925537,0.06566557288170,-0.04240906983614,6.06709289550781,2.29754281044006,-2.35981369018555
30,2083219525,90.17359161376953,-88.42132568359375,-35.87141036987305,9.75802040100098,0.08454704284668,-0.02600107714534,6.27232694625854,2.95017981529236,-3.17781949043274
31,2083236192,88.22367858886719,-88.35028839111328,-33.81454467773438,9.58633613586426,0.15626822412014,0.03884609416127,6.92071294784546,2.41176247596741,-3.57691645622253
32,2083252859,87.44249725341797,-88.29257202148438,-32.91361236572266,9.57455539703369,0.28703039884567,0.02727449499071,7.72213602066040,0.61455774307251,-2.78662443161011
33,2083269526,87.04496002197266,-88.24420166015625,-32.39464569091797,9.61616039276123,0.23677045106888,0.02210418321192,7.85397577285767,-0.00977124646306,-2.24741220474243
34,2083286193,86.84925079345703,-88.19160461425781,-32.07037353515625,9.61347389221191,0.19536027312279,0.06005477160215,8.28487110137939,-0.31421667337418,-2.49448513984680
35,2083302860,87.20168304443359,-88.14090728759766,-32.28961563110352,9.69930553436279,0.20461456477642,0.02417265996337,8.58443927764893,-1.33723950386047,-2.45428657531738
36,2083319527,87.68030548095703,-88.10225677490234,-32.64151763916016,9.78477573394775,0.28633642196655,0.16353979706764,8.21257972717285,-1.66080474853516,-1.71548771858215
37,2083336194,88.32331848144531,-88.07288360595703,-33.16740417480469,9.73948287963867,0.35236552357674,0.23263931274414,7.63117074966431,-2.05982470512390,-1.17774891853333
38,2083352861,88.86286926269531,-88.04966735839844,-33.60479736328125,9.83648395538330,0.43194451928139,0.26056548953056,6.72614669799805,-1.92557632923126,-0.76689571142197
39,2083369528,88.89411163330078,-88.03069305419922,-33.53251647949219,9.94312572479248,0.47711211442947,0.25847801566124,6.78424835205078,-0.90985292196274,-0.50414764881134
40,2083386195,88.35540008544922,-88.01298522949219,-32.91196060180664,9.92656898498535,0.41807180643082,0.35662189126015,5.46494960784912,0.22159469127655,-0.37915763258934
41,2083402862,87.42599487304688,-88.00100708007812,-31.92337608337402,9.91036605834961,0.32457599043846,0.38415232300758,4.07514047622681,0.99294668436050,-0.01504746265709
42,2083419529,85.82537078857422,-87.98307037353516,-30.27224540710449,9.89130115509033,0.32642245292664,0.38872948288918,3.52705454826355,2.42264771461487,-0.21153528988361
43,2083436196,83.37107849121094,-87.95283508300781,-27.77625656127930,9.91026687622070,0.28948900103569,0.44836109876633,2.95800471305847,4.33870887756348,-0.65815687179565
44,2083452863,80.52463531494141,-87.91175079345703,-24.88326263427734,9.87215042114258,0.17139075696468,0.54072856903076,3.24466204643250,5.42472600936890,-0.94777256250381
45,2083469530,77.52563476562500,-87.85972595214844,-21.82710647583008,9.81529140472412,0.15307129919529,0.57205122709274,3.84544610977173,6.11263084411621,-1.14865279197693
46,2083486197,74.96960449218750,-87.80456542968750,-19.21145439147949,9.74930477142334,0.24963481724262,0.60834062099457,4.03395605087280,5.43992662429810,-1.18192386627197
47,2083502864,72.87590789794922,-87.75973510742188,-17.05587768554688,9.75432014465332,0.34078976511955,0.54129987955093,4.16917753219604,4.44345140457153,-0.55821597576141
48,2083519531,70.89817047119141,-87.72377014160156,-15.00807857513428,9.79368495941162,0.31094115972519,0.46012479066849,4.69103670120239,4.17281532287598,0.06489618867636
49,2083536198,68.61859130859375,-87.67401123046875,-12.65385150909424,9.76637649536133,0.27676251530647,0.49226903915405,4.93043804168701,5.24681949615479,-0.21255980432034
50,2083552865,66.36627960205078,-87.61337280273438,-10.31983089447021,9.77403450012207,0.26523944735527,0.48871323466301,5.34649181365967,5.60063409805298,-0.51543003320694
51,2083569532,64.32003784179688,-87.53979492187500,-8.16434288024902,9.78237915039062,0.23280084133148,0.42413666844368,7.01322603225708,5.71522521972656,-1.11463928222656
52,2083586199,62.47190093994141,-87.44902038574219,-6.15163373947144,9.97876930236816,0.24926927685738,0.22630617022514,10.33075332641602,6.06668519973755,-1.88688850402832
53,2083602866,60.47009658813477,-87.32540893554688,-3.98287248611450,10.05683040618896,0.21502774953842,0.27747133374214,10.47287750244141,7.66714715957642,-3.07136106491089
54,2083619533,58.55290222167969,-87.18756103515625,-1.88831806182861,10.01496601104736,0.21771441400051,0.40165829658508,11.08150196075439,8.29132938385010,-3.45387482643127
55,2083636200,56.77096176147461,-87.04899597167969,0.06001748144627,9.94831752777100,0.28663027286530,0.18694341182709,10.43802165985107,8.33600997924805,-3.27171730995178
56,2083652867,54.93627548217773,-86.90294647216797,2.04989051818848,9.71637058258057,0.23828324675560,0.27390223741531,9.70600986480713,9.04375457763672,-3.08745932579041
57,2083669534,53.60653686523438,-86.76457214355469,3.53787040710449,9.56562137603760,0.28176277875900,0.23542101681232,9.97789859771729,7.78482437133789,-3.24443912506104
58,2083686201,52.12692642211914,-86.62606048583984,5.17032432556152,9.63819694519043,0.41143450140953,0.23544098436832,9.60665607452393,8.44520950317383,-2.59090518951416
59,2083702868,50.59270095825195,-86.49463653564453,6.84193992614746,9.65363121032715,0.41511300206184,0.36696594953537,8.66112518310547,8.55419063568115,-1.77800893783569
60,2083719535,49.32172012329102,-86.37583160400391,8.24407386779785,9.68150615692139,0.34848138689995,0.38319006562233,8.30550384521484,7.50578546524048,-1.44116330146790
61,2083736202,48.32620239257812,-86.26545715332031,9.35336017608643,9.68402957916260,0.37019249796867,0.44471868872643,7.28191661834717,6.50206136703491,-1.53062808513641
62,2083752869,47.47203445434570,-86.16768646240234,10.28740692138672,9.83056926727295,0.47162145376205,0.44469848275185,5.17967653274536,5.60372018814087,-1.23733687400818
63,2083769536,46.46662521362305,-86.07708740234375,11.33648777008057,9.88508796691895,0.52123713493347,0.51982790231705,3.01839947700500,5.74416732788086,-0.42376220226288
64,2083786203,45.43728256225586,-85.99069213867188,12.38265895843506,9.80661010742188,0.49216878414154,0.61052459478378,1.44202697277069,5.66005468368530,-0.07080630958080
65,2083802870,44.31944274902344,-85.89821624755859,13.48394584655762,9.85711288452148,0.50095659494400,0.75274604558945,-0.57921838760376,6.15295839309692,0.04525123909116
66,2083819537,43.27456665039062,-85.82167816162109,14.47839069366455,9.74281024932861,0.60007148981094,0.98040139675140,-2.57041382789612,5.22337150573730,0.58233678340912
67,2083836204,42.47268676757812,-85.76979064941406,15.18948554992676,9.62534999847412,0.69925135374069,1.15423762798309,-4.96228170394897,3.34549903869629,0.81985616683960
68,2083852871,41.94242858886719,-85.75273132324219,15.59489345550537,9.55823516845703,0.71349078416824,1.31324672698975,-6.98745203018188,0.88953548669815,1.30122125148773
69,2083869538,41.75513076782227,-85.77864074707031,15.65191268920898,9.60803794860840,0.73790407180786,1.41365230083466,-7.27868270874023,-2.06686830520630,1.88446116447449
70,2083886205,41.60781097412109,-85.81497955322266,15.61538314819336,9.75050449371338,0.63839656114578,1.03955113887787,-10.51961421966553,-2.82266163825989,1.99377644062042
71,2083902872,41.38385009765625,-85.83293914794922,15.65245914459229,9.74209403991699,0.37544938921928,1.06203186511993,-10.63688182830811,-1.76825010776520,1.48905241489410
72,2083919539,41.66506195068359,-85.87019348144531,15.19278430938721,9.62065029144287,0.33736386895180,1.07389008998871,-10.03147315979004,-4.07575035095215,0.65918785333633
73,2083936206,42.30681991577148,-85.92667388916016,14.38227272033691,9.77212810516357,0.35949313640594,0.92485272884369,-9.42328643798828,-5.91816234588623,0.34678965806961
74,2083952873,42.91723632812500,-85.98151397705078,13.59634971618652,9.98334884643555,0.34650820493698,0.77611035108566,-9.76480865478516,-5.74590444564819,0.44918930530548
75,2083969540,43.33987808227539,-86.01478576660156,13.00409698486328,10.14394664764404,0.30041107535362,0.69405347108841,-9.50588798522949,-4.21761941909790,0.20978730916977
76,2083986207,43.94154357910156,-86.03736114501953,12.28495311737061,10.21972179412842,0.09855683147907,0.68498808145523,-6.35723972320557,-4.12014913558960,-0.56111031770706
77,2084002874,44.25907897949219,-86.00801086425781,11.88486862182617,10.27692794799805,0.08797669410706,0.60278481245041,-4.30840206146240,-0.96398538351059,-1.76352429389954
78,2084019541,44.23856353759766,-85.94498443603516,11.85677051544189,9.95358085632324,0.17272748053074,0.87301439046860,-2.33656954765320,1.55508124828339,-2.06941628456116
79,2084036208,44.30931091308594,-85.90026855468750,11.72922420501709,9.76461696624756,0.38492533564568,0.83560103178024,-2.80532073974609,0.47396945953369,-1.61115407943726
80,2084052875,44.26064682006836,-85.86919403076172,11.70590591430664,9.74960994720459,0.47688382863998,0.80744671821594,-3.77509474754333,0.18628759682178,-0.71732217073441
81,2084069542,44.02021408081055,-85.82252502441406,11.86976909637451,9.77901077270508,0.37089085578918,0.88397717475891,-4.24814844131470,1.43447148799896,-0.80995047092438
82,2084086209,43.83420181274414,-85.75056457519531,11.97764301300049,9.73840713500977,0.43835180997849,0.99369835853577,-4.10173368453979,2.36477613449097,-1.99484539031982
83,2084102876,43.96093368530273,-85.68375396728516,11.77596855163574,9.69280147552490,0.40034222602844,1.12080454826355,-3.94216632843018,1.19602990150452,-2.78612375259399
84,2084119543,44.21224975585938,-85.61300659179688,11.45786476135254,9.90214157104492,0.25977146625519,1.11362755298615,-3.34118914604187,0.97522276639938,-3.34010076522827
85,2084136210,44.41418457031250,-85.52482604980469,11.22170352935791,9.94102096557617,0.21741917729378,1.14969146251678,-1.45184338092804,1.95818734169006,-3.83752560615540
86,2084152877,44.52419281005859,-85.42089080810547,11.10686683654785,9.82644939422607,0.19578154385090,1.11819016933441,0.32019078731537,2.99888205528259,-4.10516595840454
87,2084169544,44.94835281372070,-85.32027435302734,10.68900966644287,9.63225078582764,0.18287251889706,1.08902919292450,1.05854105949402,1.79643023014069,-5.03381776809692
88,2084186211,45.64202880859375,-85.20932006835938,10.05307483673096,9.73266601562500,0.23993910849094,0.95082575082779,4.20017004013062,1.38133788108826,-6.29804897308350
89,2084202878,46.16268920898438,-85.07045745849609,9.62394046783447,9.88477516174316,0.35587573051453,1.03012609481812,6.14357328414917,3.16913127899170,-6.86232423782349
90,2084219545,46.80154418945312,-84.94286346435547,9.12696266174316,9.82673168182373,0.34912273287773,1.13501882553101,9.19146060943604,2.32152962684631,-6.69207620620728
91,2084236212,47.68670272827148,-84.84368133544922,8.44270133972168,9.75439262390137,0.34050470590591,1.14510309696198,12.75342369079590,0.27842944860458,-6.19435834884644
92,2084252879,48.79972457885742,-84.75981140136719,7.60251808166504,9.85172748565674,0.33791580796242,1.10831356048584,17.16640090942383,-1.12582027912140,-6.14230394363403
93,2084269546,49.73032760620117,-84.64393615722656,6.99798297882080,9.79824829101562,0.41249519586563,1.17537629604340,20.48889350891113,0.94611549377441,-6.79648160934448
94,2084286213,50.65760421752930,-84.51570129394531,6.39690780639648,9.77862071990967,0.53476446866989,1.13165509700775,20.44081687927246,1.24409413337708,-7.42894935607910
95,2084302880,51.35313415527344,-84.37203979492188,6.00976753234863,9.91095638275146,0.73065710067749,1.07449150085449,19.15093231201172,2.60802340507507,-7.47922611236572
96,2084319547,51.92111587524414,-84.22372436523438,5.73425102233887,9.95395660400391,1.00634586811066,1.06269562244415,18.37212562561035,3.16913390159607,-7.32867431640625
97,2084336214,52.36918640136719,-84.09767150878906,5.51764678955078,9.92409038543701,1.19254863262177,1.05645120143890,14.44687461853027,2.51725053787231,-6.13911294937134
98,2084352881,53.05334472656250,-84.02040863037109,5.05547857284546,9.68727397918701,1.05553531646729,1.07904779911041,13.85186481475830,-0.56470918655396,-4.78622293472290
99,2084369548,54.14110565185547,-84.02204132080078,4.07969331741333,8.81233406066895,0.73950272798538,1.12083315849304,7.79207134246826,-6.02912950515747,-2.86237382888794
100,2084386215,56.62082290649414,-84.06640625000000,1.63638770580292,9.41844844818115,1.12268352508545,0.54670917987823,3.21205997467041,-15.12845039367676,-5.80473995208740
101,2084402882,57.47139739990234,-83.89073944091797,0.68101286888123,10.09997940063477,1.80457067489624,0.15631881356239,-5.27643632888794,-0.37307476997375,-11.45140457153320
102,2084419549,57.82598114013672,-83.74511718750000,0.19596518576145,10.18877601623535,0.02531732060015,0.37398695945740,-7.42906856536865,0.92334455251694,-8.42090892791748
103,2084436216,57.76326751708984,-83.81452178955078,0.09017372131348,10.72659778594971,0.02827219106257,0.07038221508265,-9.82836532592773,-3.91154742240906,3.80217456817627
104,2084452883,56.54478454589844,-83.94664001464844,1.18303525447845,10.43739604949951,-0.04441418498755,0.02648267149925,-7.30872869491577,0.48932451009750,11.11391353607178
105,2084469550,54.90885162353516,-84.02690124511719,2.81054997444153,9.87005615234375,0.43991541862488,0.11532837152481,-0.56004750728607,4.65450143814087,10.38045310974121
106,2084486217,53.28332519531250,-83.95331573486328,4.51465415954590,9.03694343566895,0.83948576450348,0.24265000224113,4.76152420043945,10.18486213684082,3.35163450241089
107,2084502884,52.67885208129883,-83.82829284667969,5.20722484588623,9.27081871032715,1.43751263618469,0.65674066543579,5.41083145141602,6.96111679077148,-2.69382905960083
108,2084519551,52.81644821166992,-83.73957061767578,5.12910509109497,9.85874366760254,1.18486762046814,0.75601422786713,4.00264453887939,1.73425543308258,-3.89761281013489
109,2084536218,52.94481658935547,-83.68614959716797,5.05734395980835,10.03394031524658,0.61316853761673,0.63708186149597,3.99352622032166,0.49022072553635,-2.18312454223633
110,2084552885,53.10391998291016,-83.64041137695312,4.99685668945312,9.90747928619385,0.38236305117607,0.57233399152756,6.50719499588013,0.26855558156967,-1.78448808193207
111,2084569552,53.13132476806641,-83.56697082519531,5.08178615570068,9.99997711181641,0.64762246608734,0.63015294075012,7.21989488601685,2.02566385269165,-2.52967715263367
112,2084586219,53.33331298828125,-83.52334594726562,4.96387290954590,9.69649600982666,0.75027793645859,0.61635780334473,6.05014944076538,-0.10029935836792,-1.89021754264832
113,2084602886,53.41663360595703,-83.49582672119141,4.93863916397095,9.69117450714111,0.72851318120956,0.32633855938911,4.04553222656250,-0.21547964215279,-0.77820342779160
114,2084619553,52.92145538330078,-83.46664428710938,5.47027683258057,9.45632171630859,0.72852790355682,0.49844405055046,2.60524034500122,2.88505911827087,1.43185865879059
115,2084636220,52.36615753173828,-83.50436401367188,5.97332382202148,9.27068138122559,0.76983010768890,0.42232450842857,-2.61093354225159,0.29538491368294,4.54492902755737
116,2084652887,51.63175201416016,-83.56495666503906,6.62422513961792,9.39526844024658,1.02294981479645,0.28189796209335,-4.68325757980347,0.15753735601902,6.23410034179688
117,2084669554,50.83834838867188,-83.64196014404297,7.26497507095337,9.54914951324463,1.28632616996765,0.30725297331810,-8.63773250579834,-0.60125833749771,6.95538043975830
118,2084686221,50.25764083862305,-83.74047851562500,7.63896369934082,9.65356731414795,1.43041706085205,0.37601277232170,-11.99764919281006,-2.91742920875549,6.78840065002441
119,2084702888,49.74275207519531,-83.81052398681641,7.90689086914062,9.94415283203125,1.19948959350586,0.44304850697517,-14.59491062164307,-2.44668078422546,4.98034906387329
120,2084719555,49.09652709960938,-83.80913543701172,8.32115650177002,10.11719894409180,0.88883942365646,0.57348251342773,-13.52621459960938,1.02705049514771,2.33912587165833
121,2084736222,48.44084930419922,-83.75973510742188,8.79042053222656,10.08313560485840,0.83242964744568,0.83882087469101,-10.72150516510010,3.19441080093384,0.44142866134644
122,2084752889,47.96000289916992,-83.70854187011719,9.13466167449951,10.20716190338135,1.01209187507629,0.92515796422958,-7.49131917953491,2.69743394851685,-0.11494981497526
123,2084769556,47.76148986816406,-83.66624450683594,9.26692581176758,10.16388225555420,1.06733906269073,1.23100244998932,-3.16605019569397,1.32018756866455,-0.61649769544601
124,2084786223,48.06678771972656,-83.67615509033203,8.87113952636719,9.84334945678711,0.93596500158310,1.22192466259003,-4.70788335800171,-3.39428472518921,-0.65121567249298
125,2084802890,48.70204162597656,-83.72743225097656,8.10293579101562,9.70133972167969,0.76286190748215,0.91970711946487,-7.23915004730225,-6.88704013824463,-0.39946863055229
126,2084819557,49.29008483886719,-83.75854492187500,7.38208484649658,9.73969268798828,0.77852499485016,0.93350011110306,-7.37868738174438,-5.85639619827271,-1.03494536876678
127,2084836224,49.90688705444336,-83.80698394775391,6.60003376007080,9.46062278747559,0.77587676048279,0.93254959583282,-8.92335319519043,-6.79611444473267,-0.40236285328865
128,2084852891,50.57136154174805,-83.87577056884766,5.74962139129639,9.31503582000732,0.94717943668365,0.66690284013748,-10.29175281524658,-7.89547872543335,0.33192160725594
129,2084869558,50.97069549560547,-83.90889739990234,5.16037368774414,9.48420619964600,1.09114110469818,0.53516346216202,-10.49131202697754,-5.21088027954102,-0.16717416048050
130,2084886225,50.98705291748047,-83.93292236328125,4.94833660125732,9.51473712921143,1.37751114368439,0.61540669202805,-10.99100303649902,-2.99882555007935,0.94329684972763
131,2084902892,50.79568099975586,-84.00128936767578,4.89617395401001,9.49954986572266,1.33330488204956,0.76558631658554,-13.47667026519775,-3.85461139678955,3.68378114700317
132,2084919559,50.61552810668945,-84.12090301513672,4.78088569641113,9.66721630096436,1.02475166320801,0.69975471496582,-16.77436828613281,-6.12218570709229,5.78679275512695
133,2084936226,50.47583389282227,-84.25495147705078,4.65445518493652,9.99429321289062,0.65878260135651,0.64807069301605,-15.57220268249512,-6.77269601821899,6.37269592285156
134,2084952893,50.51611328125000,-84.35729217529297,4.34773445129395,10.24747371673584,0.52904868125916,0.67126703262329,-15.41224002838135,-6.37523794174194,4.24107646942139
135,2084969560,50.74137496948242,-84.42560577392578,3.90198087692261,10.16517925262451,0.51437944173813,0.61917120218277,-12.38256835937500,-5.65556859970093,2.18233776092529
136,2084986227,50.65204620361328,-84.45002746582031,3.82208514213562,9.99939727783203,0.76487433910370,0.73118966817856,-9.61276912689209,-2.34428000450134,1.50525248050690
137,2085002894,50.46596527099609,-84.47976684570312,3.85469746589661,9.75299930572510,0.96790128946304,0.99446415901184,-8.54268360137939,-2.02625942230225,2.16219258308411
138,2085019561,50.29129028320312,-84.52461242675781,3.86755752563477,9.59422588348389,0.88684171438217,0.98423939943314,-9.28418445587158,-2.71717548370361,2.77145504951477
139,2085036228,50.03334426879883,-84.56887817382812,3.96910524368286,9.66943073272705,0.58191651105881,0.92279314994812,-8.84770298004150,-2.30773043632507,3.07362055778503
140,2085052895,49.49734497070312,-84.59985351562500,4.36870622634888,9.65734577178955,0.52506512403488,0.88532429933548,-7.70897579193115,-0.51819622516632,3.53578901290894
141,2085069562,48.77409362792969,-84.62323760986328,4.99130439758301,9.62071990966797,0.53251409530640,0.84197282791138,-5.62551116943359,0.68313568830490,4.01693677902222
142,2085086229,48.05099105834961,-84.62469482421875,5.65861463546753,9.75919055938721,0.48539572954178,0.86139792203903,-2.95171046257019,1.69178926944733,3.21990728378296
143,2085102896,47.46033859252930,-84.61224365234375,6.22286224365234,9.77272796630859,0.52680075168610,0.99808877706528,-1.15403139591217,1.80518960952759,2.23831319808960
144,2085119563,47.17847442626953,-84.63104248046875,6.50397777557373,9.81985282897949,0.37463122606277,0.92227447032928,0.46103501319885,-0.64771962165833,2.55619263648987
145,2085136230,46.81764984130859,-84.66795349121094,6.89464902877808,9.85441493988037,0.46507734060287,0.95186293125153,2.26447653770447,-0.96403652429581,3.77285957336426
146,2085152897,46.29899597167969,-84.73295593261719,7.44457149505615,9.87477779388428,0.40656903386116,1.03930211067200,2.31342244148254,-1.51636159420013,5.58257675170898
147,2085169564,45.78120040893555,-84.82312774658203,7.99799537658691,9.85614395141602,0.42285662889481,0.95050311088562,2.56210899353027,-2.64287257194519,6.66210079193115
148,2085186231,45.14530563354492,-84.91219329833984,8.68695735931396,9.79572486877441,0.33603301644325,0.78315991163254,3.59681224822998,-2.16283941268921,7.05834388732910
149,2085202898,44.44849395751953,-84.98503112792969,9.45379447937012,9.71759891510010,0.49270424246788,0.84073507785797,4.59249258041382,-1.30569732189178,6.61711215972900
150,2085219565,43.93539047241211,-85.04457092285156,10.04075241088867,9.62906169891357,0.58563035726547,0.78725463151932,4.87243843078613,-1.47876214981079,5.34062576293945
151,2085236232,43.59961318969727,-85.09935760498047,10.44031524658203,9.62201404571533,0.69172203540802,0.87112855911255,4.31231451034546,-1.99726557731628,4.41833829879761
152,2085252899,43.30640411376953,-85.15184783935547,10.78568363189697,9.76066493988037,0.61904668807983,0.88001763820648,3.63079929351807,-2.13017034530640,4.10781049728394
153,2085269566,43.35955429077148,-85.22586822509766,10.78300571441650,9.78407955169678,0.42484140396118,1.03397119045258,3.60398268699646,-4.28734827041626,3.69863414764404
154,2085286233,43.80555725097656,-85.31938934326172,10.40264797210693,9.84728717803955,0.32892388105392,0.84506964683533,4.58081340789795,-6.41705894470215,3.17736506462097
155,2085302900,44.18435668945312,-85.39530181884766,10.10394668579102,9.87712097167969,0.36645415425301,0.79083251953125,5.63614606857300,-5.32102680206299,2.79676008224487
156,2085319567,44.56190872192383,-85.45489501953125,9.81546974182129,9.87479877471924,0.36377879977226,0.75196754932404,6.11527013778687,-4.56120061874390,2.18557691574097
157,2085336234,44.73649597167969,-85.50630187988281,9.73945903778076,10.00391769409180,0.26498472690582,0.67274004220963,6.64025449752808,-3.49073028564453,2.58577561378479
158,2085352901,44.49428558349609,-85.54816436767578,10.07927894592285,10.01913452148438,0.23320044577122,0.67983400821686,6.27226352691650,-1.72592508792877,3.55022215843201
159,2085369568,44.00271606445312,-85.58500671386719,10.67755508422852,9.97185707092285,0.25807639956474,0.64256721735001,6.82457590103149,-0.69662708044052,4.18080615997314
160,2085386235,43.32342147827148,-85.61260223388672,11.45797538757324,9.90688514709473,0.34595212340355,0.62290060520172,6.47916316986084,0.23127634823322,4.39779758453369
161,2085402902,42.54841613769531,-85.61983489990234,12.32012176513672,9.90357017517090,0.27938666939735,0.55522376298904,6.11332273483276,1.33655393123627,3.88529944419861
162,2085419569,41.72845458984375,-85.60208129882812,13.24419307708740,9.82964706420898,0.31570264697075,0.55165582895279,6.75563907623291,2.59806942939758,3.08695197105408
163,2085436236,40.84701538085938,-85.57406616210938,14.23958873748779,9.81143379211426,0.37618947029114,0.64504855871201,7.20118379592896,3.24252343177795,2.99647498130798
164,2085452903,39.92156600952148,-85.53849792480469,15.28061866760254,9.74510860443115,0.35417976975441,0.64325708150864,7.32457447052002,3.71224808692932,2.95744156837463
165,2085469570,38.89670181274414,-85.49446105957031,16.42082786560059,9.75056552886963,0.42263257503510,0.71211546659470,7.24016714096069,4.39034414291382,3.10047578811646
166,2085486237,37.72682189941406,-85.44908142089844,17.70106697082520,9.81143665313721,0.40796643495560,0.74154061079025,6.96421575546265,4.85800647735596,3.71493744850159
167,2085502904,36.39946365356445,-85.39198303222656,19.12627220153809,9.79177474975586,0.38784211874008,0.79852277040482,6.31097745895386,5.79579067230225,4.05257654190063
168,2085519571,35.02960968017578,-85.31609344482422,20.59207534790039,9.75472450256348,0.36888250708580,0.85152840614319,6.09154033660889,6.82060670852661,3.77316761016846
169,2085536238,33.80337142944336,-85.24124145507812,21.90656280517578,9.77890968322754,0.28624925017357,0.91685366630554,5.79798030853271,6.33484792709351,3.48310375213623
170,2085552905,32.66831207275391,-85.17063140869141,23.14119148254395,9.80316543579102,0.26746702194214,0.92469048500061,6.04425859451294,5.88561391830444,3.48720145225525
171,2085569572,31.49359893798828,-85.09407806396484,24.40819549560547,9.76943206787109,0.26552388072014,0.96214485168457,6.13250780105591,6.28619718551636,3.69944143295288
172,2085586239,30.30850982666016,-85.03240966796875,25.69118309020996,9.74439907073975,0.24029950797558,0.99534261226654,6.28477573394775,5.53918981552124,4.44404172897339
173,2085602906,29.12634468078613,-84.97675323486328,26.97593116760254,9.80279731750488,0.25028479099274,1.07035958766937,6.40916347503662,5.18538808822632,4.82095813751221
174,2085619573,28.02559089660645,-84.92858886718750,28.17830467224121,9.77144718170166,0.21632558107376,1.14472889900208,6.40420722961426,4.53537607192993,4.84253644943237
175,2085636240,27.21572494506836,-84.89719390869141,29.08650779724121,9.67237377166748,0.20189221203327,1.11270153522491,6.14956474304199,2.85201930999756,4.05832624435425
176,2085652907,26.66832733154297,-84.87745666503906,29.73506546020508,9.73741054534912,0.14752845466137,1.07485055923462,6.68056774139404,1.58790445327759,3.22894859313965
177,2085669574,26.28008842468262,-84.85707855224609,30.23357391357422,9.83426094055176,0.13818459212780,1.11250305175781,7.24025583267212,1.25501608848572,2.51938724517822
178,2085686241,26.09258079528809,-84.84748840332031,30.53128433227539,9.82812595367432,0.17810912430286,1.08189690113068,7.05980205535889,0.17441608011723,1.84007406234741
179,2085702908,25.97731399536133,-84.85067749023438,30.74284934997559,9.85252475738525,0.21740218997002,0.98629498481750,6.21422481536865,-0.72133058309555,1.76176345348358
180,2085719575,25.90530586242676,-84.85688781738281,30.89752578735352,9.79266643524170,0.21232672035694,0.98101663589478,5.46041679382324,-1.01203465461731,1.56610774993896
181,2085736242,25.93837738037109,-84.86843872070312,30.93982887268066,9.82031631469727,0.29419136047363,0.96944320201874,5.00206470489502,-1.57781934738159,1.16555082798004
182,2085752909,25.98126792907715,-84.88297271728516,30.94985198974609,9.78034973144531,0.37552413344383,1.01619505882263,3.87271094322205,-1.79816508293152,1.10140371322632
183,2085769576,26.12172317504883,-84.91693115234375,30.83349990844727,9.75857448577881,0.36246609687805,1.03577291965485,1.56473743915558,-3.16275858879089,0.95894598960876
184,2085786243,26.30702018737793,-84.96086883544922,30.64385223388672,9.73454475402832,0.27544939517975,1.03200602531433,0.33811971545219,-3.85460972785950,0.92685323953629
185,2085802910,26.55606269836426,-85.01335906982422,30.37752532958984,9.80871105194092,0.22359998524189,0.92063647508621,-0.34513115882874,-4.48251724243164,0.81884449720383
186,2085819577,26.79878425598145,-85.04488372802734,30.12258911132812,9.90045356750488,0.18589530885220,0.93733644485474,-0.33968845009804,-3.34783577919006,0.31478649377823
187,2085836244,26.99892234802246,-85.05715942382812,29.91184997558594,9.91069126129150,0.14948247373104,0.96742576360703,-0.44961819052696,-2.21005582809448,-0.01087259128690
188,2085852911,27.16819000244141,-85.05660247802734,29.73215484619141,9.86374378204346,0.16502928733826,0.99975937604904,0.08496373146772,-1.43026435375214,-0.17366689443588
189,2085869578,27.40849113464355,-85.05854797363281,29.49019241333008,9.85964965820312,0.20622323453426,0.98098689317703,0.55404740571976,-1.71753609180450,-0.39305242896080
190,2085886245,27.73669242858887,-85.06033325195312,29.15720367431641,9.87389850616455,0.27375698089600,0.96068871021271,0.36405253410339,-1.92863643169403,-0.81470161676407
191,2085902912,28.13806533813477,-85.05882263183594,28.74462318420410,9.80079936981201,0.29566961526871,0.95120877027512,-0.05661687254906,-1.96070361137390,-1.26837933063507
192,2085919579,28.48321342468262,-85.05787658691406,28.38101577758789,9.76862239837646,0.29070526361465,0.89202684164047,-0.63534867763519,-1.89345741271973,-1.02966892719269
193,2085936246,28.77227401733398,-85.06977844238281,28.05829811096191,9.78161811828613,0.31151932477951,0.90709239244461,-1.52951359748840,-2.46269965171814,-0.47581994533539
194,2085952913,29.05779075622559,-85.10134887695312,27.72555923461914,9.76401042938232,0.32536917924881,0.88325434923172,-2.17234110832214,-3.53141498565674,0.08548878133297
195,2085969580,29.34422874450684,-85.15547943115234,27.37694740295410,9.76883125305176,0.26362481713295,0.84524577856064,-3.21499562263489,-4.75257730484009,0.68941056728363
196,2085986247,29.57402610778809,-85.21569824218750,27.07781410217285,9.81454753875732,0.19288329780102,0.78766620159149,-3.52150273323059,-4.93929338455200,1.13534057140350
197,2086002914,29.81276512145996,-85.26348114013672,26.77351951599121,9.79009056091309,0.13303461670876,0.82374572753906,-3.36491990089417,-4.27208328247070,0.75428766012192
198,2086019581,30.10536003112793,-85.29709625244141,26.41948699951172,9.75087165832520,0.10799458622932,0.79953932762146,-2.73127460479736,-3.65161585807800,0.18006369471550
199,2086036248,30.40662193298340,-85.32592773437500,26.06860733032227,9.83453464508057,0.13130855560303,0.79923635721207,-2.39428782463074,-3.40669369697571,0.04481581971049
200,2086052915,30.68285560607910,-85.34768676757812,25.74746322631836,9.88465595245361,0.16813622415066,0.84842985868454,-1.85688209533691,-2.95086455345154,-0.01001456379890
201,2086069582,31.13125801086426,-85.36536407470703,25.26759910583496,9.85359573364258,0.11050619930029,0.84111303091049,-1.31644165515900,-3.14641785621643,-0.80268925428391
202,2086086249,31.71651268005371,-85.37107849121094,24.67698287963867,9.88006782531738,0.11323985457420,0.83977764844894,-0.02241111174226,-2.83822011947632,-1.62791752815247
203,2086102916,32.33840560913086,-85.37102508544922,24.06397247314453,9.95521163940430,0.19306451082230,0.79856503009796,1.28731346130371,-2.60697579383850,-1.85215675830841
204,2086119583,32.78673171997070,-85.35518646240234,23.63757705688477,9.97310829162598,0.26915279030800,0.83445620536804,1.85418653488159,-1.35359263420105,-1.60370063781738
205,2086136250,33.14522171020508,-85.33415222167969,23.29071044921875,9.88819980621338,0.28975337743759,0.89715117216110,1.21303665637970,-0.89723855257034,-1.45631253719330
206,2086152917,33.61935043334961,-85.32806396484375,22.81347846984863,9.82586479187012,0.27237954735756,0.88154685497284,0.40817037224770,-2.01835775375366,-1.49158132076263
207,2086169584,34.04743957519531,-85.32735443115234,22.38234901428223,9.82812404632568,0.31776687502861,0.86048775911331,0.67948567867279,-2.16023898124695,-1.10269057750702
208,2086186251,34.40518951416016,-85.31053161621094,22.02443313598633,9.88276863098145,0.29270002245903,0.82971513271332,0.54850232601166,-1.19716298580170,-1.35989320278168
209,2086202918,34.77716445922852,-85.28462219238281,21.65280532836914,9.95753192901611,0.30827799439430,0.81336611509323,0.84677487611771,-0.77525794506073,-1.72347855567932
210,2086219585,35.09548187255859,-85.27307891845703,21.30283164978027,9.98395442962646,0.44417500495911,0.77583628892899,-1.23664522171021,-1.46021842956543,-1.15021502971649
211,2086236252,35.33479690551758,-85.24494934082031,21.02671813964844,9.88958740234375,0.37108412384987,0.84428054094315,-1.58387660980225,-0.44430351257324,-1.43566858768463
212,2086252919,35.96723175048828,-85.25311279296875,20.29758071899414,9.90889167785645,0.34350603818893,0.71668612957001,-5.04654788970947,-3.53530836105347,-2.00095391273499
213,2086269586,36.33362197875977,-85.20425415039062,19.84606170654297,10.03746318817139,0.29683873057365,0.74769312143326,-4.50185489654541,-0.00429012766108,-2.89015007019043
214,2086286253,36.80408859252930,-85.14356994628906,19.44018554687500,9.76637840270996,0.34415450692177,0.86835688352585,4.35415315628052,0.67153310775757,-3.17667961120605
215,2086302920,37.70396423339844,-85.11725616455078,18.66518402099609,9.87451934814453,0.38316500186920,0.77153933048248,8.25063896179199,-2.16102075576782,-3.43853116035461
216,2086319587,38.35950469970703,-85.05744171142578,18.13429260253906,9.95805644989014,0.48086246848106,0.72421246767044,8.24043369293213,0.11937441676855,-3.69633626937866
217,2086336254,38.92755126953125,-84.98460388183594,17.69478034973145,9.87480354309082,0.41660180687904,0.82178431749344,8.46448135375977,0.96715503931046,-3.86229395866394
218,2086352921,39.56935119628906,-84.93562316894531,17.22744941711426,9.78211307525635,0.46180480718613,0.84638708829880,10.96250247955322,-0.32721516489983,-3.11892366409302
219,2086369588,40.03884506225586,-84.90100097656250,16.91303634643555,9.78688335418701,0.53586220741272,0.82182556390762,10.08225727081299,-0.49454298615456,-1.94938313961029
220,2086386255,40.27248764038086,-84.85608673095703,16.80342864990234,9.74088001251221,0.50875717401505,0.77750575542450,7.78881645202637,0.63179498910904,-1.54529142379761
221,2086402922,40.30971908569336,-84.79918670654297,16.86791038513184,9.72618579864502,0.53911906480789,0.81559336185455,6.82955598831177,1.80074584484100,-1.26787996292114
222,2086419589,40.30480575561523,-84.75080871582031,16.96046257019043,9.65587139129639,0.54741179943085,0.85304141044617,5.67391109466553,1.49857985973358,-0.84256827831268
223,2086436256,40.06856155395508,-84.70006561279297,17.28388214111328,9.59105587005615,0.67179030179977,0.79838722944260,5.59809684753418,2.44723558425903,0.03381516784430
224,2086452923,39.71702957153320,-84.65210723876953,17.68993377685547,9.60622215270996,0.66144973039627,0.80428659915924,3.79860067367554,2.62509059906006,0.55183207988739
225,2086469590,39.36943817138672,-84.61191558837891,18.04117584228516,9.70644760131836,0.65764802694321,0.84973943233490,0.81142956018448,2.08701896667480,0.65177285671234
226,2086486257,39.00078201293945,-84.57389831542969,18.37881088256836,9.76734161376953,0.64895695447922,0.84713679552078,-1.22641289234161,1.94869744777679,0.70740354061127
227,2086502924,38.75342941284180,-84.55425262451172,18.55479049682617,9.72805500030518,0.59484606981277,0.86526215076447,-3.20606946945190,0.54854077100754,0.73706305027008
228,2086519591,38.62342834472656,-84.55374908447266,18.60547828674316,9.75126075744629,0.60328483581543,0.91187268495560,-4.52653312683105,-0.84893298149109,0.84157586097717
229,2086536258,38.72109222412109,-84.58242797851562,18.41632270812988,9.66467380523682,0.51651459932327,0.91338258981705,-4.74152565002441,-3.04392862319946,0.91179293394089
230,2086552925,39.12103652954102,-84.64405059814453,17.94264411926270,9.63245296478271,0.50405907630920,0.85283827781677,-3.76589965820312,-5.58791017532349,0.90850174427032
231,2086569592,39.75314712524414,-84.70942687988281,17.25705337524414,9.66501712799072,0.49803075194359,0.71393978595734,-2.43339920043945,-6.48585462570190,0.21336024999619
232,2086586259,40.39087295532227,-84.75611114501953,16.60962867736816,9.84700870513916,0.48607486486435,0.62447828054428,0.14638297259808,-5.46886157989502,-0.26177456974983
233,2086602926,40.82775497436523,-84.75772094726562,16.18025779724121,10.07214641571045,0.45410311222076,0.76506757736206,1.14403605461121,-2.62863135337830,-1.06592369079590
234,2086619593,41.19169235229492,-84.73899078369141,15.83574295043945,10.01056194305420,0.50055831670761,0.90523129701614,1.71589076519012,-1.43249273300171,-1.50756347179413
235,2086636260,41.40539169311523,-84.72043609619141,15.64442062377930,9.86009120941162,0.58076554536819,0.93996602296829,1.64700531959534,-0.90423071384430,-0.89234638214111
236,2086652927,41.64357376098633,-84.71872711181641,15.41514587402344,9.81138706207275,0.62243050336838,0.83945417404175,1.21038579940796,-1.78894472122192,-0.35237956047058
237,2086669594,42.04293060302734,-84.73344421386719,15.02803516387939,9.88302612304688,0.63640040159225,0.81176495552063,1.28832507133484,-3.11410713195801,-0.35012558102608
238,2086686261,42.38337326049805,-84.72266387939453,14.71681213378906,9.84525966644287,0.62925988435745,0.75444900989532,2.37876057624817,-1.70553696155548,-1.04337179660797
239,2086702928,42.70912551879883,-84.69507598876953,14.41909313201904,9.80459403991699,0.57036966085434,0.78602772951126,2.29364895820618,-0.92108386754990,-1.67686343193054
240,2086719595,42.99615097045898,-84.64877319335938,14.16867065429688,9.80494308471680,0.51648712158203,0.85826045274734,2.20688629150391,0.02226383797824,-2.29562759399414
241,2086736262,43.27653121948242,-84.58847045898438,13.91490554809570,9.79810047149658,0.50363320112228,0.79423564672470,2.91224718093872,0.67698848247528,-2.80295109748840
242,2086752929,43.33291625976562,-84.52106475830078,13.89895915985107,9.86389923095703,0.47547590732574,0.74799758195877,2.97734189033508,1.85066473484039,-2.18087005615234
243,2086769596,43.26553344726562,-84.45613861083984,14.01140499114990,9.77958965301514,0.47123152017593,0.73063594102859,3.62191152572632,2.28136825561523,-1.51798796653748
244,2086786263,43.17186355590820,-84.39881134033203,14.15779018402100,9.75611495971680,0.54289036989212,0.71875417232513,3.54885053634644,2.05537438392639,-1.08733582496643
245,2086802930,43.06525039672852,-84.34646606445312,14.30284881591797,9.71895980834961,0.59001535177231,0.81364631652832,3.02854204177856,1.86140954494476,-0.84936839342117
246,2086819597,43.03974533081055,-84.31335449218750,14.37488842010498,9.72221469879150,0.63231647014618,0.79492688179016,2.93026566505432,0.69594186544418,-0.42239180207253
247,2086836264,43.01773834228516,-84.28039550781250,14.44447708129883,9.75230407714844,0.59161227941513,0.79115968942642,3.30778431892395,0.69157493114471,-0.38949233293533
248,2086852931,43.07984542846680,-84.24858093261719,14.42925167083740,9.72941589355469,0.60600435733795,0.87858188152313,3.15985774993896,0.28954514861107,-0.72549253702164
249,2086869598,43.26597976684570,-84.22501373291016,14.27210235595703,9.72210025787354,0.59872764348984,0.89476281404495,2.42291641235352,-0.64085525274277,-0.98765110969543
250,2086886265,43.49560165405273,-84.21395874023438,14.07362937927246,9.70800018310547,0.55788201093674,0.86700129508972,2.20104646682739,-1.38676130771637,-0.68949389457703
251,2086902932,43.67679214477539,-84.20861053466797,13.92118072509766,9.77759265899658,0.54200404882431,0.87885463237762,2.35195660591125,-1.42757523059845,-0.22738957405090
252,2086919599,43.89899063110352,-84.21172332763672,13.72895050048828,9.84063339233398,0.55606180429459,0.92774426937103,2.36078023910522,-1.96927094459534,-0.05509291961789
253,2086936266,44.17901611328125,-84.23214721679688,13.46545219421387,9.80478477478027,0.56639438867569,0.93975877761841,1.68655145168304,-3.01411485671997,0.37771686911583
254,2086952933,44.37919616699219,-84.25331878662109,13.27011871337891,9.73492240905762,0.54389518499374,0.98191350698471,0.54692715406418,-2.78097581863403,0.67951130867004
255,2086969600,44.53837203979492,-84.27669525146484,13.09882545471191,9.71177673339844,0.56616157293320,0.94757187366486,0.13972367346287,-2.72867441177368,0.92794162034988
256,2086986267,44.79623413085938,-84.31179809570312,12.82798099517822,9.71067810058594,0.58208316564560,0.90922808647156,-0.09705931693316,-3.65489363670349,0.99322837591171
257,2087002934,45.15127182006836,-84.35315704345703,12.46741771697998,9.79575538635254,0.60243964195251,0.82519364356995,0.51054435968399,-4.28830862045288,0.92806977033615
258,2087019601,45.55493545532227,-84.39982604980469,12.06454277038574,9.77599716186523,0.62202745676041,0.79815119504929,0.66596221923828,-4.67904281616211,0.98230457305908
259,2087036268,45.97303771972656,-84.43437194824219,11.64116668701172,9.82686710357666,0.61951947212219,0.77407169342041,0.35846894979477,-4.24791765213013,0.43065837025642
260,2087052935,46.32165527343750,-84.45592498779297,11.28349494934082,9.82026386260986,0.61590844392776,0.83612626791000,0.08128190040588,-3.42059516906738,0.15309990942478
261,2087069602,46.57314300537109,-84.48051452636719,11.01153850555420,9.82087993621826,0.61156827211380,0.83345276117325,-0.75658637285233,-3.19615745544434,0.63865906000137
262,2087086269,46.78671264648438,-84.51584625244141,10.76116847991943,9.81576633453369,0.59024405479431,0.86648881435394,-1.48182296752930,-3.51202678680420,1.21237099170685
263,2087102936,46.98927688598633,-84.55677032470703,10.51387596130371,9.82408428192139,0.61454665660858,0.83431524038315,-1.95200788974762,-3.73337125778198,1.50407385826111
264,2087119603,47.15988922119141,-84.58630371093750,10.30518436431885,9.84820556640625,0.64107203483582,0.79688787460327,-2.02809047698975,-3.12850165367126,1.13385510444641
265,2087136270,47.31029510498047,-84.60868072509766,10.10506629943848,9.80712699890137,0.64840942621231,0.81647425889969,-2.32252144813538,-2.76437878608704,0.88262009620667
266,2087152937,47.42946243286133,-84.63012695312500,9.93182563781738,9.77584171295166,0.59559392929077,0.83807706832886,-2.57312870025635,-2.60762906074524,0.95128774642944
267,2087169604,47.47640609741211,-84.65148925781250,9.82196521759033,9.78573417663574,0.58765280246735,0.83038938045502,-2.92814660072327,-2.33009004592896,1.21079564094543
268,2087186271,47.36862564086914,-84.66498565673828,9.87888908386230,9.80811119079590,0.61005741357803,0.82065492868423,-2.38557982444763,-1.32841551303864,1.47548997402191
269,2087202938,47.26856994628906,-84.68344879150391,9.93214130401611,9.74527072906494,0.61141896247864,0.90150147676468,-2.24837255477905,-1.56379616260529,1.68382382392883
270,2087219605,47.38286590576172,-84.72017669677734,9.78364658355713,9.72496986389160,0.56149619817734,0.82871627807617,-2.05883812904358,-3.16651082038879,1.68752455711365
271,2087236272,47.59159088134766,-84.75394439697266,9.53813743591309,9.75043106079102,0.54107737541199,0.78398150205612,-1.70238673686981,-3.40185379981995,1.24031448364258
272,2087252939,47.80852890014648,-84.77764892578125,9.29931259155273,9.84338474273682,0.54321771860123,0.84287118911743,-0.58646684885025,-2.93677783012390,0.83404552936554
273,2087269606,47.64071655273438,-84.77861785888672,9.46549034118652,9.86497688293457,0.63975614309311,0.73494505882263,0.41135916113853,-0.39781641960144,1.31689620018005
274,2087286273,47.19844436645508,-84.78541564941406,9.87297725677490,9.78236675262451,0.60448467731476,0.87891721725464,-1.57204353809357,0.34045040607452,2.46592020988464
275,2087302940,46.86480712890625,-84.82320404052734,10.13420104980469,9.72500610351562,0.51879614591599,0.83283007144928,-4.00380373001099,-1.54408764839172,3.27792048454285
276,2087319607,46.48190307617188,-84.85775756835938,10.41413688659668,9.74348163604736,0.54922908544540,0.84949463605881,-5.15254592895508,-1.31795275211334,3.24178075790405
277,2087336274,46.18080139160156,-84.89236450195312,10.61024093627930,9.79392528533936,0.51094728708267,0.85290080308914,-5.82303524017334,-1.70713782310486,2.89125776290894
278,2087352941,45.91919708251953,-84.91781616210938,10.75029945373535,9.82054042816162,0.46598255634308,0.85437977313995,-6.72078561782837,-1.54274249076843,2.27742385864258
279,2087369608,45.56212234497070,-84.92001342773438,10.97837638854980,9.88700008392334,0.46287247538567,0.89798390865326,-7.24676942825317,-0.24973669648170,1.59739422798157
280,2087386275,45.04956817626953,-84.89266967773438,11.32873153686523,9.86217880249023,0.42028531432152,0.98472434282303,-8.77929306030273,1.48500549793243,0.83439159393311
281,2087402942,44.72687911987305,-84.87665557861328,11.47444248199463,9.80000400543213,0.41431453824043,1.00642454624176,-10.10781097412109,0.20462630689144,0.53269946575165
282,2087419609,44.62696075439453,-84.86997222900391,11.41174030303955,9.83157348632812,0.40317010879517,0.93823760747910,-9.48287296295166,-0.99214655160904,0.11564776301384
283,2087436276,44.69875335693359,-84.84816741943359,11.19661712646484,9.81065177917480,0.35600650310516,0.87942111492157,-8.02887821197510,-0.90529388189316,-1.08907771110535
284,2087452943,45.03366470336914,-84.81835937500000,10.77207469940186,9.79863452911377,0.33669117093086,0.83555799722672,-4.76225948333740,-1.37442898750305,-2.23308181762695
285,2087469610,45.61486053466797,-84.78680419921875,10.17076015472412,9.86540126800537,0.32503381371498,0.70158028602600,-0.48568087816238,-2.01495099067688,-2.98230457305908
286,2087486277,46.33230972290039,-84.73482513427734,9.48031234741211,9.94461345672607,0.30010557174683,0.63515049219131,2.20551609992981,-1.57821631431580,-4.22676134109497
287,2087502944,47.03365325927734,-84.64917755126953,8.83262252807617,9.99987983703613,0.35948830842972,0.66393291950226,4.17588901519775,-0.09426755458117,-5.53222894668579
288,2087519611,47.65071487426758,-84.55615997314453,8.29549312591553,9.93158912658691,0.33975440263748,0.69947791099548,5.33420991897583,0.52638590335846,-5.51861572265625
289,2087536278,48.12702941894531,-84.45893096923828,7.92717742919922,9.91282558441162,0.38839128613472,0.59733062982559,7.55120801925659,1.35011601448059,-5.05980205535889
290,2087552945,48.29980468750000,-84.32781219482422,7.88440179824829,10.06643581390381,0.46853977441788,0.62662875652313,8.29977989196777,4.03564739227295,-5.39079666137695
291,2087569612,48.39284515380859,-84.17886352539062,7.92257452011108,10.03786754608154,0.53811794519424,0.77583765983582,8.35371971130371,5.08833026885986,-5.88043498992920
292,2087586279,48.48959350585938,-84.03356933593750,7.97267580032349,9.85853004455566,0.56571900844574,0.77353334426880,9.45399093627930,5.00442266464233,-5.66188144683838
293,2087602946,48.51470565795898,-83.89915466308594,8.09354305267334,9.74619293212891,0.56674385070801,0.80124151706696,9.40802860260010,4.90500688552856,-4.87306118011475
294,2087619613,48.58351135253906,-83.76293945312500,8.18686771392822,9.82425498962402,0.44520100951195,0.68645077943802,10.14284515380859,4.83174228668213,-5.08240747451782
295,2087636280,48.54228973388672,-83.61349487304688,8.40166187286377,9.77714824676514,0.54129552841187,0.83352160453796,10.93425464630127,5.98180532455444,-5.13292884826660
296,2087652947,48.59822463989258,-83.47857666015625,8.54266738891602,9.75814914703369,0.57161045074463,0.93783134222031,12.28555488586426,5.04971933364868,-4.79528951644897
297,2087669614,48.81585311889648,-83.37339019775391,8.52832317352295,9.70287704467773,0.63051944971085,0.94636857509613,12.66345787048340,3.05989313125610,-4.15890264511108
298,2087686281,49.00297164916992,-83.28533935546875,8.52130794525146,9.65601539611816,0.70350986719131,0.92155170440674,11.64358520507812,2.43936133384705,-3.33734965324402
299,2087702948,49.20192337036133,-83.22176361083984,8.48457241058350,9.65534687042236,0.68842440843582,0.95990055799484,10.12753868103027,1.26681089401245,-2.41553473472595
300,2087719615,49.47430801391602,-83.18223571777344,8.35696029663086,9.71764183044434,0.70661365985870,0.83201318979263,9.25376129150391,-0.16787849366665,-1.73875677585602
301,2087736282,49.73367309570312,-83.14717102050781,8.23301124572754,9.73488044738770,0.76803743839264,0.82265901565552,8.77112960815430,-0.32932814955711,-1.51620817184448
302,2087752949,50.05101013183594,-83.10659027099609,8.03791236877441,9.74321174621582,0.81652295589447,0.72262215614319,7.99419355392456,-0.52407443523407,-2.10477542877197
303,2087769616,50.19328689575195,-83.03900146484375,7.99247741699219,9.82344627380371,0.87722510099411,0.84179079532623,6.57874345779419,1.34521114826202,-2.65256643295288
304,2087786283,50.22983169555664,-82.96168518066406,8.05067825317383,9.85482120513916,1.03612232208252,0.94033038616180,5.86512327194214,2.24238538742065,-2.66720438003540
305,2087802950,50.32172393798828,-82.90361785888672,8.01998424530029,9.78447818756104,1.04002213478088,0.80089396238327,4.25978231430054,1.02986741065979,-2.16267228126526
306,2087819617,50.41371917724609,-82.85691833496094,7.97401475906372,9.80782222747803,0.94554907083511,0.61949443817139,3.54689216613770,0.52369654178619,-1.70260453224182
307,2087836284,50.16861724853516,-82.76391601562500,8.26622390747070,10.01457595825195,0.83609950542450,0.76116597652435,3.04791760444641,4.21252679824829,-2.25054931640625
308,2087852951,49.93340301513672,-82.65222930908203,8.54275226593018,9.91629314422607,0.90472692251205,1.00340604782104,2.70085287094116,4.88250494003296,-3.15277004241943
309,2087869618,49.98144149780273,-82.55901336669922,8.53052806854248,9.70860481262207,0.97356706857681,1.03115463256836,3.06500124931335,2.54533267021179,-3.66132283210754
310,2087886285,50.14907836914062,-82.48349761962891,8.40420436859131,9.61518383026123,0.96001404523849,1.02605712413788,3.23448061943054,1.14513742923737,-3.43692994117737
311,2087902952,50.41000747680664,-82.43766021728516,8.19727420806885,9.57937526702881,0.89656400680542,1.06704139709473,3.82662129402161,-0.52431768178940,-2.50198984146118
312,2087919619,50.73912811279297,-82.41056060791016,7.91130304336548,9.61533927917480,0.88458424806595,1.04766595363617,3.37335276603699,-1.72265911102295,-2.03288006782532
313,2087936286,51.03936004638672,-82.38235473632812,7.66693449020386,9.68601131439209,0.89609867334366,1.03107154369354,4.05503511428833,-1.45772135257721,-1.87321054935455
314,2087952953,51.34564208984375,-82.34835052490234,7.42392206192017,9.72565174102783,0.87743699550629,0.92901843786240,4.50675296783447,-1.24749219417572,-2.14311695098877
315,2087969620,51.43268966674805,-82.27970886230469,7.40492582321167,9.91043090820312,0.86258369684219,0.97100836038589,4.68149614334106,1.43750643730164,-2.65717697143555
316,2087986287,51.40195083618164,-82.20223236083984,7.52025365829468,9.99849319458008,0.92163622379303,1.10643148422241,5.58923578262329,2.61038899421692,-2.38974165916443
317,2088002954,51.45751571655273,-82.12476348876953,7.56230115890503,9.90985107421875,0.94271749258041,1.04386281967163,6.41619300842285,2.15094828605652,-2.76209926605225
318,2088019621,51.55209732055664,-82.04477691650391,7.59414339065552,9.76766967773438,0.98520731925964,0.97075986862183,8.14588451385498,2.17292428016663,-2.92773723602295
319,2088036288,51.76057434082031,-81.98227691650391,7.52301359176636,9.66779327392578,1.08258366584778,0.94461685419083,8.86676692962646,0.84706985950470,-2.65128684043884
320,2088052955,52.05607604980469,-81.93048095703125,7.36060476303101,9.65987396240234,1.16323459148407,0.93985980749130,8.67002391815186,-0.16848038136959,-2.63020730018616
321,2088069622,52.44804763793945,-81.88935089111328,7.09696006774902,9.67592048645020,1.10519480705261,0.83720380067825,8.43152999877930,-1.26974976062775,-2.64606118202209
322,2088086289,52.69139099121094,-81.83247375488281,7.00203418731689,9.72058296203613,1.07297205924988,0.82456487417221,9.54703998565674,0.42124578356743,-2.54247093200684
323,2088102956,52.82601165771484,-81.77312469482422,7.02096509933472,9.69940757751465,1.14587128162384,0.89705008268356,9.78365135192871,1.26815557479858,-2.07512879371643
324,2088119623,52.94278335571289,-81.73233795166016,7.03578615188599,9.60016822814941,1.20254492759705,0.91610294580460,8.46223926544189,0.55831211805344,-1.20743417739868
325,2088136290,53.14956665039062,-81.72564697265625,6.93529701232910,9.48242759704590,1.22639155387878,0.79013651609421,7.02250957489014,-1.46552038192749,-0.18101777136326
326,2088152957,53.36717987060547,-81.74445343017578,6.79922437667847,9.53086757659912,1.27980196475983,0.64297008514404,5.55680990219116,-2.63298559188843,0.86910939216614
327,2088169624,53.48879241943359,-81.78340911865234,6.72313308715820,9.56969642639160,1.35337841510773,0.56815725564957,3.36093044281006,-2.93101477622986,2.15047430992126
328,2088186291,53.53594970703125,-81.84683227539062,6.66602802276611,9.60850429534912,1.38893878459930,0.62256067991257,0.02129055745900,-3.66892957687378,3.43359398841858
329,2088202958,53.49349975585938,-81.93576812744141,6.66199398040771,9.63476753234863,1.29230082035065,0.59896534681320,-2.21359086036682,-4.21786165237427,4.94115829467773
330,2088219625,53.41872406005859,-82.04216003417969,6.66210985183716,9.62084865570068,1.23416221141815,0.54934066534042,-3.89874029159546,-4.81426620483398,5.79570007324219
331,2088236292,53.20634078979492,-82.12384033203125,6.77407979965210,9.76862049102783,1.11739516258240,0.64636111259460,-5.51290464401245,-3.20171618461609,5.15269374847412
332,2088252959,53.17526245117188,-82.19983673095703,6.70907354354858,9.88134002685547,1.12308835983276,0.72220951318741,-5.15424966812134,-4.17275810241699,4.00191450119019
333,2088269626,53.08215332031250,-82.26634979248047,6.69684076309204,9.87014007568359,1.16590404510498,0.68794572353363,-5.72930526733398,-3.48180389404297,3.79466915130615
334,2088286293,52.93876647949219,-82.33911895751953,6.72609710693359,9.90159416198730,1.17098414897919,0.78709721565247,-6.28894329071045,-3.45370626449585,4.30044317245483
335,2088302960,52.78286743164062,-82.42627716064453,6.77868270874023,9.83936500549316,1.23058247566223,0.81065160036087,-5.65587329864502,-3.83867812156677,5.09352779388428
336,2088319627,52.40457916259766,-82.52619934082031,7.02261877059937,9.74895477294922,1.28310143947601,0.66687536239624,-7.60949659347534,-3.13348412513733,6.59730148315430
337,2088336294,51.64122390747070,-82.63321685791016,7.62004852294922,9.62137699127197,1.24616134166718,0.83008271455765,-9.67945575714111,-1.31526422500610,8.57668018341064
338,2088352961,50.78574752807617,-82.75137329101562,8.28955078125000,9.64683818817139,1.11399459838867,1.01638472080231,-10.90809822082520,-1.47078466415405,9.39404678344727
339,2088369628,50.01697540283203,-82.89030456542969,8.86208915710449,9.72386074066162,0.92292642593384,1.08712780475616,-11.47060585021973,-3.02119994163513,9.83024597167969
340,2088386295,49.48104095458984,-83.06183624267578,9.20245265960693,9.77510070800781,0.59747678041458,1.13594365119934,-11.31489372253418,-5.75740671157837,10.13768863677979
341,2088402962,49.13841629028320,-83.22187805175781,9.33371162414551,9.82107162475586,0.52466672658920,1.05124020576477,-12.16120243072510,-6.56040382385254,8.56409454345703
342,2088419629,48.96842575073242,-83.31124114990234,9.28579044342041,10.00488471984863,0.54614138603210,0.84896957874298,-12.48204898834229,-4.78120183944702,4.49995470046997
343,2088436296,48.88504791259766,-83.34280395507812,9.17825222015381,9.95246124267578,0.71658134460449,0.95384103059769,-10.82924556732178,-2.81429886817932,1.59748399257660
344,2088452963,48.91252136230469,-83.36907196044922,8.97626399993896,9.80996131896973,0.90156286954880,1.01751840114594,-9.82137203216553,-3.10775661468506,0.93981355428696
345,2088469630,48.93392944335938,-83.40195465087891,8.80186653137207,9.78082466125488,0.90090024471283,0.98257958889008,-8.47129917144775,-3.20947694778442,1.36598312854767
346,2088486297,48.78827667236328,-83.44061279296875,8.81081962585449,9.84227752685547,0.85233861207962,1.07347118854523,-7.40318584442139,-2.47040939331055,2.47229814529419
347,2088502964,48.50633239746094,-83.48648071289062,8.97102355957031,9.89057826995850,0.78979086875916,1.14980804920197,-6.82664346694946,-2.00725483894348,3.44848799705505
348,2088519631,48.12430953979492,-83.54870605468750,9.23203086853027,9.85420322418213,0.71172076463699,1.14279222488403,-6.81721830368042,-2.17731022834778,4.62677431106567
349,2088536298,47.73822021484375,-83.62277984619141,9.50146293640137,9.79003429412842,0.65726971626282,1.11156690120697,-6.54650449752808,-2.65562748908997,5.18011140823364
350,2088552965,47.38725662231445,-83.67842102050781,9.75917148590088,9.84704399108887,0.64328896999359,1.08227050304413,-5.20457887649536,-2.00876617431641,4.27422904968262
351,2088569632,47.00546264648438,-83.72018432617188,10.06777381896973,9.78736495971680,0.66088217496872,1.14841878414154,-4.02767419815063,-1.22994744777679,3.87401723861694
352,2088586299,46.67910385131836,-83.77108764648438,10.34536361694336,9.75385856628418,0.67056697607040,1.03626024723053,-2.45788455009460,-1.77643299102783,4.12918424606323
353,2088602966,46.33366775512695,-83.82482910156250,10.66310596466064,9.72616577148438,0.61738234758377,1.02991116046906,-1.16426360607147,-1.74303400516510,4.43364191055298
354,2088619633,46.17222976684570,-83.89337158203125,10.82096576690674,9.71402263641357,0.59843569993973,0.98176872730255,-0.42481225728989,-3.18406867980957,4.28341054916382
355,2088636300,46.09813690185547,-83.96498870849609,10.87987804412842,9.77064895629883,0.68033206462860,0.86207747459412,-0.25147831439972,-3.71180486679077,4.02943468093872
356,2088652967,45.95369720458984,-84.03859710693359,11.00534725189209,9.76981830596924,0.75677114725113,0.87196022272110,-0.09821189939976,-3.46812605857849,4.42060470581055
357,2088669634,45.78479766845703,-84.12644195556641,11.15090560913086,9.72449398040771,0.75641578435898,0.83054715394974,-0.80217719078064,-4.03263092041016,5.08250188827515
358,2088686301,45.53471374511719,-84.22525024414062,11.37004852294922,9.71019458770752,0.73299264907837,0.75820624828339,-1.37296891212463,-4.20805120468140,5.84135437011719
359,2088702968,45.17683029174805,-84.31655883789062,11.69476413726807,9.73822879791260,0.67676520347595,0.72919040918350,-1.79974079132080,-3.50476551055908,5.91499137878418
360,2088719635,44.69521331787109,-84.39521026611328,12.14827823638916,9.78400611877441,0.56847214698792,0.73244804143906,-1.27161931991577,-2.46236681938171,5.88620233535767
361,2088736302,44.15267181396484,-84.46013641357422,12.67146968841553,9.76847267150879,0.55190771818161,0.74565094709396,-0.71136713027954,-1.66214895248413,5.57189559936523
362,2088752969,43.65443801879883,-84.51419830322266,13.13601493835449,9.82081604003906,0.52237802743912,0.70189505815506,-1.30579972267151,-1.47237193584442,4.86000394821167
363,2088769636,43.05948257446289,-84.53984069824219,13.70744037628174,9.89690208435059,0.47327068448067,0.71013236045837,-1.31162655353546,0.09176389873028,4.07480764389038
364,2088786303,42.48324966430664,-84.55673217773438,14.25777721405029,9.85940074920654,0.49549630284309,0.80545765161514,-1.14104580879211,0.37598809599876,3.65177607536316
365,2088802970,41.92706298828125,-84.57837677001953,14.77961254119873,9.86005210876465,0.55298441648483,0.86948013305664,-1.36159694194794,0.02643871121109,3.75829935073853
366,2088819637,41.31812286376953,-84.61089324951172,15.35167694091797,9.82868862152100,0.59222310781479,0.84528326988220,-1.92300152778625,-0.32647228240967,4.36049222946167
367,2088836304,40.55237579345703,-84.63539123535156,16.06050109863281,9.85506439208984,0.59777045249939,0.77293586730957,-3.07264065742493,0.48406085371971,4.63461160659790
368,2088852971,39.78337860107422,-84.66101837158203,16.76348114013672,9.71503257751465,0.58277219533920,0.86718535423279,-3.66476798057556,0.34607243537903,4.65169572830200
369,2088869638,39.07384109497070,-84.69799041748047,17.38766479492188,9.71526336669922,0.57121902704239,0.88061821460724,-4.68951940536499,-0.51823461055756,4.75442838668823
370,2088886305,38.35031890869141,-84.74596405029297,18.00140380859375,9.75033283233643,0.61083066463470,0.94170391559601,-6.63557243347168,-1.16267573833466,5.06799173355103
371,2088902972,37.76348495483398,-84.82176208496094,18.47201156616211,9.74069404602051,0.55359798669815,0.74276107549667,-6.48915815353394,-3.01547384262085,5.49639081954956
372,2088919639,37.26701354980469,-84.90345764160156,18.86308479309082,9.74532318115234,0.46782308816910,0.70265233516693,-5.69442176818848,-3.61093068122864,5.32574605941772
373,2088936306,36.88243103027344,-84.98460388183594,19.16449356079102,9.84636688232422,0.41819605231285,0.60804486274719,-4.42642593383789,-3.93208789825439,4.87596082687378
374,2088952973,36.46220779418945,-85.04856872558594,19.51312637329102,9.78703308105469,0.37475064396858,0.62715417146683,-3.98128962516785,-3.02356672286987,4.41039848327637
375,2088969640,36.01149749755859,-85.10491943359375,19.89614295959473,9.80043125152588,0.33912247419357,0.64846700429916,-3.24735808372498,-2.55385541915894,4.27600860595703
376,2088986307,35.47374343872070,-85.15180206298828,20.37664985656738,9.84545993804932,0.28438752889633,0.75288069248199,-2.99653267860413,-1.86318337917328,4.28948116302490
377,2089002974,34.99070739746094,-85.19258117675781,20.81885337829590,9.76449871063232,0.27837800979614,0.73162871599197,-2.05253791809082,-1.72208285331726,3.89152336120605
378,2089019641,34.52599334716797,-85.23014068603516,21.25707244873047,9.81414604187012,0.31132432818413,0.72628420591354,-1.22983205318451,-1.61164069175720,3.73924207687378
379,2089036308,33.98223495483398,-85.26873779296875,21.77674674987793,9.84558868408203,0.36164456605911,0.74050116539001,-1.07514429092407,-1.47809612751007,4.09548997879028
380,2089052975,33.44564819335938,-85.30794525146484,22.29651832580566,9.75221347808838,0.34514695405960,0.71969902515411,-0.53050303459167,-1.54324197769165,4.09930610656738
381,2089069642,32.83941268920898,-85.33020019531250,22.90326309204102,9.79081821441650,0.33346092700958,0.70380771160126,0.58841985464096,-0.49939650297165,3.88683652877808
382,2089086309,31.87699890136719,-85.31495666503906,23.87970161437988,9.86695003509521,0.37668317556381,0.74025708436966,1.14041185379028,2.31894159317017,4.19704437255859
383,2089102976,30.86772918701172,-85.30493927001953,24.88761901855469,9.86460971832275,0.37686184048653,0.82605981826782,0.42189875245094,2.08090996742249,4.57845544815063
384,2089119643,29.83862113952637,-85.30535125732422,25.91286468505859,9.81951141357422,0.37516161799431,0.81988626718521,-0.20026573538780,1.51010572910309,4.98399543762207
385,2089136310,28.84732818603516,-85.29722595214844,26.88248825073242,9.78896999359131,0.36931475996971,0.77738988399506,-0.57864212989807,1.76660406589508,4.59815216064453
386,2089152977,27.98426628112793,-85.28499603271484,27.72758293151855,9.79749965667725,0.33053007721901,0.85595923662186,-0.57381415367126,1.61498963832855,3.98342180252075
387,2089169644,27.31313133239746,-85.27967834472656,28.36459350585938,9.76501846313477,0.31192153692245,0.83131015300751,-1.20188868045807,0.76133102178574,3.32046222686768
388,2089186311,26.82019996643066,-85.28682708740234,28.81638336181641,9.76374244689941,0.33537796139717,0.73385006189346,-1.80500364303589,-0.37114080786705,2.85765385627747
389,2089202978,26.35852050781250,-85.29792785644531,29.23840713500977,9.87289905548096,0.35909286141396,0.76386797428131,-2.01721763610840,-0.67833948135376,2.80973219871521
390,2089219645,25.97795486450195,-85.33612823486328,29.57392120361328,9.87094974517822,0.32827180624008,0.72129207849503,-1.99151539802551,-2.32332801818848,3.16084384918213
391,2089236312,25.54508590698242,-85.37208557128906,29.98714637756348,9.84502792358398,0.27481079101562,0.76662027835846,-0.68590813875198,-2.07670378684998,3.40842986106873
392,2089252979,25.10586929321289,-85.41136932373047,30.42432403564453,9.83490085601807,0.24132582545280,0.89622986316681,0.14072255790234,-2.24556779861450,3.55974888801575
393,2089269646,24.74088096618652,-85.47679901123047,30.79037666320801,9.81991958618164,0.26902309060097,0.88558578491211,0.55701863765717,-3.83886981010437,3.90185785293579
394,2089286313,24.33695602416992,-85.55741882324219,31.19924926757812,9.70856285095215,0.26815405488014,0.85821467638016,0.97068941593170,-4.60760974884033,4.43101692199707
395,2089302980,23.95403671264648,-85.66622924804688,31.58278846740723,9.63288497924805,0.24166712164879,0.90286600589752,0.69428998231888,-6.25002479553223,4.95530891418457
396,2089319647,23.61923217773438,-85.80142974853516,31.92973709106445,9.59577369689941,0.21844378113747,0.80542814731598,1.39393925666809,-7.79612302780151,5.36128330230713
397,2089336314,23.12894058227539,-85.93775177001953,32.44532012939453,9.68032741546631,0.27425289154053,0.48872128129005,1.97789645195007,-7.64234495162964,5.95360326766968
398,2089352981,22.22914123535156,-86.03073883056641,33.35500335693359,9.83030414581299,0.23077867925167,0.41307741403580,1.13918256759644,-4.69587135314941,6.35067605972290
399,2089369648,21.12214088439941,-86.08964538574219,34.46951293945312,9.88984775543213,0.19990445673466,0.54574251174927,0.63716077804565,-2.59270954132080,6.21290493011475
400,2089386315,19.95354843139648,-86.11990356445312,35.63928604125977,9.86630630493164,0.20633171498775,0.63137340545654,0.40700504183769,-1.05165755748749,5.75953483581543
401,2089402982,18.64776229858398,-86.14237976074219,36.93224334716797,9.95100593566895,0.14500044286251,0.70440852642059,-0.38481804728508,-0.54122197628021,6.03688192367554
402,2089419649,17.04793357849121,-86.15366363525391,38.51908493041992,10.02059268951416,0.12956961989403,0.76677238941193,-0.92104578018188,0.29647350311279,6.91550111770630
403,2089436316,15.32146167755127,-86.14882659912109,40.19181442260742,9.93758010864258,0.18535280227661,0.88455939292908,-2.49857020378113,1.16703641414642,7.06177473068237
404,2089452983,13.79227733612061,-86.15554809570312,41.65415573120117,9.69554996490479,0.13948249816895,0.82577675580978,-3.61911416053772,0.08360628038645,6.45531749725342
405,2089469650,12.27524471282959,-86.15076446533203,43.08655548095703,9.67510700225830,0.09841001033783,0.82360917329788,-4.59892797470093,0.58616596460342,6.20981931686401
406,2089486317,10.95698833465576,-86.14532470703125,44.28443145751953,9.59193992614746,0.05755040422082,0.97639405727386,-6.81801414489746,0.28912267088890,5.31703853607178
407,2089502984,9.98965263366699,-86.17050170898438,45.12438201904297,9.52247619628906,0.01395302359015,0.92955642938614,-7.06006526947021,-1.89309895038605,4.26532793045044
408,2089519651,9.04538917541504,-86.21405792236328,45.94644546508789,9.76038646697998,-0.07561171799898,0.86414617300034,-6.85552263259888,-3.02856159210205,4.31873130798340
409,2089536318,7.93725538253784,-86.25153350830078,46.94045257568359,10.00659275054932,0.01360026281327,0.87642991542816,-6.53966617584229,-2.63897967338562,4.85326766967773
410,2089552985,6.93562078475952,-86.28970336914062,47.82874298095703,9.92291450500488,0.03657735511661,0.82290858030319,-6.42558717727661,-2.84992575645447,4.38714265823364
411,2089569652,5.93019342422485,-86.34205627441406,48.72264099121094,9.81435775756836,-0.04164763540030,0.75497859716415,-6.36777973175049,-3.72979855537415,4.42260360717773
412,2089586319,4.94222736358643,-86.38854980468750,49.61647796630859,9.80457305908203,0.03200308233500,0.76044046878815,-5.11808395385742,-3.46646189689636,4.30913877487183
413,2089602986,4.06071710586548,-86.44454956054688,50.40794754028320,9.75450801849365,-0.00997023377568,0.72948300838470,-4.63680791854858,-4.13833332061768,3.89980936050415
414,2089619653,3.20927858352661,-86.50257110595703,51.16719436645508,9.69981193542480,-0.02541117556393,0.70200228691101,-4.20362138748169,-4.28419876098633,3.72756433486938
415,2089636320,2.35033082962036,-86.56595611572266,51.96578216552734,9.70374774932861,-0.05346625670791,0.58354920148849,-3.07257652282715,-4.67384386062622,3.73789834976196
416,2089652987,1.35312056541443,-86.60956573486328,52.91234588623047,9.88589096069336,-0.10164401680231,0.41035318374634,-2.55803060531616,-3.50362586975098,4.11810636520386
417,2089669654,0.14533981680870,-86.61331939697266,54.04964447021484,10.05789184570312,-0.08192890882492,0.43292847275734,-3.78902792930603,-1.19163084030151,4.68815517425537
418,2089686321,-1.15349650382996,-86.60454559326172,55.25589370727539,10.11832427978516,-0.12667013704777,0.40736851096153,-5.09656953811646,-0.49677124619484,4.93738031387329
419,2089702988,-2.18611454963684,-86.58797454833984,56.19874572753906,10.03613758087158,-0.24771605432034,0.46761336922646,-4.90647172927856,-0.09935168176889,4.04047393798828
420,2089719655,-2.91716694831848,-86.59073638916016,56.86813354492188,9.85449790954590,-0.35437399148941,0.38440710306168,-3.52239942550659,-1.28011012077332,3.01542830467224
421,2089736322,-3.35083341598511,-86.60696411132812,57.26343536376953,9.63701057434082,-0.40257635712624,0.28016945719719,-1.65102016925812,-2.04681324958801,2.01819729804993
422,2089752989,-3.76443457603455,-86.64666748046875,57.67764282226562,9.51678085327148,-0.39867922663689,0.17431919276714,0.80952149629593,-3.46288895606995,1.98458111286163
423,2089769656,-4.48100185394287,-86.70859527587891,58.43965911865234,9.74723243713379,-0.40536683797836,0.12074304372072,3.33853244781494,-4.90088844299316,3.03536748886108
424,2089786323,-5.74685525894165,-86.78527069091797,59.77851486206055,9.85269927978516,-0.35775852203369,0.13449491560459,4.81191682815552,-5.98632955551147,4.77727556228638
425,2089802990,-7.63825035095215,-86.86263275146484,61.75324249267578,9.87499237060547,-0.41425785422325,0.12405090034008,5.45779275894165,-6.38028001785278,6.62114810943604
426,2089819657,-9.94055747985840,-86.92394256591797,64.14036560058594,9.88532638549805,-0.48633462190628,0.11969724297523,5.45177459716797,-5.82087278366089,7.74310016632080
427,2089836324,-12.39043521881104,-86.96333312988281,66.65647125244141,9.84233379364014,-0.50047439336777,0.18520343303680,4.34068155288696,-4.87329196929932,8.07132720947266
428,2089852991,-14.78123664855957,-86.99762725830078,69.10741424560547,9.76146793365479,-0.40878009796143,0.22082090377808,3.99325776100159,-4.79900169372559,7.68203830718994
429,2089869658,-17.04050636291504,-87.01876068115234,71.39775848388672,9.76359748840332,-0.37252366542816,0.18100821971893,2.24479365348816,-4.19027709960938,7.17831277847290
430,2089886325,-19.05898666381836,-87.02639007568359,73.43199920654297,9.76605319976807,-0.43768340349197,0.28467839956284,1.37464034557343,-3.37618994712830,6.52753257751465
431,2089902992,-20.82002639770508,-87.02856445312500,75.22191619873047,9.76096725463867,-0.41668251156807,0.29092913866043,2.17209148406982,-3.00393438339233,5.83217191696167
432,2089919659,-22.51624488830566,-87.04488372802734,76.94821166992188,9.66297721862793,-0.36739099025726,0.34822532534599,2.23757052421570,-3.87311434745789,5.25377321243286
433,2089936326,-24.34860038757324,-87.08838653564453,78.80947113037109,9.64464855194092,-0.37703517079353,0.40091013908386,2.17335987091064,-5.65254402160645,4.84409809112549
434,2089952993,-26.38050270080566,-87.15999603271484,80.88442993164062,9.61866950988770,-0.40504842996597,0.29854795336723,3.00148248672485,-7.54393959045410,4.43720245361328
435,2089969660,-28.72232246398926,-87.26019287109375,83.26629638671875,9.59045791625977,-0.32541936635971,0.08870907127857,2.82042694091797,-9.52865886688232,4.01853847503662
436,2089986327,-31.19564628601074,-87.36790466308594,85.77054595947266,9.58215522766113,-0.32979816198349,0.01878937333822,2.26489996910095,-10.11449718475342,3.49019908905029
437,2090002994,-33.81424713134766,-87.48316955566406,88.41296386718750,9.68281841278076,-0.36869293451309,-0.10685496777296,1.84330177307129,-10.66125106811523,2.89878869056702
438,2090019661,-36.34810638427734,-87.58662414550781,90.98540496826172,9.67710685729980,-0.39813390374184,-0.20354029536247,2.75467896461487,-9.87738895416260,2.48496413230896
439,2090036328,-38.61133956909180,-87.66418457031250,93.27191162109375,9.79099082946777,-0.35781505703926,-0.23182752728462,1.86124348640442,-8.15018177032471,2.28769493103027
440,2090052995,-40.03302001953125,-87.72187805175781,94.70856475830078,9.91371822357178,-0.42239043116570,-0.19476664066315,1.40674531459808,-5.85727834701538,1.12471127510071
441,2090069662,-40.64684677124023,-87.77217102050781,95.36423492431641,9.90905284881592,-0.52705883979797,-0.25058969855309,3.04703450202942,-4.29318904876709,-0.13634924590588
442,2090086329,-40.85132598876953,-87.79300689697266,95.62023162841797,9.93560981750488,-0.55222046375275,-0.23632158339024,3.65294098854065,-2.31304454803467,0.28990375995636
443,2090102996,-40.45334243774414,-87.77471923828125,95.27220153808594,10.02446365356445,-0.54267144203186,-0.16516189277172,3.57763957977295,0.37790897488594,0.76768314838409
444,2090119663,-39.06824493408203,-87.72686004638672,93.93767547607422,10.04028701782227,-0.49389243125916,0.01841240376234,3.65670609474182,3.24382925033569,0.10846338421106
445,2090136330,-37.09598541259766,-87.66619873046875,92.00974273681641,9.91368293762207,-0.51985788345337,0.16383418440819,3.30143213272095,4.74274873733521,-0.73192137479782
446,2090152997,-35.42753219604492,-87.61582946777344,90.39092254638672,9.80614757537842,-0.39483544230461,0.17254129052162,3.60564756393433,3.81165027618408,-0.76031309366226
447,2090169664,-33.85799789428711,-87.54943847656250,88.86431121826172,9.85346126556396,-0.25551363825798,0.12999284267426,3.22743725776672,4.50862264633179,-0.22102481126785
448,2090186331,-32.27107238769531,-87.45516204833984,87.30300140380859,9.89420986175537,-0.28568619489670,0.15070854127407,2.19839620590210,6.02580451965332,0.37165954709053
449,2090202998,-30.75370979309082,-87.32936859130859,85.81027221679688,9.84206581115723,-0.31699779629707,0.20347750186920,2.13756585121155,7.59467172622681,1.15443491935730
450,2090219665,-29.28127479553223,-87.19118499755859,84.37707519531250,9.76462936401367,-0.33519396185875,0.18676300346851,3.04506278038025,8.27356338500977,1.27646672725677
451,2090236332,-27.60746192932129,-87.03509521484375,82.73136138916016,9.79558944702148,-0.31350475549698,0.15417675673962,2.41598916053772,9.65790557861328,0.78662389516830
452,2090252999,-25.72574806213379,-86.85801696777344,80.86671447753906,9.84055614471436,-0.49651572108269,0.21475927531719,1.72668719291687,11.19439983367920,0.12244796752930
453,2090269666,-23.81600952148438,-86.67610931396484,79.00662994384766,9.74976539611816,-0.52069705724716,0.24465572834015,3.72027897834778,11.60060787200928,-0.44974645972252
454,2090286333,-22.07779121398926,-86.50032806396484,77.32169342041016,9.57287120819092,-0.49318766593933,0.36187753081322,3.94832110404968,11.09103965759277,-0.74946630001068
455,2090303000,-20.51099395751953,-86.35212707519531,75.80975341796875,9.51262092590332,-0.58426505327225,0.42162859439850,4.03423833847046,9.38031482696533,-1.36054706573486
456,2090319667,-19.04960250854492,-86.20956420898438,74.42906188964844,9.48916625976562,-0.53887248039246,0.43816447257996,5.59364223480225,8.90272712707520,-1.48695850372314
457,2090336334,-17.65672874450684,-86.07334899902344,73.09230041503906,9.43598270416260,-0.44948235154152,0.47135764360428,4.12672615051270,8.50491046905518,-1.87214803695679
458,2090353001,-16.15219116210938,-85.94372558593750,71.61371612548828,9.54738998413086,-0.35655060410500,0.48923495411873,2.33835697174072,8.26713466644287,-2.97690081596375
459,2090369668,-14.61933326721191,-85.81380462646484,70.08478546142578,9.63593673706055,-0.25762179493904,0.47214686870575,1.04536342620850,8.29351615905762,-3.61787176132202
460,2090386335,-13.23076725006104,-85.67976379394531,68.67538452148438,9.72467708587646,-0.31420931220055,0.39272469282150,-0.43120273947716,8.37191677093506,-3.47473526000977
461,2090403002,-11.78027629852295,-85.52306365966797,67.21592712402344,9.70965576171875,-0.41672635078430,0.41684213280678,0.27927455306053,9.65484428405762,-3.85505819320679
462,2090419669,-10.31519222259521,-85.36244964599609,65.74172210693359,9.73054981231689,-0.41868439316750,0.42254921793938,0.30593743920326,9.84353542327881,-4.38092660903931
463,2090436336,-8.97392749786377,-85.22373199462891,64.36671447753906,9.73069286346436,-0.45243713259697,0.45813265442848,-1.16551911830902,8.38625907897949,-4.60985183715820
464,2090453003,-7.78865528106689,-85.09259796142578,63.15517425537109,9.81253528594971,-0.50447374582291,0.22199822962284,-0.75543385744095,7.70603656768799,-4.26007127761841
465,2090469670,-6.65357303619385,-84.89458465576172,62.00983428955078,9.99717617034912,-0.48419287800789,0.18611690402031,0.23660387098789,11.59657287597656,-3.78709626197815
466,2090486337,-5.57332515716553,-84.65947723388672,60.91106033325195,10.06210231781006,-0.33376723527908,0.28052440285683,-0.25369399785995,13.71985626220703,-3.79923677444458
467,2090503004,-4.61334085464478,-84.41748809814453,59.90793228149414,10.06335067749023,-0.23660401999950,0.21597154438496,-1.75185871124268,13.99482154846191,-3.75797533988953
468,2090519671,-3.95592522621155,-84.14024353027344,59.20549392700195,10.23810672760010,-0.19061827659607,0.19145642220974,-1.90530478954315,15.95852756500244,-2.28407883644104
469,2090536338,-3.54270505905151,-83.82279968261719,58.74426651000977,10.36385822296143,-0.29699578881264,0.43686956167221,-2.14005875587463,18.25090789794922,-0.99007272720337
470,2090553005,-3.01527714729309,-83.48281097412109,58.18746185302734,10.42913055419922,-0.65246808528900,0.80914229154587,-0.97334784269333,19.62928390502930,-1.86064958572388
471,2090569672,-2.14766836166382,-83.13330841064453,57.34603500366211,10.49810028076172,-0.92751705646515,1.11307644844055,2.49637722969055,20.26430320739746,-4.27246046066284
472,2090586339,-0.83916217088699,-82.74282836914062,56.13687896728516,10.59551143646240,-1.07343351840973,1.66204667091370,7.08734989166260,22.69733619689941,-7.64583015441895
473,2090603006,0.96838647127151,-82.29416656494141,54.53544616699219,10.42555618286133,-1.26456797122955,2.39580035209656,13.77133846282959,25.96279716491699,-11.87991619110107
474,2090619673,3.10255670547485,-81.78314971923828,52.82388687133789,10.14457035064697,-1.33336067199707,2.71902465820312,26.92694664001465,29.18291664123535,-14.64463996887207
475,2090636340,4.76883602142334,-81.02571868896484,51.96308517456055,9.52079010009766,-1.80372667312622,3.41947531700134,49.49372100830078,43.85880661010742,-10.16641616821289
476,2090653007,5.47892665863037,-79.92471313476562,52.54465866088867,7.72088813781738,-1.98221087455750,3.78199386596680,77.60693359375000,65.36211395263672,0.49680837988853
477,2090669674,5.33014345169067,-78.32028198242188,54.47724151611328,4.44185829162598,-1.41728663444519,3.62567949295044,105.54245758056641,96.93653106689453,13.35989856719971
478,2090686341,4.56659793853760,-76.58290100097656,57.05290985107422,-0.69615250825882,0.17484661936760,3.62745833396912,105.63896179199219,105.76357269287109,25.10107421875000
479,2090703008,2.68533515930176,-75.53077697753906,59.87888336181641,-4.91360712051392,0.80283898115158,1.73392057418823,52.28135299682617,64.58655548095703,37.42092132568359
480,2090719675,-0.09087414294481,-74.91722106933594,63.04749679565430,-4.94620752334595,-0.14602693915367,-2.15290045738220,17.85414123535156,36.90152740478516,48.27917861938477
481,2090736342,-2.35385584831238,-73.89268493652344,65.96485900878906,-2.79660797119141,-0.93346846103668,-3.99503517150879,33.41876220703125,59.45355224609375,48.99958801269531
482,2090753009,-3.85859036445618,-72.56491088867188,67.27040100097656,-0.59806340932846,0.76138454675674,-1.72178959846497,-14.68577289581299,77.34069061279297,27.53502273559570
483,2090769676,-4.31669282913208,-71.33647918701172,67.40544128417969,1.05953943729401,0.28366824984550,0.19922910630703,-19.19392776489258,72.36125183105469,8.40963077545166
484,2090786343,-4.06319570541382,-70.33276367187500,66.86734771728516,1.66408848762512,1.10832798480988,-1.63124859333038,-14.69988727569580,59.85796737670898,-5.51692104339600
485,2090803010,-3.21638488769531,-69.30960845947266,65.78966522216797,3.79718160629272,-0.15657910704613,-0.35863348841667,-9.30000686645508,61.70220184326172,-17.70569229125977
486,2090819677,-0.77046620845795,-68.66820526123047,63.57437515258789,5.22742700576782,0.09884449094534,-1.08405959606171,23.24962234497070,39.13348007202148,-45.63019180297852
487,2090836344,2.39402580261230,-67.87346649169922,60.50253295898438,4.24287176132202,0.32823884487152,-0.22864076495171,19.23100280761719,45.72863769531250,-68.23519897460938
488,2090853011,5.32680511474609,-67.49894714355469,57.73823165893555,3.16018533706665,1.79284715652466,-0.77524274587631,23.10363769531250,17.20421409606934,-63.67789459228516
489,2090869678,7.18342351913452,-67.16504669189453,55.60068511962891,2.52012109756470,2.26504969596863,-0.21857832372189,-6.36552238464355,13.56310081481934,-50.65085983276367
490,2090886345,8.32234001159668,-67.16249084472656,54.13118743896484,1.65593004226685,2.97744369506836,-0.33554762601852,-12.33935832977295,-5.42738103866577,-33.26280975341797
491,2090903012,8.77319240570068,-67.23188018798828,53.15192413330078,0.59027141332626,3.29917669296265,-1.27325236797333,-26.53217697143555,-8.46624946594238,-21.23379898071289
492,2090919679,8.62235355377197,-66.82234191894531,52.38642501831055,-0.59965294599533,3.55056810379028,0.59771162271500,-50.75059127807617,20.62156486511230,-20.76539993286133
493,2090936346,8.44452571868896,-66.31400299072266,51.47255325317383,-2.86498022079468,-0.32184141874313,4.07799530029297,-60.39614486694336,25.96903610229492,-25.41340065002441
494,2090953013,8.78285026550293,-66.20063781738281,50.47543334960938,-4.04129171371460,-1.71461379528046,2.84696602821350,-33.88313293457031,2.15087175369263,-24.16021156311035
495,2090969680,8.40293407440186,-65.99678802490234,49.74078750610352,-3.70148992538452,-2.01141738891602,1.84523355960846,-62.50883865356445,8.45123767852783,-18.81386566162109
496,2090986347,6.72875738143921,-64.79497528076172,49.82755661010742,0.96363502740860,2.79177379608154,11.83511352539062,-95.12141418457031,70.79529571533203,-6.67736959457397
497,2091003014,5.30389976501465,-64.14062500000000,50.14381790161133,16.95654106140137,8.56129550933838,14.42955875396729,-70.96352386474609,38.75462722778320,3.16410589218140
498,2091019681,1.66460251808167,-61.13386154174805,52.18838119506836,45.35875320434570,7.32460451126099,23.43920326232910,-112.01293945312500,182.38633728027344,44.30411148071289
499,2091036348,1.60617768764496,-58.43918991088867,50.79155349731445,18.29660415649414,-4.17925405502319,10.61217498779297,-78.61219787597656,159.35353088378906,-47.99423217773438
500,2091053015,2.04760169982910,-56.19457626342773,50.90646362304688,28.40900802612305,-6.15426397323608,19.90384864807129,29.74136543273926,133.66917419433594,-1.90802919864655
501,2091069682,0.28099238872528,-54.52798080444336,52.22545623779297,25.10588073730469,-2.15262722969055,12.77397632598877,-42.37726211547852,99.85660552978516,42.15857315063477
502,2091086349,-1.38679361343384,-53.07557678222656,52.47423553466797,27.21330261230469,-0.15741130709648,16.70397186279297,-88.87905883789062,86.07572174072266,9.25404453277588
503,2091103016,-1.89639985561371,-52.18996810913086,51.91491317749023,27.29293441772461,-0.19516092538834,14.87155723571777,-57.64916610717773,52.73303604125977,-18.93030357360840
504,2091119683,-2.18093776702881,-51.42667007446289,51.57218933105469,24.44849014282227,-1.44267070293427,15.39387416839600,-33.47672653198242,45.26407241821289,-11.06639957427979
505,2091136350,-2.55696892738342,-50.95784378051758,51.48578262329102,23.60397338867188,-2.05140948295593,15.00432491302490,-26.82121658325195,27.29100036621094,-2.07134795188904
506,2091153017,-3.21745991706848,-50.68437957763672,51.74970245361328,22.57458496093750,-2.50609016418457,14.58282756805420,-27.64119148254395,14.94722747802734,10.76313304901123
507,2091169684,-3.76094627380371,-50.94112396240234,51.95481109619141,23.69483566284180,-1.16755425930023,14.43647098541260,-22.47768211364746,-16.81634902954102,7.48665904998779
508,2091186351,-4.06793785095215,-51.37834548950195,51.91992950439453,22.98998451232910,-1.31484508514404,14.16180419921875,-19.45482826232910,-27.04213333129883,-2.43445801734924
509,2091203018,-4.38431549072266,-52.07403945922852,51.96031951904297,22.16655540466309,-0.47128930687904,13.29514122009277,-18.43637847900391,-42.58091354370117,-2.45850491523743
510,2091219685,-4.77168083190918,-53.05188751220703,52.13120269775391,21.45870590209961,-0.29864823818207,12.07889556884766,-17.26557540893555,-59.76177978515625,0.07770358771086
511,2091236352,-5.22748708724976,-54.42697525024414,52.46833801269531,22.55286026000977,-1.18197631835938,10.73134613037109,-13.34575939178467,-83.99324035644531,3.26194357872009
512,2091253019,-5.87606906890869,-56.26192855834961,53.07842254638672,22.01954460144043,0.30003473162651,9.15596580505371,-10.91978931427002,-112.35015106201172,8.85548591613770
513,2091269686,-6.72302770614624,-58.70952606201172,53.71973800659180,23.18187522888184,-1.56255185604095,7.50728702545166,-20.65080833435059,-148.96716308593750,3.27600336074829
514,2091286353,-7.20685005187988,-61.93667602539062,54.12905502319336,23.64947319030762,-3.16531229019165,5.43475246429443,-9.96453475952148,-194.39895629882812,-12.37766361236572
515,2091303020,-5.22284984588623,-65.86319732666016,51.95339584350586,23.81758689880371,-9.51010322570801,-0.70576429367065,-0.29569634795189,-228.72991943359375,-83.21787261962891
516,2091319687,-1.31314682960510,-69.14694976806641,49.25189208984375,24.11985397338867,4.89868354797363,-2.85162997245789,82.88034057617188,-193.96659851074219,-73.50687408447266
517,2091336354,0.05050750821829,-73.89888000488281,47.61751937866211,15.08855342864990,2.64586615562439,-1.21783280372620,-13.13146018981934,-285.61654663085938,-34.39147567749023
518,2091353021,1.62220358848572,-81.46427154541016,46.60101699829102,8.47163009643555,-0.13801026344299,1.49322843551636,35.03501129150391,-455.01434326171875,-5.74686861038208
519,2091369688,10.10237598419189,-85.24263763427734,38.15008544921875,13.06632232666016,-2.58706521987915,-3.39221978187561,5.29306459426880,-231.92939758300781,-34.54111099243164
520,2091386355,1.86552596092224,-73.85448455810547,44.89070129394531,14.09052562713623,0.77122998237610,34.13380050659180,-93.38542175292969,685.46875000000000,2.56837439537048
521,2091403022,7.61850214004517,-74.01226043701172,40.80209732055664,-25.00391006469727,-2.52069950103760,32.22660064697266,109.99790954589844,-15.95059776306152,-66.20099639892578
522,2091419689,13.19339847564697,-76.57553100585938,35.43384933471680,-19.97410774230957,-2.78549551963806,14.31621551513672,23.40714836120605,-166.85223388671875,-51.98494720458984
523,2091436356,19.99258232116699,-78.18659210205078,29.55157852172852,-7.57797050476074,-5.46634721755981,-6.16567564010620,64.04339599609375,-115.53181457519531,-45.62696075439453
524,2091453023,25.64890670776367,-79.61456298828125,25.44917106628418,0.91254770755768,0.39053398370743,-6.23681783676147,98.35817718505859,-98.30395507812500,-9.79492855072021
525,2091469690,25.86905860900879,-80.21803283691406,26.38941001892090,10.46649074554443,8.30352687835693,-0.55028796195984,69.32147216796875,-29.30324363708496,25.27611351013184
526,2091486357,24.11518669128418,-80.51699829101562,27.86293029785156,10.80462360382080,5.72979831695557,2.74363040924072,-17.49781990051270,-10.99244213104248,21.64224433898926
527,2091503024,20.97356796264648,-80.79431915283203,30.20525550842285,4.86642456054688,0.90035921335220,1.65353178977966,-49.24626922607422,-7.60097599029541,28.10994529724121
528,2091519691,16.74962615966797,-80.71767425537109,33.88491439819336,2.84422874450684,-2.33618211746216,3.30254149436951,-34.94456100463867,14.82718849182129,32.72268676757812
529,2091536358,13.84055995941162,-80.54026031494141,36.39934921264648,-0.31542944908142,-3.37409639358521,4.59336948394775,-25.10728645324707,15.76696395874023,21.53674888610840
530,2091553025,12.33098793029785,-79.67391204833984,37.98114395141602,-2.09331893920898,-3.42270660400391,3.99437594413757,3.51400184631348,53.34186172485352,4.76523399353027
531,2091569692,13.16843509674072,-79.06928253173828,37.68013763427734,-2.65869307518005,-1.49164307117462,5.10095787048340,33.07864379882812,33.66411590576172,-10.60243892669678
532,2091586359,15.62267684936523,-79.01819610595703,35.84386062622070,-1.05777251720428,-0.06397165358067,1.66848933696747,39.65570068359375,-3.24087429046631,-20.38562202453613
533,2091603026,17.63379669189453,-78.64990234375000,34.56598663330078,0.60143548250198,2.27130913734436,-1.39941322803497,46.02373123168945,15.92485809326172,-19.89303970336914
534,2091619693,18.45931434631348,-78.17649078369141,33.89307785034180,-1.65599811077118,2.25969672203064,-0.17401981353760,10.56210327148438,23.50058174133301,-15.85076427459717
535,2091636360,18.60231399536133,-78.20122528076172,33.74630355834961,-2.68786287307739,1.71611690521240,-0.63067471981049,0.53615707159042,-2.98387980461121,-0.57533818483353
536,2091653027,17.43040847778320,-78.40100860595703,34.72214508056641,-1.13632321357727,0.05627175420523,-1.08788013458252,-12.40538978576660,-8.73106288909912,15.65825366973877
537,2091669694,15.72999763488770,-78.40167999267578,36.26407623291016,0.32713553309441,-0.58613884449005,-1.33192396163940,-10.81879711151123,4.26954793930054,18.49888420104980
538,2091686361,14.19006156921387,-78.21537780761719,37.63141632080078,1.58181524276733,-1.30409300327301,-0.79122132062912,-11.47563743591309,14.10042476654053,13.83508968353271
539,2091703028,13.50297546386719,-77.92306518554688,38.34668350219727,1.85571861267090,-1.00744140148163,0.08318565040827,1.34142196178436,18.15916252136230,5.07849884033203
540,2091719695,13.72660160064697,-77.55901336669922,38.26988601684570,1.40224528312683,-0.86999434232712,0.77481567859650,9.49794292449951,20.01840400695801,-5.42981243133545
541,2091736362,14.65714359283447,-77.23020172119141,37.60873794555664,0.61152434349060,-1.16299390792847,1.14937341213226,17.69699287414551,16.01579666137695,-12.56386852264404
542,2091753029,16.13256072998047,-77.05914306640625,36.55526351928711,-0.20263464748859,-0.64823490381241,0.78004461526871,27.47276306152344,5.17388057708740,-15.61743927001953
543,2091769696,17.53470802307129,-76.91239166259766,35.63667297363281,-0.40771996974945,-0.42757987976074,0.55643820762634,31.00676727294922,3.84911179542542,-13.76290225982666
544,2091786363,18.52892684936523,-76.73703002929688,35.04441452026367,-1.37320971488953,0.39752680063248,0.57687294483185,25.62994003295898,6.51370620727539,-10.29271030426025
545,2091803030,19.09354209899902,-76.67461395263672,34.69025421142578,-1.18048691749573,0.88653063774109,0.69323450326920,13.77520465850830,0.98781204223633,-5.16612386703491
546,2091819697,19.44832801818848,-76.65190124511719,34.38901138305664,-0.12084028869867,0.57735675573349,1.11017036437988,4.27369022369385,-1.07937037944794,-3.71334171295166
547,2091836364,19.91701316833496,-76.64463806152344,33.95855331420898,-0.40159249305725,-0.19169992208481,1.85425174236298,3.56575536727905,-2.58238768577576,-5.09094715118408
548,2091853031,20.77669143676758,-76.83929443359375,33.23535156250000,-1.30195200443268,-0.25684487819672,1.30950379371643,9.91682052612305,-15.39637565612793,-4.59478282928467
549,2091869698,22.13119316101074,-77.17510223388672,32.05423355102539,-1.22899448871613,-0.70687079429626,1.06418263912201,12.78749179840088,-25.56257629394531,-6.78362083435059
550,2091886365,23.93537712097168,-77.59690856933594,30.43535423278809,-0.13067837059498,-0.52694231271744,0.27667659521103,14.03131198883057,-32.57308197021484,-8.94034767150879
551,2091903032,25.57796859741211,-77.94618988037109,29.08674621582031,0.10978995263577,-0.66070121526718,0.69831025600433,20.04420661926270,-27.19019889831543,-6.10932064056396
552,2091919699,25.80085563659668,-78.13371276855469,29.12668991088867,2.48262143135071,-0.15161408483982,5.31584644317627,16.28731155395508,-10.90946388244629,6.00178813934326
553,2091936366,26.27624320983887,-78.96449279785156,29.39520072937012,15.22304248809814,-2.80347084999084,7.34518241882324,44.87269592285156,-44.38012695312500,25.43416404724121
554,2091953033,21.77975082397461,-79.94018554687500,34.43889617919922,58.06265258789062,12.02159118652344,8.64257335662842,28.29632377624512,-31.87690925598145,75.05451202392578
555,2091969700,14.06842517852783,-78.44545745849609,42.61305236816406,92.37814331054688,2.19768166542053,30.84982872009277,17.21375465393066,112.28296661376953,60.08501052856445
556,2091986367,13.63887214660645,-78.07332611083984,43.13477706909180,1.24017846584320,-1.82270050048828,-5.72420501708984,4.70187902450562,22.17539215087891,1.36246347427368
557,2092003034,12.53410625457764,-78.74404144287109,43.99311828613281,33.84159469604492,9.63462257385254,-11.43931293487549,-15.95376682281494,-37.88077163696289,19.72850036621094
558,2092019701,13.52818965911865,-79.60437011718750,42.90883255004883,29.26369857788086,-1.31301140785217,-2.78841495513916,-4.44646167755127,-54.05134963989258,0.28413105010986
559,2092036368,14.14985847473145,-80.04605865478516,41.91937255859375,32.08567810058594,0.40421083569527,0.22873294353485,-21.16592025756836,-29.22945022583008,-3.26042199134827
560,2092053035,14.34615516662598,-79.92337036132812,41.37957000732422,25.18682670593262,-0.63184410333633,3.06055927276611,-20.61660957336426,4.74950599670410,-6.76944875717163
561,2092069702,14.51482963562012,-79.57764434814453,40.83170700073242,17.96880149841309,1.55259001255035,1.43744182586670,-22.82494926452637,17.63908386230469,-10.35823249816895
562,2092086369,15.19222450256348,-79.24246978759766,39.78946685791016,10.78099155426025,1.03373277187347,0.18202340602875,-21.60811042785645,15.48075866699219,-15.82259082794189
563,2092103036,16.48782920837402,-78.92691040039062,38.20569610595703,6.56337070465088,1.23602020740509,0.89750307798386,-16.25856971740723,12.30280971527100,-22.02565574645996
564,2092119703,17.48507881164551,-78.55084228515625,36.99140930175781,5.79899311065674,1.70387470722198,1.99825012683868,-11.95190620422363,16.43033218383789,-19.68203353881836
565,2092136370,17.84529876708984,-78.33027648925781,36.33843231201172,2.37539267539978,0.17339843511581,2.02982473373413,-17.12599945068359,9.22653675079346,-10.98878955841064
566,2092153037,18.32864952087402,-78.37119293212891,35.52091217041016,-0.49070167541504,-0.32981067895889,1.44746422767639,-18.47074317932129,-6.35133171081543,-7.96198940277100
567,2092169704,19.45883369445801,-78.58731079101562,34.00153732299805,-1.28461503982544,-0.98550802469254,1.14198887348175,-20.94681358337402,-19.10775184631348,-12.33322238922119
568,2092186371,20.89994621276855,-78.90470886230469,32.23632049560547,-0.94753783941269,-1.06335902214050,1.16370141506195,-16.84546089172363,-25.94945716857910,-12.13698291778564
569,2092203038,21.80070304870605,-79.20211029052734,31.02201271057129,0.60404950380325,-0.26253050565720,1.44768977165222,-16.92221832275391,-22.60615348815918,-5.69588375091553
570,2092219705,21.98617172241211,-79.40331268310547,30.55497360229492,2.16410207748413,1.05733644962311,2.20600247383118,-15.84374427795410,-14.09294891357422,0.36640942096710
571,2092236372,21.64189147949219,-79.36097717285156,30.63269805908203,4.12367057800293,1.95028340816498,3.58877587318420,-15.50463390350342,1.72914671897888,0.54396933317184
572,2092253039,20.13118743896484,-79.39290618896484,31.61348342895508,7.47456979751587,1.24136710166931,5.33584403991699,-32.23249816894531,1.12764847278595,11.50552082061768
573,2092269706,16.88490867614746,-79.90714263916016,34.23037719726562,14.20898056030273,1.89268565177917,3.39002656936646,-39.74452590942383,-21.25374031066895,37.22279357910156
574,2092286373,11.81509876251221,-80.48117828369141,38.66146087646484,20.66905593872070,2.04790973663330,1.80228877067566,-41.63301467895508,-23.09088134765625,53.06429672241211
575,2092303040,9.18974685668945,-80.82421112060547,40.74464035034180,13.29536056518555,-1.34217572212219,1.39045321941376,-33.62184906005859,-17.49058723449707,24.39554405212402
576,2092319707,9.12045955657959,-81.35634613037109,40.70243453979492,11.69073295593262,-1.50432085990906,1.21529471874237,-6.10428667068481,-32.54743194580078,5.38534164428711
577,2092336374,11.28555965423584,-81.91881561279297,38.66143417358398,12.69341564178467,-1.06803798675537,1.47525644302368,9.29698181152344,-37.32297897338867,-10.85057353973389
578,2092353041,14.58217716217041,-82.33364105224609,35.62260055541992,11.41607666015625,-1.36233818531036,1.28555464744568,17.73312187194824,-30.79595375061035,-18.06682586669922
579,2092369708,16.97152709960938,-82.67803955078125,33.47906875610352,8.63909435272217,-1.24804556369781,1.52519392967224,16.40590858459473,-25.38972854614258,-9.82376003265381
580,2092386375,18.14272117614746,-82.94773864746094,32.48111343383789,9.17583179473877,-0.16989138722420,1.62678086757660,11.42030620574951,-18.64340019226074,-1.56513071060181
581,2092403042,18.65419197082520,-83.03527832031250,32.05382156372070,10.10015487670898,0.81277316808701,1.50604403018951,5.80566406250000,-6.91933679580688,-0.61835473775864
582,2092419709,19.00784683227539,-83.01096343994141,31.67558670043945,9.00666999816895,1.26187646389008,1.27648055553436,-0.73357331752777,-0.44785085320473,-2.39048457145691
583,2092436376,19.51806068420410,-82.98180389404297,31.13605690002441,8.63535594940186,0.82653862237930,1.22046780586243,-0.95493108034134,-0.59582823514938,-3.60946989059448
584,2092453043,20.14456748962402,-83.03334045410156,30.47805595397949,8.84159755706787,1.15262341499329,1.22420394420624,-1.03133392333984,-5.48503684997559,-2.77740311622620
585,2092469710,20.58583259582520,-83.16358947753906,29.94214248657227,9.20756053924561,1.21683967113495,1.17010951042175,-4.88152551651001,-9.61408901214600,-0.20967842638493
586,2092486377,20.65561676025391,-83.35993957519531,29.71426773071289,9.26152896881104,1.26784634590149,1.05937457084656,-8.82511806488037,-12.53636360168457,3.34117293357849
587,2092503044,20.12148094177246,-83.61666107177734,30.04419326782227,9.56506252288818,0.92857664823532,0.86732542514801,-11.82601642608643,-14.61846923828125,8.16733264923096
588,2092519711,19.30551338195801,-83.89015960693359,30.67787742614746,10.03259086608887,0.15229943394661,0.81290006637573,-10.60112762451172,-15.00695419311523,10.12222480773926
589,2092536378,19.04176902770996,-84.14020538330078,30.82610893249512,10.44057083129883,-0.71424853801727,0.88280993700027,-6.42308235168457,-14.81974029541016,6.49744224548340
590,2092553045,19.81594467163086,-84.31986999511719,30.05024337768555,10.58514022827148,-1.00508034229279,0.72147297859192,0.69713324308395,-12.66640949249268,-0.12986926734447
591,2092569712,21.30916404724121,-84.42504882812500,28.68190765380859,10.43789577484131,-0.65040069818497,0.75468957424164,8.44353389739990,-9.68479633331299,-4.61840820312500
592,2092586379,22.86509323120117,-84.47770690917969,27.32546806335449,10.34152984619141,-0.14804551005363,0.88328820466995,12.91151905059814,-6.83041286468506,-5.40231180191040
593,2092603046,24.21143722534180,-84.49341583251953,26.22071266174316,10.04422092437744,0.15263228118420,0.95412772893906,15.36834430694580,-4.34364843368530,-4.76610469818115
594,2092619713,25.50342369079590,-84.52002716064453,25.18388938903809,9.75427436828613,0.24623791873455,0.90302509069443,16.16300964355469,-4.89044332504272,-4.03404331207275
595,2092636380,26.64901733398438,-84.56985473632812,24.27301979064941,9.55736923217773,0.22885528206825,0.88975840806961,14.88949012756348,-5.91078901290894,-2.65500211715698
596,2092653047,27.66508865356445,-84.66468811035156,23.46891212463379,9.34291076660156,0.27165994048119,0.80215811729431,13.49056243896484,-8.07389926910400,-0.72957837581635
597,2092669714,28.67809295654297,-84.80303192138672,22.64525604248047,9.34097671508789,0.38471564650536,0.61118680238724,12.12465953826904,-10.40843582153320,0.62105095386505
598,2092686381,29.72422981262207,-84.96659088134766,21.77337265014648,9.53383445739746,0.51625913381577,0.32057830691338,11.22525596618652,-11.78474712371826,1.41612112522125
599,2092703048,30.72965240478516,-85.11805725097656,20.92511558532715,9.82502841949463,0.54134643077850,0.42462432384491,10.17253208160400,-11.01326370239258,1.47655391693115
600,2092719715,32.25913238525391,-85.27577972412109,19.57188415527344,9.95064735412598,0.46284747123718,0.54693138599396,11.41282558441162,-12.56864452362061,-0.14544826745987
601,2092736382,34.11497116088867,-85.41000366210938,17.90440177917480,9.96796512603760,0.48931691050529,0.39530667662621,12.19122886657715,-12.12410545349121,-1.68489480018616
602,2092753049,35.70213699340820,-85.50003051757812,16.47887229919434,10.21140003204346,0.38402023911476,0.26069140434265,10.53336429595947,-9.24005603790283,-1.76668834686279
603,2092769716,36.76070785522461,-85.54927062988281,15.56390476226807,10.29530239105225,0.20974946022034,0.45404833555222,9.33384037017822,-5.86329936981201,-1.00144410133362
604,2092786383,37.35875320434570,-85.57282257080078,15.10150527954102,10.03845596313477,0.17339372634888,0.48926433920860,8.78653526306152,-3.36251306533813,-0.16338346898556
605,2092803050,37.64949798583984,-85.60002899169922,14.92948246002197,9.88261699676514,0.22110314667225,0.55826461315155,7.72163581848145,-2.71950578689575,1.05979621410370
606,2092819717,38.02871704101562,-85.64356231689453,14.68062114715576,9.72270584106445,0.40340718626976,0.60024851560593,8.42533111572266,-3.70120263099670,1.39792227745056
607,2092836384,38.82891082763672,-85.69570922851562,14.00612926483154,9.53873538970947,0.43376645445824,0.64165437221527,8.21883010864258,-5.29132986068726,0.25271418690681
608,2092853051,40.12175750732422,-85.76543426513672,12.84468078613281,9.75562286376953,0.35096332430840,0.53798812627792,8.63390922546387,-7.46636009216309,-0.63980543613434
609,2092869718,41.18353652954102,-85.82392883300781,11.92560291290283,9.96582031250000,0.34813588857651,0.53312742710114,9.27776145935059,-6.23195552825928,-0.08212714642286
610,2092886385,41.92804718017578,-85.87332153320312,11.32183551788330,9.90831470489502,0.36933508515358,0.76459771394730,9.10799980163574,-4.89042663574219,0.69847774505615
611,2092903052,42.81593322753906,-85.95291137695312,10.56567001342773,9.72758579254150,0.37377873063087,0.73849898576736,8.56854629516602,-6.65063476562500,1.53496325016022
612,2092919719,43.78580856323242,-86.05861663818359,9.70632362365723,9.81500530242920,0.44688230752945,0.47738802433014,7.31534290313721,-8.02465438842773,2.44512391090393
613,2092936386,44.65372085571289,-86.15549468994141,8.93585300445557,9.74211406707764,0.39943957328796,0.50981986522675,6.50532722473145,-7.29882717132568,2.51172947883606
614,2092953053,45.68650817871094,-86.24208831787109,8.01352596282959,9.53199672698975,0.38031789660454,0.41832011938095,7.30485343933105,-7.20723724365234,1.80600976943970
615,2092969720,46.84191513061523,-86.31677246093750,6.96342468261719,9.29225921630859,0.38206386566162,0.41263255476952,7.01211261749268,-6.99011754989624,1.11847496032715
616,2092986387,48.19748306274414,-86.38507843017578,5.70325136184692,9.50536060333252,0.33677068352699,0.45194816589355,6.43984794616699,-7.25162315368652,0.47943782806396
617,2093003054,49.79394149780273,-86.45884704589844,4.19815349578857,9.80273437500000,0.45040473341942,0.36400076746941,6.21838760375977,-8.08669948577881,0.34676399827003
618,2093019721,51.92638397216797,-86.55548095703125,2.14675664901733,9.79064750671387,0.45901069045067,0.44034215807915,5.65922546386719,-10.40351295471191,0.47512227296829
619,2093036388,54.41957855224609,-86.65016937255859,-0.26898661255836,9.93785285949707,0.38721203804016,0.35405337810516,5.46563148498535,-11.20554828643799,0.11495625972748
620,2093053055,56.65446472167969,-86.71181488037109,-2.42428064346313,9.97224712371826,0.38323521614075,0.29409691691399,5.55788755416870,-9.18990421295166,-0.47594818472862
621,2093069722,58.84979248046875,-86.75924682617188,-4.53161811828613,9.84932136535645,0.43402406573296,0.27337780594826,6.04889535903931,-8.53168201446533,-0.72432744503021
622,2093086389,60.89288711547852,-86.80873870849609,-6.49277353286743,9.81673145294189,0.46322396397591,0.24527496099472,5.66410303115845,-8.12732124328613,-0.02931374125183
623,2093103056,63.19282913208008,-86.87112426757812,-8.72511959075928,9.75222110748291,0.49772837758064,0.25889071822166,4.82850122451782,-9.19785594940186,0.55851709842682
624,2093119723,66.10748291015625,-86.94937133789062,-11.58683967590332,9.72161006927490,0.41676896810532,0.17150449752808,3.99593567848206,-11.28685665130615,0.99377971887589
625,2093136390,69.38929748535156,-87.02902221679688,-14.81380748748779,9.77231121063232,0.35338860750198,0.18052104115486,4.12903213500977,-12.13229465484619,1.29522848129272
626,2093153057,72.38652801513672,-87.09040832519531,-17.76070594787598,9.96741199493408,0.32342633605003,0.08911269158125,3.82639145851135,-10.68403434753418,1.22241151332855
627,2093169724,74.73382568359375,-87.12451171875000,-20.06765937805176,9.98281669616699,0.29944095015526,0.10995347052813,3.18104004859924,-8.19195365905762,0.69090908765793
628,2093186391,76.75271606445312,-87.13802337646484,-22.04063224792480,9.91248893737793,0.34714722633362,0.27560907602310,3.47760963439941,-6.85890293121338,0.03358465805650
629,2093203058,78.79616546630859,-87.14466857910156,-24.01776695251465,9.82672309875488,0.36989909410477,0.24083815515041,4.70129585266113,-6.78398561477661,-0.15249805152416
630,2093219725,80.57749938964844,-87.14954376220703,-25.73990440368652,9.81085586547852,0.36842370033264,0.19142973423004,4.25800323486328,-6.02847433090210,0.06358993798494
631,2093236392,82.00434875488281,-87.15090942382812,-27.13121604919434,9.72228813171387,0.33233320713043,0.35641771554947,2.81854319572449,-5.03449630737305,0.13215512037277
632,2093253059,83.41164398193359,-87.14624786376953,-28.50214195251465,9.66318321228027,0.34783759713173,0.25641125440598,2.86455655097961,-4.94440364837646,-0.10319358110428
633,2093269726,85.12958526611328,-87.14652252197266,-30.18785858154297,9.75832080841064,0.47352510690689,0.15496912598610,2.64011263847351,-5.92899513244629,0.19983671605587
634,2093286393,87.35017395019531,-87.15043640136719,-32.37641525268555,9.85901260375977,0.48545813560486,0.12789581716061,2.66600704193115,-7.44617652893066,0.51938080787659
635,2093303060,89.37209320068359,-87.14713287353516,-34.37027740478516,9.87127590179443,0.42239561676979,0.19724558293819,2.42026591300964,-6.85758304595947,0.30473351478577
636,2093319727,90.73307800292969,-87.13433837890625,-35.70656585693359,9.80287265777588,0.37759417295456,0.22401885688305,2.15381717681885,-4.92195510864258,-0.05554114654660
637,2093336394,92.11491394042969,-87.12050628662109,-37.06683349609375,9.71916389465332,0.42091107368469,0.20988354086876,1.97415673732758,-5.03166675567627,-0.04530887305737
638,2093353061,93.91876220703125,-87.11140441894531,-38.85704421997070,9.98983669281006,0.47986689209938,-0.01293605379760,1.53995764255524,-6.34298610687256,0.42704701423645
639,2093369728,94.64789581298828,-87.11005401611328,-39.58390426635742,10.14374732971191,0.47323602437973,0.04859422147274,0.75784778594971,-3.12518477439880,0.79709923267365
640,2093386395,94.63735198974609,-87.11744689941406,-39.57414245605469,9.90148544311523,0.52520489692688,0.15153114497662,0.52017468214035,-0.87449437379837,1.11779582500458
641,2093403062,94.79927062988281,-87.13098907470703,-39.75461959838867,9.88407611846924,0.52297592163086,0.15147726237774,-0.53292346000671,-1.40956926345825,1.55631089210510
642,2093419729,94.72417449951172,-87.13898468017578,-39.70934677124023,9.93884086608887,0.44217637181282,0.12964098155499,-1.22016322612762,-0.76321995258331,1.16167020797729
643,2093436396,94.57989501953125,-87.13748168945312,-39.58978271484375,9.88911056518555,0.44347018003464,0.11608673632145,-0.92495137453079,-0.59080809354782,0.56572687625885
644,2093453063,94.38582611083984,-87.12587738037109,-39.41475677490234,9.75770664215088,0.48973259329796,0.04894751682878,-0.58673566579819,-0.47206762433052,-0.05281338468194
645,2093469730,94.32490539550781,-87.11554718017578,-39.36968612670898,9.70041370391846,0.43583512306213,0.00788927543908,-0.39498621225357,-0.84944510459900,0.06830266118050
646,2093486397,94.37183380126953,-87.10714721679688,-39.44089889526367,9.76608848571777,0.31721413135529,0.08746282756329,-0.88253676891327,-1.18927443027496,0.21362911164761
647,2093503064,94.46019744873047,-87.09491729736328,-39.54694747924805,9.79638957977295,0.36654427647591,0.13048848509789,-0.48427209258080,-1.31325280666351,-0.00714594312012
648,2093519731,94.20709228515625,-87.08711242675781,-39.32060623168945,9.77906513214111,0.55821043252945,0.13235272467136,-1.06178712844849,-0.28821972012520,0.17364767193794
649,2093536398,94.18900299072266,-87.08913421630859,-39.36156845092773,9.73279666900635,0.61457830667496,0.03792694211006,-2.96898555755615,-1.05542254447937,0.81186491250992
650,2093553065,93.95365142822266,-87.09498596191406,-39.19923400878906,9.84440517425537,0.55523735284805,-0.01764892786741,-3.83035445213318,-0.42141860723495,1.01607513427734
651,2093569732,93.24104309082031,-87.09269714355469,-38.56303787231445,9.88677406311035,0.49989065527916,0.09173250943422,-4.07542896270752,0.97768163681030,0.44660228490829
652,2093586399,93.11246490478516,-87.08329010009766,-38.50815582275391,9.73845767974854,0.39202922582626,0.05221603438258,-3.85813093185425,-0.80380350351334,0.11204917728901
653,2093603066,93.39351654052734,-87.07470703125000,-38.84990310668945,9.76816082000732,0.36303943395615,-0.08798976987600,-3.04058623313904,-2.00833058357239,0.22416879236698
654,2093619733,93.04119873046875,-87.06182098388672,-38.56530380249023,9.90292453765869,0.32573348283768,-0.01403156761080,-3.52790641784668,-0.11010900139809,-0.10610061138868
655,2093636400,92.42494964599609,-87.05144500732422,-38.01604080200195,9.86580085754395,0.27972590923309,-0.00369074335322,-3.49945068359375,0.71577894687653,-0.01237093470991
656,2093653067,91.64163970947266,-87.04242706298828,-37.28302764892578,9.89830398559570,0.24542903900146,0.07401435077190,-2.50743174552917,1.29785299301147,0.05593172833323
657,2093669734,90.68735504150391,-87.03462982177734,-36.35058212280273,9.86237621307373,0.22706179320812,0.15247088670731,-0.83266884088516,1.93275356292725,0.17850132286549
658,2093686401,89.57284545898438,-87.02941894531250,-35.22392654418945,9.82455062866211,0.36425077915192,0.09494816511869,1.20359838008881,2.54859781265259,0.36537152528763
659,2093703068,88.36412811279297,-87.02619171142578,-34.01523208618164,9.73379993438721,0.42016154527664,0.10130039602518,0.46080452203751,2.81202483177185,0.56438225507736
660,2093719735,87.45436096191406,-87.02764129638672,-33.09761428833008,9.64060592651367,0.38607394695282,0.01444952562451,0.95305502414703,1.90303015708923,0.89292919635773
661,2093736402,85.92750549316406,-87.03443145751953,-31.56599235534668,9.73579311370850,0.40218663215637,0.10559207201004,0.70450925827026,3.77202701568604,1.38549983501434
662,2093753069,84.38742065429688,-87.04315948486328,-30.01813888549805,9.68642902374268,0.40768730640411,0.26037362217903,0.90138125419617,3.78091454505920,1.61529684066772
663,2093769736,83.54280090332031,-87.05210876464844,-29.15703582763672,9.63880252838135,0.41094225645065,0.22311866283417,1.48104810714722,1.64236974716187,1.50710892677307
664,2093786403,83.20291900634766,-87.06508636474609,-28.79039192199707,9.72601890563965,0.40133088827133,0.14431470632553,2.13212251663208,0.08851107954979,1.60205495357513
665,2093803070,82.74938201904297,-87.08381652832031,-28.30681037902832,9.76141738891602,0.39165461063385,0.22007691860199,2.32693314552307,0.38765466213226,2.00094747543335
666,2093819737,82.54241180419922,-87.09700775146484,-28.06309700012207,9.72116851806641,0.39051383733749,0.18288271129131,2.75225734710693,-0.30579003691673,1.57058990001678
667,2093836404,82.25869750976562,-87.09957122802734,-27.73698616027832,9.73404693603516,0.38680827617645,0.17751082777977,3.07879376411438,0.02002272568643,0.97332733869553
668,2093853071,82.19616699218750,-87.10565948486328,-27.62659645080566,9.78786468505859,0.33476850390434,0.15315352380276,3.42742753028870,-0.65718984603882,1.10252439975739
669,2093869738,82.18540954589844,-87.11466217041016,-27.55895805358887,9.82875156402588,0.33697208762169,0.20030394196510,3.97754311561584,-0.80879783630371,1.24881744384766
670,2093886405,82.28805541992188,-87.12104797363281,-27.59777832031250,9.80554103851318,0.46759712696075,0.24566866457462,4.39784765243530,-1.10714757442474,1.06285667419434
671,2093903072,82.34835052490234,-87.12390899658203,-27.59159469604492,9.82595062255859,0.47477474808693,0.22927524149418,4.55166530609131,-0.94348233938217,0.87085103988647
672,2093919739,82.25628662109375,-87.13078308105469,-27.43846893310547,9.81395053863525,0.54377824068069,0.22899061441422,4.21794462203979,-0.53919857740402,1.16138887405396
673,2093936406,82.44587707519531,-87.14035034179688,-27.57430648803711,9.77839851379395,0.46318045258522,0.14160481095314,3.80052042007446,-1.41636931896210,1.20559608936310
674,2093953073,82.63898468017578,-87.14419555664062,-27.71439170837402,9.82939434051514,0.42229992151260,0.08334684371948,3.76891517639160,-1.38162589073181,0.86069554090500
675,2093969740,82.43812561035156,-87.14022064208984,-27.46475028991699,9.86818599700928,0.43801862001419,0.11001839488745,3.47366452217102,-0.16995306313038,0.55988723039627
676,2093986407,82.00291442871094,-87.13037109375000,-26.97992706298828,9.89694976806641,0.43119627237320,0.09740436822176,3.49743366241455,0.57598483562469,0.30300465226173
677,2094003074,81.24377441406250,-87.11818695068359,-26.17145156860352,9.88663959503174,0.52302312850952,0.12790255248547,3.45847702026367,1.56701719760895,0.32425042986870
678,2094019741,80.55101776123047,-87.11513519287109,-25.43685531616211,9.81748104095459,0.45659235119820,0.14162559807301,3.01829671859741,1.27081906795502,0.86704754829407
679,2094036408,79.76404571533203,-87.11378479003906,-24.61190986633301,9.79057598114014,0.43110045790672,0.08878794312477,2.77679443359375,1.52251482009888,1.03101992607117
680,2094053075,78.78962707519531,-87.10214233398438,-23.60821914672852,9.77821636199951,0.42103657126427,0.07898821681738,2.24767446517944,2.16658449172974,0.56775027513504
681,2094069742,77.72830200195312,-87.08779144287109,-22.51642227172852,9.80324363708496,0.42899879813194,0.14817471802235,2.29801607131958,2.47534561157227,0.52271032333374
682,2094086409,77.04118347167969,-87.08281707763672,-21.79457473754883,9.77756404876709,0.43109950423241,0.12539218366146,2.59163999557495,1.26764285564423,0.88145458698273
683,2094103076,76.37064361572266,-87.07611846923828,-21.09813308715820,9.73106193542480,0.42589274048805,0.09961866587400,2.05035424232483,1.21536755561829,0.80188882350922
684,2094119743,75.59350585937500,-87.06462097167969,-20.30159950256348,9.77853107452393,0.41280573606491,0.14160142838955,1.65813434123993,1.58954346179962,0.61382758617401
685,2094136410,74.83441925048828,-87.04448699951172,-19.52632331848145,9.78871345520020,0.40240901708603,0.28951331973076,1.48047184944153,1.67451357841492,0.12401028722525
686,2094153077,74.36967468261719,-87.02185058593750,-19.03260421752930,9.70985126495361,0.42268472909927,0.14980533719063,2.26728105545044,0.89678388834000,-0.21745182573795
